File: remote_trans/data/nanoindenter/0828-1/data/Data_2025-08-06,11h17m57s/2025-07-22_16-23-58_1_50.txt
2025-07-22, 16:23:58, 1
Index	Phase	Displacement	Time	Pos X	Pos Y	Pos Z	Rot A	Rot B	Piezo Z	Force A	Force B	Gripper	Voltage A	Voltage B	Temperature	Amplitude force	Amplitude pos	Stiffness	Phase shift	Phase excitation	Force A raw	Displacement raw	HMax	HMax raw	Real Force	Real Stiffness	Contact Depth	Area	Hardness	Reduced Mod.
[#]	[#]	[um]	[s]	[um]	[um]	[um]	[m°]	[m°]	[um]	[uN]	[uN]	[V]	[V]	[V]	[°C]	[uN]	[um]	[N/m]	[°]	[°]	[uN]	[um]	[um]	[um]	[uN]	[N/m]	[um]	[um^2]	[MPa]	[MPa]
50	1.000000	0.001581	7.36553e+06	-41139.1	955.818	-29787.9	0.000000	0.000000	6.002789	0.012854	NaN	0.000000	0.001607	0.001662	28.1216	0.014440	0.000946	15.2608	76.3658	-172.548	-0.072444	0.000333	-1.119787	-1.121035	0.012854	15.2608	-1.120418	-9.420761E+14	-1.364431E-17	NaN
50	1.000000	0.011669	7.36553e+06	-41139.1	955.818	-29787.9	0.000000	0.000000	6.012873	-0.073065	NaN	0.000000	0.001577	0.001686	28.1224	0.032791	0.001310	25.0259	104.771	17.8886	0.005225	0.010202	-1.109699	-1.111166	-0.073065	25.0259	-1.107509	-6.322070E+14	1.155711E-16	NaN
50	1.000000	0.021504	7.36553e+06	-41139.1	955.818	-29787.9	0.000000	0.000000	6.022709	-0.025686	NaN	0.000000	0.001620	0.001718	28.0854	0.022928	0.001561	14.6846	-26.5276	-167.319	0.031454	0.020211	-1.099865	-1.101158	-0.025686	14.6846	-1.098553	-4.793358E+14	5.358644E-17	NaN
50	1.000000	0.031543	7.36553e+06	-41139.1	955.818	-29787.9	0.000000	0.000000	6.032746	-0.098035	NaN	0.000000	0.001636	0.001708	28.0855	0.085832	0.001993	43.074	-40.1574	13.3282	-0.087017	0.030213	-1.089825	-1.091155	-0.098035	43.074	-1.088118	-3.471706E+14	2.823825E-16	NaN
50	1.000000	0.041513	7.36553e+06	-41139.1	955.818	-29787.9	0.000000	0.000000	6.042718	-0.033122	NaN	0.000000	0.001630	0.001715	28.122	0.065110	0.001951	33.3732	-61.7653	-165.255	-0.043519	0.040255	-1.079856	-1.081113	-0.033122	33.3732	-1.079111	-2.627739E+14	1.260478E-16	NaN
50	1.000000	0.051563	7.36553e+06	-41139.1	955.819	-29787.9	0.000000	0.000000	6.052769	-0.009864	NaN	0.000000	0.001663	0.001675	28.1238	0.030194	0.002073	14.568	156.393	13.2351	-0.007042	0.050177	-1.069805	-1.071191	-0.009864	14.568	-1.069298	-1.939777E+14	5.085378E-17	NaN
50	1.000000	0.061582	7.36553e+06	-41139.1	955.819	-29787.9	0.000000	0.000000	6.062789	0.009998	NaN	0.000000	0.001653	0.001737	28.0864	0.107730	0.002002	53.8083	-22.4881	-166.94	0.038646	0.060245	-1.059787	-1.061123	0.009998	53.8083	-1.059926	-1.451534E+14	-6.887960E-17	NaN
50	1.000000	0.071570	7.36553e+06	-41139.1	955.819	-29787.9	0.000000	0.000000	6.072777	0.005272	NaN	0.000000	0.001662	0.001707	28.0848	0.022032	0.002023	10.8932	98.1777	13.3658	0.003162	0.070203	-1.049798	-1.051166	0.005272	10.8932	-1.050161	-1.072957E+14	-4.913936E-17	NaN
50	1.000000	0.081568	7.36553e+06	-41139.1	955.818	-29787.9	0.000000	0.000000	6.082774	-0.026547	NaN	0.000000	0.001630	0.001716	28.1192	0.123018	0.002007	61.2838	78.6217	-166.919	-0.057404	0.080266	-1.039800	-1.041102	-0.026547	61.2838	-1.039475	-7.707441E+13	3.444304E-16	NaN
50	1.000000	0.091575	7.36553e+06	-41139.1	955.819	-29787.9	0.000000	0.000000	6.092781	-0.018907	NaN	0.000000	0.001645	0.001696	28.1212	0.026289	0.001966	13.3685	161.71	10.2742	0.081715	0.090218	-1.029793	-1.031150	-0.018907	13.3685	-1.028732	-5.526249E+13	3.421308E-16	NaN
50	1.000000	0.101557	7.36553e+06	-41139.1	955.818	-29787.9	0.000000	0.000000	6.102762	-0.055609	NaN	0.000000	0.001645	0.001701	28.0841	0.061255	0.001957	31.3016	25.9173	-164.336	-0.030652	0.100215	-1.019811	-1.021153	-0.055609	31.3016	-1.018479	-4.022381E+13	1.382491E-15	NaN
50	1.000000	0.111599	7.36553e+06	-41139.1	955.819	-29787.9	0.000000	0.000000	6.112804	-0.035560	NaN	0.000000	0.001640	0.001721	28.0829	0.105173	0.002005	52.4687	-179.665	10.989	-0.000965	0.110218	-1.009770	-1.011150	-0.035560	52.4687	-1.009261	-3.023016E+13	1.176320E-15	NaN
50	1.000000	0.121569	7.36553e+06	-41139.1	955.818	-29787.9	0.000000	0.000000	6.122776	0.006642	NaN	0.000000	0.001652	0.001706	28.1198	0.045856	0.002089	21.9554	-5.451782	-169.56	-0.016062	0.120253	-0.999799	-1.001115	0.006642	21.9554	-1.000026	-2.270485E+13	-2.925354E-16	NaN
50	1.000000	0.131570	7.36553e+06	-41139.1	955.818	-29787.9	0.000000	0.000000	6.132775	-0.043233	NaN	0.000000	0.001650	0.001735	28.1228	0.029016	0.002090	13.8832	-37.527	11.6199	0.041923	0.130267	-0.989798	-0.991101	-0.043233	13.8832	-0.987463	-1.537935E+13	2.811088E-15	NaN
50	1.000000	0.141600	7.36553e+06	-41139.1	955.818	-29787.9	0.000000	0.000000	6.142805	-0.056139	NaN	0.000000	0.001639	0.001704	28.0845	0.016925	0.002071	8.173206	146.15	-165.904	-0.033724	0.140336	-0.979768	-0.981032	-0.056139	8.173206	-0.974617	-1.032468E+13	5.437404E-15	NaN
50	1.000000	0.151572	7.36553e+06	-41139.1	955.819	-29787.9	0.000000	0.000000	6.152779	-0.000316	NaN	0.000000	0.001642	0.001720	28.085	0.019111	0.002092	9.137348	-92.7316	12.8598	-0.008338	0.150246	-0.969796	-0.971122	-0.000316	9.137348	-0.969770	-8.883060E+12	3.557027E-17	NaN
50	1.000000	0.161583	7.36553e+06	-41139.1	955.818	-29787.9	0.000000	0.000000	6.162787	-0.071933	NaN	0.000000	0.001641	0.001698	28.1192	0.054874	0.002008	27.3336	148.784	-167.08	-0.033241	0.160277	-0.959785	-0.961091	-0.071933	27.3336	-0.957812	-6.128630E+12	1.173717E-14	NaN
50	1.000000	0.171594	7.36553e+06	-41139.1	955.818	-29787.9	0.000000	0.000000	6.172799	-0.026368	NaN	0.000000	0.001656	0.001676	28.122	0.129481	0.001945	66.5683	48.1319	13.7146	-0.056674	0.170269	-0.949775	-0.951099	-0.026368	66.5683	-0.949478	-4.731308E+12	5.573072E-15	NaN
50	1.000000	0.181625	7.36553e+06	-41139.1	955.818	-29787.9	0.000000	0.000000	6.182830	-0.062463	NaN	0.000000	0.001627	0.001686	28.0841	0.057823	0.001895	30.5076	-176.397	-165.889	-0.044922	0.180272	-0.939743	-0.941096	-0.062463	30.5076	-0.938207	-3.333887E+12	1.873588E-14	NaN
50	1.000000	0.191628	7.36553e+06	-41139.1	955.818	-29787.9	0.000000	0.000000	6.192830	-0.107824	NaN	0.000000	0.001671	0.001722	28.0832	0.013190	0.001923	6.860364	-73.1084	12.4617	-0.097706	0.190253	-0.929740	-0.931115	-0.107824	6.860364	-0.917953	-1.776492E+12	6.069465E-14	NaN
50	1.000000	0.201577	7.36553e+06	-41139.1	955.818	-29787.9	0.000000	0.000000	6.202780	-0.110576	NaN	0.000000	0.001656	0.001678	28.1204	0.123457	0.002060	59.929	91.0452	-164.559	-0.107988	0.200304	-0.919791	-0.921064	-0.110576	59.929	-0.918407	-1.801759E+12	6.137133E-14	NaN
50	1.000000	0.211610	7.36553e+06	-41139.1	955.818	-29787.9	0.000000	0.000000	6.212815	-0.040364	NaN	0.000000	0.001655	0.001674	28.125	0.146803	0.001956	75.0554	-128.807	10.2693	-0.053558	0.210268	-0.909758	-0.911100	-0.040364	75.0554	-0.909355	-1.359724E+12	2.968513E-14	NaN
50	1.000000	0.221607	7.36553e+06	-41139.1	955.818	-29787.9	0.000000	0.000000	6.222812	-0.039271	NaN	0.000000	0.001655	0.001674	28.0858	0.009048	0.001956	4.626442	-106.263	-164.965	0.015816	0.220282	-0.899761	-0.901087	-0.039271	4.626442	-0.893395	-8.275635E+11	4.745436E-14	NaN
50	1.000000	0.231626	7.36553e+06	-41139.1	955.818	-29787.9	0.000000	0.000000	6.232830	-0.071413	NaN	0.000000	0.001667	0.001689	28.0854	0.116702	0.002057	56.7313	177.926	14.7683	-0.102232	0.230257	-0.889742	-0.891111	-0.071413	56.7313	-0.888798	-7.172504E+11	9.956487E-14	NaN
50	1.000000	0.241600	7.36553e+06	-41139.1	955.818	-29787.9	0.000000	0.000000	6.242800	-0.160848	NaN	0.000000	0.001663	0.001708	28.12	0.077983	0.001901	41.0323	33.4458	-162.15	-0.101332	0.240273	-0.879768	-0.881096	-0.160848	41.0323	-0.876828	-4.940970E+11	3.255392E-13	NaN
50	1.000000	0.251632	7.36553e+06	-41139.1	955.818	-29787.9	0.000000	0.000000	6.252837	-0.034350	NaN	0.000000	0.001644	0.001671	28.1234	0.065658	0.002040	32.182	-105.134	12.8393	-0.069679	0.250289	-0.869737	-0.871079	-0.034350	32.182	-0.868936	-3.864107E+11	8.889489E-14	NaN
50	1.000000	0.261648	7.36553e+06	-41139.1	955.818	-29787.9	0.000000	0.000000	6.262853	-0.049173	NaN	0.000000	0.001606	0.001728	28.0863	0.068944	0.001982	34.7891	34.2714	-168.874	-0.133732	0.260304	-0.859720	-0.861064	-0.049173	34.7891	-0.858660	-2.805321E+11	1.752839E-13	NaN
50	1.000000	0.271640	7.36553e+06	-41139.1	955.818	-29787.9	0.000000	0.000000	6.272843	-0.085236	NaN	0.000000	0.001639	0.001731	28.0833	0.057951	0.002024	28.632	-94.0784	14.4708	-0.045630	0.270274	-0.849729	-0.851094	-0.085236	28.632	-0.847496	-1.980739E+11	4.303259E-13	NaN
50	1.000000	0.281625	7.36553e+06	-41139.1	955.818	-29787.9	0.000000	0.000000	6.282831	-0.034381	NaN	0.000000	0.001627	0.001741	28.1207	0.078672	0.001932	40.7167	-110.319	-166.048	0.000563	0.280329	-0.839743	-0.841039	-0.034381	40.7167	-0.839110	-1.524862E+11	2.254723E-13	NaN
50	1.000000	0.291659	7.36553e+06	-41139.1	955.818	-29787.9	0.000000	0.000000	6.292862	-0.095790	NaN	0.000000	0.001620	0.001754	28.1252	0.093536	0.001947	48.0502	88.2939	12.5151	-0.039660	0.290318	-0.829709	-0.831050	-0.095790	48.0502	-0.828214	-1.085353E+11	8.825691E-13	NaN
50	1.000000	0.301653	7.36553e+06	-41139.1	955.818	-29787.9	0.000000	0.000000	6.302859	-0.035817	NaN	0.000000	0.001610	0.001787	28.0865	0.048697	0.001972	24.6944	-131.36	-168.188	-0.027524	0.300351	-0.819715	-0.821017	-0.035817	24.6944	-0.818627	-8.046233E+10	4.451418E-13	NaN
50	1.000000	0.311647	7.36553e+06	-41139.1	955.819	-29787.9	0.000000	0.000000	6.312854	0.014407	NaN	0.000000	0.001588	0.001734	28.0864	0.124976	0.002002	62.4389	-0.789323	16.1782	0.001732	0.310317	-0.809721	-0.811052	0.014407	62.4389	-0.809894	-6.125433E+10	-2.351920E-13	NaN
50	1.000000	0.321656	7.36553e+06	-41139.1	955.818	-29787.9	0.000000	0.000000	6.322860	-0.064233	NaN	0.000000	0.001622	0.001704	28.1197	0.084619	0.001920	44.0659	-111.117	-167.125	-0.109764	0.320305	-0.799712	-0.801063	-0.064233	44.0659	-0.798619	-4.306395E+10	1.491568E-12	NaN
50	1.000000	0.331657	7.36554e+06	-41139.1	955.818	-29787.9	0.000000	0.000000	6.332860	-0.103472	NaN	0.000000	0.001617	0.001735	28.1237	0.041675	0.001917	21.7383	110.186	12.3965	-0.078901	0.330274	-0.789711	-0.791095	-0.103472	21.7383	-0.786141	-2.915171E+10	3.549438E-12	NaN
50	1.000000	0.341667	7.36554e+06	-41139.1	955.818	-29787.9	0.000000	0.000000	6.342869	-0.119825	NaN	0.000000	0.001645	0.001745	28.0847	0.142770	0.002087	68.4094	50.4604	-165.912	-0.144686	0.340383	-0.779702	-0.780985	-0.119825	68.4094	-0.778388	-2.287304E+10	5.238720E-12	NaN
50	1.000000	0.351671	7.36554e+06	-41139.1	955.818	-29787.9	0.000000	0.000000	6.352875	-0.069885	NaN	0.000000	0.001614	0.001726	28.0846	0.048753	0.002040	23.893	-99.0694	14.2304	-0.072085	0.350268	-0.769698	-0.771100	-0.069885	23.893	-0.767504	-1.626919E+10	4.295527E-12	NaN
50	1.000000	0.361683	7.36554e+06	-41139.1	955.818	-29787.9	0.000000	0.000000	6.362887	-0.057858	NaN	0.000000	0.001619	0.001749	28.1193	0.129036	0.002091	61.7149	150.246	-168.282	0.007360	0.360327	-0.759686	-0.761041	-0.057858	61.7149	-0.758982	-1.245828E+10	4.644144E-12	NaN
50	1.000000	0.371674	7.36554e+06	-41139.1	955.817	-29787.9	0.000000	0.000000	6.372879	-0.050178	NaN	0.000000	0.001610	0.001754	28.1234	0.081042	0.001993	40.6625	-40.5567	15.89	-0.023137	0.370278	-0.749694	-0.751090	-0.050178	40.6625	-0.748769	-9.046013E+9	5.547011E-12	NaN
50	1.000000	0.381681	7.36554e+06	-41139.1	955.818	-29787.9	0.000000	0.000000	6.382884	-0.113610	NaN	0.000000	0.001611	0.001760	28.0845	0.083401	0.001949	42.8012	140.642	-166.953	-0.129213	0.380398	-0.739687	-0.740970	-0.113610	42.8012	-0.737696	-6.392502E+9	1.777242E-11	NaN
50	1.000000	0.391689	7.36554e+06	-41139.1	955.819	-29787.9	0.000000	0.000000	6.392896	0.008632	NaN	0.000000	0.001624	0.001765	28.0841	0.035830	0.001937	18.5006	-23.0881	17.0268	-0.009207	0.390341	-0.729679	-0.731028	0.008632	18.5006	-0.730029	-5.025767E+9	-1.717511E-12	NaN
50	1.000000	0.401702	7.36554e+06	-41139.1	955.818	-29787.9	0.000000	0.000000	6.402907	-0.045479	NaN	0.000000	0.001630	0.001732	28.1176	0.044661	0.001956	22.8308	171.539	-167.476	0.004500	0.400422	-0.719666	-0.720946	-0.045479	22.8308	-0.718172	-3.463758E+9	1.312989E-11	NaN
50	1.000000	0.411702	7.36554e+06	-41139.1	955.818	-29787.9	0.000000	0.000000	6.412909	-0.014124	NaN	0.000000	0.001640	0.001752	28.1222	0.031465	0.002101	14.9761	98.4376	11.4805	-0.059739	0.410297	-0.709666	-0.711071	-0.014124	14.9761	-0.708958	-2.593186E+9	5.446600E-12	NaN
50	1.000000	0.421727	7.36554e+06	-41139.1	955.818	-29787.9	0.000000	0.000000	6.422928	-0.148545	NaN	0.000000	0.001633	0.001753	28.0829	0.052703	0.001901	27.7171	4.406338	-164.976	-0.039953	0.420389	-0.699641	-0.700979	-0.148545	27.7171	-0.695622	-1.705026E+9	8.712157E-11	NaN
50	1.000000	0.431731	7.36554e+06	-41139.1	955.818	-29787.9	0.000000	0.000000	6.432939	0.031593	NaN	0.000000	0.001598	0.001726	28.0832	0.111577	0.002110	52.8839	177.511	12.7338	-0.010817	0.430304	-0.689637	-0.691064	0.031593	52.8839	-0.690085	-1.432459E+9	-2.205486E-11	NaN
50	1.000000	0.441688	7.36554e+06	-41139.1	955.818	-29787.9	0.000000	0.000000	6.442892	-0.058066	NaN	0.000000	0.001637	0.001749	28.1188	0.095632	0.001976	48.3993	-142.748	-167.003	-0.017857	0.440408	-0.679680	-0.680960	-0.058066	48.3993	-0.678780	-1.003521E+9	5.786218E-11	NaN
50	1.000000	0.451708	7.36554e+06	-41139.1	955.818	-29787.9	0.000000	0.000000	6.452913	-0.051569	NaN	0.000000	0.001622	0.001740	28.123	0.057847	0.002095	27.6159	152.98	16.8523	-0.042069	0.450345	-0.669660	-0.671023	-0.051569	27.6159	-0.668260	-7.203920E+8	7.158487E-11	NaN
50	1.000000	0.461756	7.36554e+06	-41139.1	955.819	-29787.9	0.000000	0.000000	6.462961	-0.043653	NaN	0.000000	0.001614	0.001730	28.0855	0.033805	0.002014	16.7844	6.348549	-164.745	-0.048056	0.460374	-0.659612	-0.660994	-0.043653	16.7844	-0.657661	-5.157413E+8	8.464171E-11	NaN
50	1.000000	0.471751	7.36554e+06	-41139.1	955.819	-29787.9	0.000000	0.000000	6.472956	-0.040798	NaN	0.000000	0.001652	0.001749	28.0836	0.089905	0.002010	44.7328	-101.455	15.5604	-0.043891	0.470358	-0.649617	-0.651010	-0.040798	44.7328	-0.648933	-3.915701E+8	1.041901E-10	NaN
50	1.000000	0.481747	7.36554e+06	-41139.1	955.818	-29787.9	0.000000	0.000000	6.482949	-0.110670	NaN	0.000000	0.001655	0.001740	28.118	0.020179	0.002003	10.0765	-127.84	-166.446	-0.112373	0.480436	-0.639621	-0.640932	-0.110670	10.0765	-0.631384	-2.249195E+8	4.920427E-10	NaN
50	1.000000	0.491722	7.36554e+06	-41139.1	955.818	-29787.9	0.000000	0.000000	6.492925	-0.082898	NaN	0.000000	0.001652	0.001735	28.1235	0.050348	0.001897	26.5376	-37.5522	16.726	-0.095947	0.490376	-0.629646	-0.630992	-0.082898	26.5376	-0.627304	-1.976921E+8	4.193272E-10	NaN
50	1.000000	0.501770	7.36554e+06	-41139.1	955.818	-29787.9	0.000000	0.000000	6.502976	-0.012874	NaN	0.000000	0.001683	0.001757	28.0851	0.159395	0.001903	83.7546	155.257	-169.008	-0.050826	0.500438	-0.619598	-0.620930	-0.012874	83.7546	-0.619483	-1.543579E+8	8.340415E-11	NaN
50	1.000000	0.511723	7.36554e+06	-41139.1	955.818	-29787.9	0.000000	0.000000	6.512926	-0.085707	NaN	0.000000	0.001656	0.001733	28.084	0.031572	0.002015	15.6706	-67.4431	10.8916	-0.098481	0.510455	-0.609645	-0.610913	-0.085707	15.6706	-0.605543	-9.926156E+7	8.634435E-10	NaN
50	1.000000	0.521756	7.36554e+06	-41139.1	955.818	-29787.9	0.000000	0.000000	6.522958	-0.117761	NaN	0.000000	0.001653	0.001754	28.1192	0.027543	0.001954	14.0926	61.4598	-169.265	-0.186268	0.520427	-0.599612	-0.600941	-0.117761	14.0926	-0.593345	-6.741746E+7	1.746748E-9	NaN
50	1.000000	0.531740	7.36554e+06	-41139.1	955.818	-29787.9	0.000000	0.000000	6.532942	-0.128482	NaN	0.000000	0.001633	0.001770	28.1246	0.128806	0.002037	63.2222	-128.165	15.842	-0.119406	0.530387	-0.589628	-0.590981	-0.128482	63.2222	-0.588104	-5.708473E+7	2.250729E-9	NaN
50	1.000000	0.541747	7.36554e+06	-41139.1	955.818	-29787.9	0.000000	0.000000	6.542955	0.042095	NaN	0.000000	0.001622	0.001780	28.0862	0.042699	0.002069	20.6356	149.285	-164.897	0.094835	0.540495	-0.579621	-0.580874	0.042095	20.6356	-0.581151	-4.577349E+7	-9.196460E-10	NaN
50	1.000000	0.551763	7.36554e+06	-41139.1	955.818	-29787.9	0.000000	0.000000	6.552969	-0.023769	NaN	0.000000	0.001659	0.001747	28.0858	0.043918	0.002055	21.3706	-98.4115	13.3914	-0.005393	0.550363	-0.569605	-0.571005	-0.023769	21.3706	-0.568771	-3.087780E+7	7.697823E-10	NaN
50	1.000000	0.561792	7.36554e+06	-41139.1	955.817	-29787.9	0.000000	0.000000	6.562998	-0.022287	NaN	0.000000	0.001679	0.001797	28.1178	0.076168	0.002017	37.7569	-158.398	-164.796	-0.012560	0.560495	-0.559576	-0.560873	-0.022287	37.7569	-0.559134	-2.271914E+7	9.809973E-10	NaN
50	1.000000	0.571778	7.36554e+06	-41139.1	955.818	-29787.9	0.000000	0.000000	6.572983	-0.061915	NaN	0.000000	0.001689	0.001796	28.1238	0.061604	0.002039	30.2138	62.7052	11.1201	-0.124171	0.570391	-0.549590	-0.550977	-0.061915	30.2138	-0.548053	-1.595817E+7	3.879810E-9	NaN
50	1.000000	0.581777	7.36554e+06	-41139.1	955.819	-29787.9	0.000000	0.000000	6.582983	-0.018544	NaN	0.000000	0.001671	0.001747	28.0856	0.088697	0.002093	42.379	151.565	-166.886	-0.040471	0.580426	-0.539591	-0.540942	-0.018544	42.379	-0.539263	-1.205408E+7	1.538401E-9	NaN
50	1.000000	0.591790	7.36554e+06	-41139.1	955.817	-29787.9	0.000000	0.000000	6.592997	-0.003361	NaN	0.000000	0.001688	0.001806	28.083	0.052295	0.002073	25.2314	-5.563175	13.9112	0.036497	0.590459	-0.529578	-0.530909	-0.003361	25.2314	-0.529478	-8.81706e+06	3.811924E-10	NaN
50	1.000000	0.601787	7.36554e+06	-41139.1	955.818	-29787.9	0.000000	0.000000	6.602991	-0.067497	NaN	0.000000	0.001633	0.001773	28.1189	0.038641	0.001864	20.7349	-91.7203	-166.844	-0.106270	0.600449	-0.519581	-0.520919	-0.067497	20.7349	-0.517140	-5.94033e+06	1.136243E-8	NaN
50	1.000000	0.611812	7.36554e+06	-41139.1	955.819	-29787.9	0.000000	0.000000	6.613018	-0.026869	NaN	0.000000	0.001646	0.001750	28.1259	0.106542	0.001987	53.619	-85.9068	13.1074	0.091137	0.610440	-0.509556	-0.510928	-0.026869	53.619	-0.509180	-4.60256e+06	5.837851E-9	NaN
50	1.000000	0.621793	7.36554e+06	-41139.1	955.818	-29787.9	0.000000	0.000000	6.622998	-0.053428	NaN	0.000000	0.001617	0.001760	28.0842	0.027112	0.002054	13.1999	2.449318	-169.348	-0.002380	0.620519	-0.499575	-0.500849	-0.053428	13.1999	-0.496539	-3.06705e+06	1.742010E-8	NaN
50	1.000000	0.631803	7.36554e+06	-41139.1	955.818	-29787.9	0.000000	0.000000	6.633008	-0.052309	NaN	0.000000	0.001608	0.001770	28.083	0.063520	0.001966	32.3083	-95.8256	16.0943	-0.012589	0.630408	-0.489565	-0.490960	-0.052309	32.3083	-0.488351	-2.35691e+06	2.219392E-8	NaN
50	1.000000	0.641808	7.36554e+06	-41139.1	955.819	-29787.9	0.000000	0.000000	6.643013	-0.032463	NaN	0.000000	0.001654	0.001750	28.1167	0.053863	0.002081	25.8877	148.666	-168.223	-0.118713	0.640507	-0.479561	-0.480861	-0.032463	25.8877	-0.478620	-1.72269e+06	1.884458E-8	NaN
50	1.000000	0.651790	7.36554e+06	-41139.1	955.818	-29787.9	0.000000	0.000000	6.652995	-0.045191	NaN	0.000000	0.001652	0.001786	28.123	0.042869	0.001911	22.4275	-133.602	16.6281	-0.039206	0.650439	-0.469578	-0.470929	-0.045191	22.4275	-0.468067	-1.22544e+06	3.687705E-8	NaN
50	1.000000	0.661801	7.36554e+06	-41139.1	955.818	-29787.9	0.000000	0.000000	6.663004	-0.100603	NaN	0.000000	0.001611	0.001809	28.0848	0.059205	0.002074	28.5427	135.114	-166.06	-0.190119	0.660511	-0.459567	-0.460857	-0.100603	28.5427	-0.456924	-854618	1.177171E-7	NaN
50	1.000000	0.671767	7.36554e+06	-41139.1	955.818	-29787.9	0.000000	0.000000	6.672971	-0.057040	NaN	0.000000	0.001634	0.001757	28.0823	0.044496	0.001971	22.5812	36.0698	14.3347	-0.079910	0.670421	-0.449602	-0.450947	-0.057040	22.5812	-0.447707	-633936	8.997692E-8	NaN
50	1.000000	0.681798	7.36554e+06	-41139.1	955.819	-29787.9	0.000000	0.000000	6.683002	-0.063906	NaN	0.000000	0.001684	0.001745	28.1176	0.127379	0.002027	62.8489	41.657	-166.156	-0.074905	0.680530	-0.439571	-0.440838	-0.063906	62.8489	-0.438808	-474829	1.345879E-7	NaN
50	1.000000	0.691836	7.36554e+06	-41139.1	955.818	-29787.9	0.000000	0.000000	6.693039	-0.082739	NaN	0.000000	0.001693	0.001726	28.1242	0.143956	0.002036	70.7149	24.7209	13.7666	-0.028437	0.690461	-0.429533	-0.430907	-0.082739	70.7149	-0.428655	-341217	2.424815E-7	NaN
50	1.000000	0.701828	7.36554e+06	-41139.1	955.817	-29787.9	0.000000	0.000000	6.703034	-0.024714	NaN	0.000000	0.001660	0.001689	28.0852	0.049099	0.002000	24.5538	-10.9044	-167.526	-0.070553	0.700490	-0.419540	-0.420878	-0.024714	24.5538	-0.418786	-247280	9.994400E-8	NaN
50	1.000000	0.711811	7.36554e+06	-41139.1	955.818	-29787.9	0.000000	0.000000	6.713016	-0.054855	NaN	0.000000	0.001646	0.001679	28.0827	0.058971	0.001992	29.6035	-5.916015	10.9538	-0.058071	0.710445	-0.409557	-0.410923	-0.054855	29.6035	-0.408167	-174714	3.139716E-7	NaN
50	1.000000	0.721825	7.36554e+06	-41139.1	955.818	-29787.9	0.000000	0.000000	6.723031	-0.026861	NaN	0.000000	0.001673	0.001699	28.1161	0.023570	0.001827	12.902	-159.274	-166.111	-0.015351	0.720511	-0.399543	-0.400857	-0.026861	12.902	-0.397982	-125084	2.147410E-7	NaN
50	1.000000	0.731813	7.36554e+06	-41139.1	955.818	-29787.9	0.000000	0.000000	6.733019	-0.013615	NaN	0.000000	0.001650	0.001689	28.1232	0.085859	0.001931	44.4674	-17.4729	10.2068	0.013967	0.730521	-0.389556	-0.390847	-0.013615	44.4674	-0.389326	-94085.8	1.447045E-7	NaN
50	1.000000	0.741820	7.36554e+06	-41139.1	955.818	-29787.9	0.000000	0.000000	6.743025	-0.043942	NaN	0.000000	0.001624	0.001697	28.0846	0.024786	0.001954	12.6856	-34.6318	-164.813	-0.011213	0.740550	-0.379548	-0.380818	-0.043942	12.6856	-0.376950	-62530.7	7.027263E-7	NaN
50	1.000000	0.751843	7.36554e+06	-41139.1	955.818	-29787.9	0.000000	0.000000	6.753046	-0.090470	NaN	0.000000	0.001612	0.001721	28.0824	0.011933	0.001830	6.521190	-179.271	15.5365	-0.105192	0.750473	-0.369525	-0.370895	-0.090470	6.521190	-0.359120	-34604.2	2.614426E-6	NaN
50	1.000000	0.761838	7.36554e+06	-41139.1	955.818	-29787.9	0.000000	0.000000	6.763043	-0.059935	NaN	0.000000	0.001627	0.001719	28.1175	0.067559	0.002014	33.5474	48.147	-163.803	0.003476	0.760519	-0.359530	-0.360849	-0.059935	33.5474	-0.358190	-33548.4	1.786511E-6	NaN
50	1.000000	0.771873	7.36554e+06	-41139.1	955.818	-29787.9	0.000000	0.000000	6.773076	-0.080368	NaN	0.000000	0.001603	0.001725	28.1256	0.162533	0.001909	85.1239	12.8304	13.1534	-0.026940	0.770475	-0.349496	-0.350893	-0.080368	85.1239	-0.348787	-24513.2	3.278571E-6	NaN
50	1.000000	0.781847	7.36554e+06	-41139.1	955.819	-29787.9	0.000000	0.000000	6.783052	-0.056801	NaN	0.000000	0.001615	0.001684	28.0866	0.041438	0.001972	21.0112	-82.155	-165.443	-0.099139	0.780539	-0.339521	-0.340829	-0.056801	21.0112	-0.337493	-16787.8	3.383481E-6	NaN
50	1.000000	0.791868	7.36554e+06	-41139.1	955.818	-29787.9	0.000000	0.000000	6.793071	-0.083291	NaN	0.000000	0.001630	0.001736	28.0838	0.021044	0.001994	10.5524	-149.319	13.2668	-0.078248	0.790504	-0.329500	-0.330864	-0.083291	10.5524	-0.323581	-10502.4	7.930613E-6	NaN
50	1.000000	0.801874	7.36554e+06	-41139.1	955.818	-29787.9	0.000000	0.000000	6.803078	-0.065247	NaN	0.000000	0.001633	0.001728	28.1164	0.023511	0.002048	11.478	-25.7596	-166.535	-0.074229	0.800641	-0.319494	-0.320727	-0.065247	11.478	-0.315231	-7913.3	8.245216E-6	NaN
50	1.000000	0.811874	7.36554e+06	-41139.1	955.818	-29787.9	0.000000	0.000000	6.813079	-0.039858	NaN	0.000000	0.001661	0.001718	28.1246	0.043404	0.002042	21.2523	-172.827	14.1364	-0.013229	0.810484	-0.309494	-0.310884	-0.039858	21.2523	-0.308088	-6205	6.423539E-6	NaN
50	1.000000	0.821867	7.36554e+06	-41139.1	955.819	-29787.9	0.000000	0.000000	6.823071	-0.056606	NaN	0.000000	0.001646	0.001710	28.0865	0.140970	0.002098	67.1796	171.611	-167.748	-0.087530	0.820536	-0.299502	-0.300832	-0.056606	67.1796	-0.298870	-4526.93	1.250435E-5	NaN
50	1.000000	0.831871	7.36554e+06	-41139.1	955.819	-29787.9	0.000000	0.000000	6.833075	-0.055562	NaN	0.000000	0.001663	0.001697	28.0824	0.078122	0.001837	42.5333	177.025	12.0402	-0.028481	0.830526	-0.289497	-0.290842	-0.055562	42.5333	-0.288518	-3170.17	1.752640E-5	NaN
50	1.000000	0.841886	7.36554e+06	-41139.1	955.819	-29787.9	0.000000	0.000000	6.843092	-0.028157	NaN	0.000000	0.001636	0.001749	28.1176	0.045862	0.002049	22.3778	-30.487	-165.081	-0.020951	0.840555	-0.279482	-0.280814	-0.028157	22.3778	-0.278538	-2243.42	1.255085E-5	NaN
50	1.000000	0.851913	7.36554e+06	-41139.1	955.818	-29787.9	0.000000	0.000000	6.853119	-0.040239	NaN	0.000000	0.001687	0.001727	28.1262	0.059896	0.002016	29.7081	132.705	14.4332	-0.011632	0.850533	-0.269455	-0.270835	-0.040239	29.7081	-0.268439	-1576.89	2.551762E-5	NaN
50	1.000000	0.861866	7.36554e+06	-41139.1	955.818	-29787.9	0.000000	0.000000	6.863069	-0.084162	NaN	0.000000	0.001719	0.001686	28.0874	0.089596	0.002065	43.3852	-140.653	-169.891	-0.042249	0.860605	-0.259503	-0.260763	-0.084162	43.3852	-0.258048	-1093.88	7.693902E-5	NaN
50	1.000000	0.871908	7.36554e+06	-41139.1	955.819	-29787.9	0.000000	0.000000	6.873111	-0.102948	NaN	0.000000	0.001723	0.001721	28.0842	0.023503	0.001897	12.3893	85.3848	13.3467	-0.006658	0.870552	-0.249460	-0.250817	-0.102948	12.3893	-0.243228	-645.49	0.000159	NaN
50	1.000000	0.881876	7.36554e+06	-41139.1	955.818	-29787.9	0.000000	0.000000	6.883078	-0.129616	NaN	0.000000	0.001675	0.001693	28.1166	0.068209	0.002117	32.2228	118.798	-165.674	-0.098738	0.880645	-0.239492	-0.240723	-0.129616	32.2228	-0.236475	-506.285	0.000256	NaN
50	1.000000	0.891901	7.36554e+06	-41139.1	955.819	-29787.9	0.000000	0.000000	6.893106	-0.064756	NaN	0.000000	0.001643	0.001710	28.1238	0.073032	0.002057	35.5016	-120.363	13.815	-0.151755	0.890580	-0.229467	-0.230788	-0.064756	35.5016	-0.228099	-373.648	0.000173	NaN
50	1.000000	0.901894	7.36554e+06	-41139.1	955.819	-29787.9	0.000000	0.000000	6.903099	-0.043888	NaN	0.000000	0.001635	0.001696	28.0856	0.057276	0.002128	26.9127	-37.1257	-162.282	-0.049382	0.900577	-0.219474	-0.220791	-0.043888	26.9127	-0.218251	-260.436	0.000169	NaN
50	1.000000	0.911900	7.36554e+06	-41139.1	955.818	-29787.9	0.000000	0.000000	6.913105	-0.024200	NaN	0.000000	0.001674	0.001699	28.0805	0.058246	0.002069	28.1502	-8.540891	16.6048	0.025237	0.910574	-0.209469	-0.210794	-0.024200	28.1502	-0.208824	-183.551	0.000132	NaN
50	1.000000	0.921934	7.36554e+06	-41139.1	955.819	-29787.9	0.000000	0.000000	6.923137	-0.112419	NaN	0.000000	0.001636	0.001672	28.1159	0.074220	0.002036	36.4491	13.2924	-166.946	-0.122487	0.920590	-0.199434	-0.200778	-0.112419	36.4491	-0.197121	-118.105	0.000952	NaN
50	1.000000	0.931943	7.36554e+06	-41139.1	955.818	-29787.9	0.000000	0.000000	6.933143	-0.152294	NaN	0.000000	0.001609	0.001702	28.1251	0.082247	0.002057	39.9833	-165.826	15.2561	-0.104619	0.930529	-0.189426	-0.190839	-0.152294	39.9833	-0.186569	-78.8021	0.001933	NaN
50	1.000000	0.941930	7.36554e+06	-41139.1	955.818	-29787.9	0.000000	0.000000	6.943136	-0.028653	NaN	0.000000	0.001637	0.001697	28.0861	0.080882	0.001879	43.0404	11.8954	-164.022	-0.010895	0.940570	-0.179438	-0.180798	-0.028653	43.0404	-0.178939	-58.5317	0.000490	NaN
50	1.000000	0.951915	7.36554e+06	-41139.1	955.818	-29787.9	0.000000	0.000000	6.953121	-0.027139	NaN	0.000000	0.001675	0.001655	28.0824	0.039514	0.001993	19.8286	146.727	10.0107	-0.071824	0.950534	-0.169453	-0.170834	-0.027139	19.8286	-0.168426	-38.5693	0.000704	NaN
50	1.000000	0.961915	7.36554e+06	-41139.1	955.819	-29787.9	0.000000	0.000000	6.963120	-0.025651	NaN	0.000000	0.001678	0.001688	28.1148	0.232286	0.002012	115.467	160.701	-167.068	-0.048877	0.960583	-0.159454	-0.160786	-0.025651	115.467	-0.159287	-26.626	0.000963	NaN
50	1.000000	0.971922	7.36554e+06	-41139.1	955.818	-29787.9	0.000000	0.000000	6.973127	-0.057103	NaN	0.000000	0.001676	0.001697	28.1241	0.130553	0.001907	68.4533	-121.829	13.1751	-0.031576	0.970559	-0.149446	-0.150809	-0.057103	68.4533	-0.148820	-17.2367	0.003313	NaN
50	1.000000	0.981959	7.36554e+06	-41139.1	955.818	-29787.9	0.000000	0.000000	6.983163	-0.057404	NaN	0.000000	0.001675	0.001716	28.0846	0.025828	0.002076	12.4427	148.085	-166.393	-0.063311	0.980650	-0.139409	-0.140718	-0.057404	12.4427	-0.135949	-9.917121	0.005788	NaN
50	1.000000	0.991990	7.36554e+06	-41139.1	955.819	-29787.9	0.000000	0.000000	6.993191	-0.122821	NaN	0.000000	0.001681	0.001747	28.0819	0.052027	0.002038	25.5335	94.1388	12.3919	-0.133437	0.990564	-0.129379	-0.130804	-0.122821	25.5335	-0.125771	-6.298372	0.019500	NaN
50	1.000000	1.001924	7.36554e+06	-41139.1	955.818	-29787.9	0.000000	0.000000	7.003130	-0.019547	NaN	0.000000	0.001659	0.001750	28.1156	0.109106	0.002011	54.2657	-86.6449	-167.267	-0.034685	1.000675	-0.119444	-0.120693	-0.019547	54.2657	-0.119174	-4.649314	0.004204	NaN
50	1.000000	1.011926	7.36554e+06	-41139.1	955.817	-29787.9	0.000000	0.000000	7.013132	-0.023733	NaN	0.000000	0.001643	0.001757	28.1253	0.120767	0.002071	58.3062	80.2914	14.5495	0.071748	1.010574	-0.109442	-0.110794	-0.023733	58.3062	-0.109137	-2.881613	0.008236	NaN
50	1.000000	1.021959	7.36554e+06	-41139.1	955.818	-29787.9	0.000000	0.000000	7.023162	-0.098414	NaN	0.000000	0.001643	0.001755	28.0863	0.106431	0.001981	53.7313	34.7698	-165.702	-0.168187	1.020663	-0.099409	-0.100705	-0.098414	53.7313	-0.098036	-1.651966	0.059574	NaN
50	1.000000	1.031961	7.36554e+06	-41139.1	955.818	-29787.9	0.000000	0.000000	7.033164	-0.106822	NaN	0.000000	0.001645	0.001728	28.0842	0.107297	0.001985	54.0619	-38.5003	14.8184	-0.051214	1.030641	-0.089407	-0.090727	-0.106822	54.0619	-0.087925	-0.965661	0.110621	NaN
50	1.000000	1.041999	7.36554e+06	-41139.1	955.818	-29787.9	0.000000	0.000000	7.043205	-0.028688	NaN	0.000000	0.001651	0.001774	28.1155	0.083542	0.002108	39.6222	129.584	-166.215	-0.038887	1.040673	-0.079369	-0.080695	-0.028688	39.6222	-0.078826	-0.578377	0.049601	NaN
50	1.000000	1.051960	7.36554e+06	-41139.1	955.819	-29787.9	0.000000	0.000000	7.053161	-0.140865	NaN	0.000000	0.001757	0.001761	28.1257	0.022696	0.002011	11.2844	-119.619	17.675	-0.017008	1.050587	-0.069408	-0.070782	-0.140865	11.2844	-0.060046	-0.180639	0.779813	NaN
50	1.000000	1.061976	7.36554e+06	-41139.1	955.818	-29787.9	0.000000	0.000000	7.063178	-0.108596	NaN	0.000000	0.001696	0.001764	28.0872	0.148865	0.001972	75.495	-165.247	-165.424	-0.087730	1.060674	-0.059392	-0.060694	-0.108596	75.495	-0.058313	-0.161012	0.674458	NaN
50	1.000000	1.071972	7.36554e+06	-41139.1	955.818	-29787.9	0.000000	0.000000	7.073174	-0.114597	NaN	0.000000	0.001714	0.001731	28.0821	0.020418	0.001940	10.5242	136.588	9.805016	-0.109491	1.070672	-0.049397	-0.050696	-0.114597	10.5242	-0.041230	-0.049292	2.324869	NaN
50	1.000000	1.081948	7.36554e+06	-41139.1	955.818	-29787.9	0.000000	0.000000	7.083153	-0.037942	NaN	0.000000	0.001731	0.001724	28.1165	0.052112	0.001940	26.8641	-28.3313	-168.522	-0.084870	1.080629	-0.039421	-0.040739	-0.037942	26.8641	-0.038361	-0.040341	0.940540	NaN
50	1.000000	1.091952	7.36554e+06	-41139.1	955.818	-29787.9	0.000000	0.000000	7.093155	-0.100889	NaN	0.000000	0.001702	0.001715	28.1269	0.082711	0.001977	41.8291	-103.585	14.3726	-0.060790	1.090625	-0.029416	-0.030743	-0.100889	41.8291	-0.027607	-0.019784	5.099437	NaN
50	1.000000	1.101981	7.36554e+06	-41139.1	955.818	-29787.9	0.000000	0.000000	7.103184	-0.092704	NaN	0.000000	0.001705	0.001712	28.0874	0.049652	0.001993	24.915	-147.467	-167.727	0.000632	1.100698	-0.019387	-0.020670	-0.092704	24.915	-0.016596	-0.010255	9.040333	NaN
50	1.000000	1.111965	7.36554e+06	-41139.1	955.818	-29787.9	0.000000	0.000000	7.113171	-0.031703	NaN	0.000000	0.001717	0.001734	28.0846	0.121510	0.001951	62.292	162.583	15.6077	-0.013456	1.110626	-0.009403	-0.010742	-0.031703	62.292	-0.009021	-0.005825	5.442216	NaN
50	1.000000	1.121991	7.36554e+06	-41139.1	955.818	-29787.9	0.000000	0.000000	7.123204	0.147564	NaN	0.000000	0.001715	0.001728	28.1151	0.356065	0.002010	177.12	17.7463	-164.954	-0.039352	1.120666	0.000623	-0.000703	0.147564	177.12	-1.696701E-6	-1.267919E-6	-116382	NaN
50	2.000000	1.131657	7.36554e+06	-41139.1	955.819	-29787.9	0.000000	0.000000	7.133308	10.8024	NaN	0.000000	0.001725	0.001733	28.1262	10.0435	0.001551	6475.89	8.720350	4.860870	8.100205	1.130566	0.010289	0.009198	10.8024	6475.89	0.009038	0.008132	1328.44	65612.3
50	2.000000	1.134508	7.36554e+06	-41139.1	955.819	-29787.9	0.000000	0.000000	7.136289	13.9782	NaN	0.000000	0.001687	0.001747	28.0871	12.5655	0.001500	8375	9.215606	-176.463	15.4177	1.134200	0.013140	0.012832	13.9782	8375	0.011888	0.011356	1230.87	71802.3
50	2.000000	1.136926	7.36554e+06	-41139.1	955.819	-29787.9	0.000000	0.000000	7.138946	19.7798	NaN	0.000000	0.001721	0.001759	28.0828	16.8862	0.001740	9707.07	4.263633	7.176505	17.6539	1.136602	0.015558	0.015234	19.7798	9707.07	0.014030	0.014013	1411.5	74918.7
50	2.000000	1.139423	7.36554e+06	-41139.1	955.817	-29787.9	0.000000	0.000000	7.141522	21.6862	NaN	0.000000	0.001725	0.001710	28.1154	19.9895	0.001727	11573.1	9.583529	-179.912	21.5574	1.139175	0.018055	0.017807	21.6862	11573.1	0.016650	0.017549	1235.76	79817.6
50	2.000000	1.141935	7.36554e+06	-41139.1	955.818	-29787.9	0.000000	0.000000	7.144387	30.2767	NaN	0.000000	0.001701	0.001724	28.1265	22.5798	0.001758	12840.8	5.251365	2.015495	28.4083	1.141528	0.020567	0.020159	30.2767	12840.8	0.018799	0.020690	1463.36	81561.8
50	2.000000	1.144412	7.36554e+06	-41139.1	955.818	-29787.9	0.000000	0.000000	7.147223	39.026	NaN	0.000000	0.001676	0.001720	28.0862	25.4126	0.001678	15141.3	6.955772	179.361	37.7017	1.144078	0.023044	0.022710	39.026	15141.3	0.021111	0.024318	1604.84	88710.9
50	2.000000	1.146932	7.36554e+06	-41139.1	955.818	-29787.9	0.000000	0.000000	7.149823	40.9855	NaN	0.000000	0.001698	0.001788	28.0823	27.9626	0.001831	15273.7	5.028381	1.261945	40.5334	1.146691	0.025563	0.025323	40.9855	15273.7	0.023551	0.028432	1441.52	82758.4
50	2.000000	1.149389	7.36554e+06	-41139.1	955.818	-29787.9	0.000000	0.000000	7.152858	55.0598	NaN	0.000000	0.001696	0.001777	28.1137	30.4428	0.001714	17766.2	4.217948	-179.614	54.0112	1.149056	0.028020	0.027687	55.0598	17766.2	0.025696	0.032294	1704.94	90324.2
50	2.000000	1.151892	7.36554e+06	-41139.1	955.818	-29787.9	0.000000	0.000000	7.155734	64.1236	NaN	0.000000	0.001593	0.001754	28.1259	32.5345	0.001870	17399.2	5.715387	0.408525	62.612	1.151549	0.030524	0.030181	64.1236	17399.2	0.027760	0.036229	1769.97	83517.2
50	2.000000	1.154371	7.36554e+06	-41139.1	955.818	-29787.9	0.000000	0.000000	7.158703	76.0252	NaN	0.000000	0.001625	0.001744	28.0842	34.4631	0.001762	19553.7	1.694319	-178.563	74.0884	1.154069	0.033003	0.032701	76.0252	19553.7	0.030087	0.040925	1857.68	88309.5
50	2.000000	1.156872	7.36554e+06	-41139.1	955.818	-29787.9	0.000000	0.000000	7.161665	87.2464	NaN	0.000000	0.001645	0.001751	28.0814	38.5779	0.001795	21497.6	9.690918	-5.711698	85.4068	1.156414	0.035504	0.035046	87.2464	21497.6	0.032460	0.045997	1896.78	91579.2
50	2.000000	1.159376	7.36554e+06	-41139.1	955.819	-29787.9	0.000000	0.000000	7.164612	98.0189	NaN	0.000000	0.001650	0.001721	28.1143	41.0066	0.001743	23532.3	6.426149	175.223	97.917	1.159141	0.038008	0.037773	98.0189	23532.3	0.034884	0.051477	1904.14	94761.5
50	2.000000	1.161808	7.36554e+06	-41139.1	955.819	-29787.9	0.000000	0.000000	7.167815	116.806	NaN	0.000000	0.001634	0.001723	28.1278	42.8741	0.001676	25584.5	8.110772	-7.073592	112.215	1.161416	0.040439	0.040048	116.806	25584.5	0.037015	0.056543	2065.8	98301.8
50	2.000000	1.164281	7.36554e+06	-41139.1	955.818	-29787.9	0.000000	0.000000	7.171149	137.743	NaN	0.000000	0.001639	0.001724	28.0866	45.7242	0.001815	25192.6	5.476926	176.521	133.495	1.164022	0.042913	0.042654	137.743	25192.6	0.038812	0.060994	2258.29	93196.7
50	2.000000	1.166845	7.36554e+06	-41139.1	955.818	-29787.9	0.000000	0.000000	7.174491	156.684	NaN	0.000000	0.001642	0.001731	28.0828	48.7448	0.001810	26925.5	7.729410	-6.970097	154.386	1.166489	0.045476	0.045121	156.684	26925.5	0.041112	0.066934	2340.88	95085.4
50	2.000000	1.169278	7.36554e+06	-41139.1	955.818	-29787.9	0.000000	0.000000	7.177326	166.468	NaN	0.000000	0.001640	0.001694	28.1122	50.7022	0.001714	29585.4	3.320384	175.906	162.041	1.169093	0.047910	0.047725	166.468	29585.4	0.043690	0.073912	2252.25	99424.2
50	2.000000	1.171873	7.36554e+06	-41139.1	955.818	-29787.9	0.000000	0.000000	7.180888	189.996	NaN	0.000000	0.001662	0.001724	28.1259	53.0102	0.001751	30275.7	7.421124	-7.395107	187.834	1.171427	0.050505	0.050058	189.996	30275.7	0.045798	0.079870	2378.83	97876
50	2.000000	1.174327	7.36554e+06	-41139.1	955.819	-29787.9	0.000000	0.000000	7.184078	207.901	NaN	0.000000	0.001645	0.001738	28.087	54.7329	0.001800	30401.3	2.819549	176.65	206.18	1.174124	0.052959	0.052756	207.901	30401.3	0.047830	0.085824	2422.41	94811.5
50	2.000000	1.176885	7.36554e+06	-41139.1	955.819	-29787.9	0.000000	0.000000	7.187508	229.11	NaN	0.000000	0.001723	0.001732	28.0824	57.3677	0.001688	33983.9	7.278981	-8.475808	228.639	1.176477	0.055517	0.055109	229.11	33983.9	0.050461	0.093843	2441.42	101355
50	2.000000	1.179349	7.36554e+06	-41139.1	955.818	-29787.9	0.000000	0.000000	7.190848	250.434	NaN	0.000000	0.001710	0.001708	28.1147	60.4577	0.001776	34050.4	3.437063	175.936	249.72	1.179056	0.057981	0.057688	250.434	34050.4	0.052465	0.100183	2499.77	98287.7
50	2.000000	1.181837	7.36554e+06	-41139.1	955.819	-29787.9	0.000000	0.000000	7.194444	277.4	NaN	0.000000	0.001751	0.001716	28.1282	62.2596	0.001783	34911	1.614467	-2.435276	274.396	1.181464	0.060469	0.060096	277.4	34911	0.054509	0.106859	2595.95	97573.2
50	2.000000	1.184326	7.36554e+06	-41139.1	955.819	-29787.9	0.000000	0.000000	7.197725	296.674	NaN	0.000000	0.001707	0.001742	28.0891	64.7455	0.001636	39571.9	4.338345	172.989	295.797	1.184063	0.062957	0.062694	296.674	39571.9	0.057335	0.116424	2548.21	105959
50	2.000000	1.186767	7.36554e+06	-41139.1	955.819	-29787.9	0.000000	0.000000	7.201243	322.857	NaN	0.000000	0.001707	0.001749	28.0847	68.6545	0.001813	37872.5	5.588769	-7.234821	317.578	1.186357	0.065399	0.064988	322.857	37872.5	0.059006	0.122267	2640.6	98956.3
50	2.000000	1.189330	7.36554e+06	-41139.1	955.819	-29787.9	0.000000	0.000000	7.204839	348.005	NaN	0.000000	0.001706	0.001773	28.1139	71.1953	0.001764	40369.9	4.246804	173.89	348.174	1.188987	0.067962	0.067619	348.005	40369.9	0.061496	0.131228	2651.9	101816
50	2.000000	1.191819	7.36554e+06	-41139.1	955.819	-29787.9	0.000000	0.000000	7.208110	367.055	NaN	0.000000	0.001730	0.001761	28.1273	72.0633	0.001847	39007.1	1.831309	-3.402329	363.724	1.191517	0.070451	0.070149	367.055	39007.1	0.063393	0.138256	2654.9	95846.2
50	2.000000	1.194272	7.36554e+06	-41139.1	955.819	-29787.9	0.000000	0.000000	7.211771	396.425	NaN	0.000000	0.001737	0.001807	28.0876	73.7437	0.001796	41048.7	2.042151	175.971	393.037	1.193952	0.072904	0.072584	396.425	41048.7	0.065661	0.146886	2698.87	97855.1
50	2.000000	1.196667	7.36554e+06	-41139.1	955.818	-29787.9	0.000000	0.000000	7.215006	416.872	NaN	0.000000	0.001694	0.001771	28.0817	76.7117	0.001694	45287.8	5.050116	-8.097556	406.867	1.196277	0.075299	0.074909	416.872	45287.8	0.068395	0.157621	2644.77	104219
50	2.000000	1.199284	7.36554e+06	-41139.1	955.818	-29787.9	0.000000	0.000000	7.218573	439.976	NaN	0.000000	0.001699	0.001750	28.1144	80.3075	0.001719	46713	5.267763	171.945	437.272	1.198847	0.077916	0.077479	439.976	46713	0.070852	0.167570	2625.62	104259
50	2.000000	1.201857	7.36554e+06	-41139.1	955.818	-29787.9	0.000000	0.000000	7.221804	456.002	NaN	0.000000	0.001733	0.001760	28.128	82.1774	0.001695	48475.4	7.007301	-10.6383	454.231	1.201469	0.080489	0.080101	456.002	48475.4	0.073434	0.178336	2556.98	104876
50	2.000000	1.204280	7.36554e+06	-41139.1	955.819	-29787.9	0.000000	0.000000	7.225628	490.078	NaN	0.000000	0.001714	0.001761	28.0884	83.7462	0.001637	51170.2	6.158822	169.835	487.547	1.203897	0.082912	0.082529	490.078	51170.2	0.075729	0.188171	2604.43	107774
50	2.000000	1.206775	7.36554e+06	-41139.1	955.818	-29787.9	0.000000	0.000000	7.229046	512.531	NaN	0.000000	0.001705	0.001755	28.0835	86.8714	0.001719	50547.3	7.191298	-11.0137	509.367	1.206380	0.085407	0.085012	512.531	50547.3	0.077802	0.197268	2598.15	103978
50	2.000000	1.209369	7.36554e+06	-41139.1	955.819	-29787.9	0.000000	0.000000	7.232858	542.196	NaN	0.000000	0.001710	0.001721	28.112	90.8018	0.001818	49939.1	7.738134	169.009	544.417	1.208954	0.088000	0.087586	542.196	49939.1	0.079858	0.206483	2625.86	100409
50	2.000000	1.211767	7.36554e+06	-41139.1	955.819	-29787.9	0.000000	0.000000	7.236243	566.198	NaN	0.000000	0.001724	0.001766	28.1263	91.8491	0.001782	51545.9	3.755642	-7.793521	559.245	1.211457	0.090399	0.090089	566.198	51545.9	0.082161	0.217044	2608.68	101087
50	2.000000	1.214282	7.36554e+06	-41139.1	955.819	-29787.9	0.000000	0.000000	7.239847	592.703	NaN	0.000000	0.001682	0.001736	28.0865	93.5216	0.001828	51154.4	4.420052	171.694	589.825	1.213945	0.092914	0.092577	592.703	51154.4	0.084224	0.226714	2614.33	98156.2
50	2.000000	1.216760	7.36554e+06	-41139.1	955.819	-29787.9	0.000000	0.000000	7.243394	618.716	NaN	0.000000	0.001658	0.001769	28.0814	95.8383	0.001762	54391.3	1.537828	-5.925211	612.69	1.216405	0.095392	0.095036	618.716	54391.3	0.086860	0.239356	2584.91	101573
50	2.000000	1.219159	7.36554e+06	-41139.1	955.819	-29787.9	0.000000	0.000000	7.247017	648.487	NaN	0.000000	0.001633	0.001714	28.1131	99.1763	0.001813	54691.8	1.326754	174.352	640.518	1.218980	0.097791	0.097612	648.487	54691.8	0.088898	0.249347	2600.74	100068
50	2.000000	1.221701	7.36554e+06	-41139.1	955.818	-29787.9	0.000000	0.000000	7.251194	688.295	NaN	0.000000	0.001699	0.001680	28.1283	100.965	0.001775	56889.6	5.181723	-9.757264	679.055	1.221373	0.100332	0.100005	688.295	56889.6	0.091258	0.261158	2635.55	101708
50	2.000000	1.224136	7.36554e+06	-41139.1	955.818	-29787.9	0.000000	0.000000	7.254752	715.599	NaN	0.000000	0.001667	0.001722	28.0882	103.179	0.001736	59443.8	5.024680	170.222	707.828	1.223881	0.102768	0.102513	715.599	59443.8	0.093739	0.273846	2613.15	103783
50	2.000000	1.226691	7.36554e+06	-41139.1	955.819	-29787.9	0.000000	0.000000	7.258797	751.848	NaN	0.000000	0.001671	0.001719	28.0812	105.764	0.001811	58386.5	3.985530	-8.561703	744.166	1.226351	0.105323	0.104982	751.848	58386.5	0.095665	0.283893	2648.35	100117
50	2.000000	1.229125	7.36554e+06	-41139.1	955.819	-29787.9	0.000000	0.000000	7.262649	786.353	NaN	0.000000	0.001688	0.001726	28.1116	109.351	0.001865	58641.5	6.246754	169.061	776.767	1.228849	0.107757	0.107480	786.353	58641.5	0.097700	0.294688	2668.43	98695.5
50	2.000000	1.230740	7.36554e+06	-41139.1	955.819	-29787.9	0.000000	0.000000	7.264272	786.563	NaN	0.000000	0.001691	0.001717	28.0815	109.175	0.001764	61874.7	1.966663	-7.032797	780.683	1.230357	0.109371	0.108989	786.563	61874.7	0.099837	0.306231	2568.52	102155