File: remote_trans/data/nanoindenter/0828-1/data/Data_2025-08-06,11h17m57s/2025-07-22_16-23-58_1_1191.txt
2025-07-22, 16:23:58, 1
Index	Phase	Displacement	Time	Pos X	Pos Y	Pos Z	Rot A	Rot B	Piezo Z	Force A	Force B	Gripper	Voltage A	Voltage B	Temperature	Amplitude force	Amplitude pos	Stiffness	Phase shift	Phase excitation	Force A raw	Displacement raw	HMax	HMax raw	Real Force	Real Stiffness	Contact Depth	Area	Hardness	Reduced Mod.
[#]	[#]	[um]	[s]	[um]	[um]	[um]	[m°]	[m°]	[um]	[uN]	[uN]	[V]	[V]	[V]	[°C]	[uN]	[um]	[N/m]	[°]	[°]	[uN]	[um]	[um]	[um]	[uN]	[N/m]	[um]	[um^2]	[MPa]	[MPa]
1191	1.000000	0.002150	7.37669e+06	-56039.1	1105.82	-29739.8	0.000000	0.000000	6.002789	0.039860	NaN	0.000000	0.001532	0.001619	28.0806	0.048122	0.001051	45.8067	-3.250014	-168.609	0.011917	0.000899	-1.158417	-1.159668	0.039860	45.8067	-1.159070	-3.107429E+15	-1.282727E-17	NaN
1191	1.000000	0.012198	7.37669e+06	-56039.1	1105.82	-29739.8	0.000000	0.000000	6.012835	-0.013845	NaN	0.000000	0.001560	0.001614	28.0807	0.030276	0.001269	23.8642	-108.143	25.0571	-0.068942	0.010807	-1.148369	-1.149760	-0.013845	23.8642	-1.147934	-2.203541E+15	6.283033E-18	NaN
1191	1.000000	0.022103	7.37669e+06	-56039.1	1105.82	-29739.8	0.000000	0.000000	6.022739	-0.066047	NaN	0.000000	0.001555	0.001610	28.0809	0.045674	0.001706	26.7716	112.164	-165.101	0.015514	0.020809	-1.138463	-1.139758	-0.066047	26.7716	-1.136613	-1.553522E+15	4.251459E-17	NaN
1191	1.000000	0.032095	7.37669e+06	-56039.1	1105.82	-29739.8	0.000000	0.000000	6.032735	0.042437	NaN	0.000000	0.001543	0.001588	28.0817	0.077964	0.001893	41.1913	-40.5352	17.5482	-0.020387	0.030805	-1.128472	-1.129762	0.042437	41.1913	-1.129245	-1.237352E+15	-3.429666E-17	NaN
1191	1.000000	0.042116	7.37669e+06	-56039.1	1105.82	-29739.8	0.000000	0.000000	6.042754	0.014449	NaN	0.000000	0.001590	0.001610	28.0806	0.099066	0.001853	53.4718	-82.7624	-167.02	0.037068	0.040840	-1.118451	-1.119727	0.014449	53.4718	-1.118654	-8.920932E+14	-1.619685E-17	NaN
1191	1.000000	0.052134	7.37669e+06	-56039.1	1105.82	-29739.8	0.000000	0.000000	6.052772	-0.001017	NaN	0.000000	0.001578	0.001604	28.0806	0.070923	0.001987	35.6953	3.426945	18.7555	-0.062347	0.050782	-1.108433	-1.109785	-0.001017	35.6953	-1.108411	-6.500835E+14	1.565084E-18	NaN
1191	1.000000	0.062069	7.37669e+06	-56039.1	1105.82	-29739.8	0.000000	0.000000	6.062704	-0.068350	NaN	0.000000	0.001529	0.001677	28.081	0.084834	0.001961	43.2499	54.7449	-164.602	0.025174	0.060795	-1.098498	-1.099772	-0.068350	43.2499	-1.097313	-4.613140E+14	1.481637E-16	NaN
1191	1.000000	0.072137	7.37669e+06	-56039.1	1105.82	-29739.8	0.000000	0.000000	6.072775	0.002546	NaN	0.000000	0.001528	0.001639	28.0807	0.071950	0.002089	34.4388	50.2124	13.282	-0.029786	0.070752	-1.088430	-1.089815	0.002546	34.4388	-1.088485	-3.511348E+14	-7.250481E-18	NaN
1191	1.000000	0.082113	7.37669e+06	-56039.1	1105.82	-29739.8	0.000000	0.000000	6.082752	0.022185	NaN	0.000000	0.001541	0.001660	28.0821	0.061717	0.001906	32.3819	156.508	-162.903	0.058591	0.080792	-1.078454	-1.079775	0.022185	32.3819	-1.078967	-2.616075E+14	-8.480163E-17	NaN
1191	1.000000	0.092147	7.37669e+06	-56039.1	1105.82	-29739.8	0.000000	0.000000	6.092782	-0.072265	NaN	0.000000	0.001547	0.001675	28.082	0.081733	0.002102	38.8749	-92.9979	14.1264	-0.008193	0.090784	-1.068420	-1.069783	-0.072265	38.8749	-1.067026	-1.808117E+14	3.996699E-16	NaN
1191	1.000000	0.102113	7.37669e+06	-56039.1	1105.82	-29739.8	0.000000	0.000000	6.102751	-0.019343	NaN	0.000000	0.001573	0.001682	28.0821	0.012048	0.002075	5.805298	109.726	-164.973	0.025299	0.100794	-1.058454	-1.059773	-0.019343	5.805298	-1.055955	-1.283672E+14	1.506853E-16	NaN
1191	1.000000	0.112141	7.37669e+06	-56039.1	1105.82	-29739.8	0.000000	0.000000	6.112780	0.016832	NaN	0.000000	0.001595	0.001658	28.082	0.082383	0.002101	39.2022	-113.948	13.9888	-0.031590	0.110762	-1.048425	-1.049804	0.016832	39.2022	-1.048747	-1.027015E+14	-1.638970E-16	NaN
1191	1.000000	0.122138	7.37669e+06	-56039.1	1105.82	-29739.8	0.000000	0.000000	6.122774	-0.059461	NaN	0.000000	0.001567	0.001658	28.082	0.060168	0.002042	29.4624	-15.9797	-162.078	-0.065797	0.120836	-1.038429	-1.039731	-0.059461	29.4624	-1.036915	-7.120045E+13	8.351173E-16	NaN
1191	1.000000	0.132136	7.37669e+06	-56039.1	1105.82	-29739.8	0.000000	0.000000	6.132774	-0.009107	NaN	0.000000	0.001552	0.001650	28.082	0.059737	0.002016	29.6386	89.4097	17.2874	-0.071637	0.130808	-1.028431	-1.029759	-0.009107	29.6386	-1.028201	-5.435950E+13	1.675387E-16	NaN
1191	1.000000	0.142111	7.37669e+06	-56039.1	1105.82	-29739.8	0.000000	0.000000	6.142750	0.022278	NaN	0.000000	0.001557	0.001668	28.082	0.040947	0.001997	20.5056	-171.933	-164.859	-0.042249	0.140839	-1.018455	-1.019728	0.022278	20.5056	-1.019270	-4.122241E+13	-5.404330E-16	NaN
1191	1.000000	0.152138	7.37669e+06	-56039.1	1105.82	-29739.8	0.000000	0.000000	6.152778	0.036072	NaN	0.000000	0.001531	0.001680	28.082	0.075209	0.002122	35.44	146.301	16.8942	0.105549	0.150828	-1.008429	-1.009739	0.036072	35.44	-1.009192	-3.016530E+13	-1.195808E-15	NaN
1191	1.000000	0.162168	7.37669e+06	-56039.1	1105.82	-29739.8	0.000000	0.000000	6.162805	-0.038089	NaN	0.000000	0.001578	0.001665	28.082	0.077317	0.001849	41.8103	-1.158928	-167.727	0.023956	0.160877	-0.998399	-0.999690	-0.038089	41.8103	-0.997715	-2.113529E+13	1.802134E-15	NaN
1191	1.000000	0.172157	7.37669e+06	-56039.1	1105.82	-29739.8	0.000000	0.000000	6.172795	0.008328	NaN	0.000000	0.001526	0.001680	28.0819	0.075896	0.001911	39.7094	78.2359	11.7559	0.021365	0.170737	-0.988410	-0.989830	0.008328	39.7094	-0.988567	-1.591532E+13	-5.232471E-16	NaN
1191	1.000000	0.182177	7.37669e+06	-56039.1	1105.82	-29739.8	0.000000	0.000000	6.182816	0.011311	NaN	0.000000	0.001533	0.001668	28.0818	0.052804	0.001922	27.472	146.339	-167.081	-0.002633	0.180879	-0.978389	-0.979688	0.011311	27.472	-0.978698	-1.171849E+13	-9.652090E-16	NaN
1191	1.000000	0.192150	7.37669e+06	-56039.1	1105.82	-29739.8	0.000000	0.000000	6.192788	-0.017050	NaN	0.000000	0.001512	0.001667	28.0817	0.049756	0.001811	27.4711	125.809	16.9623	0.011822	0.190802	-0.968416	-0.969765	-0.017050	27.4711	-0.967951	-8.395509E+12	2.030845E-15	NaN
1191	1.000000	0.202166	7.37669e+06	-56039.1	1105.82	-29739.8	0.000000	0.000000	6.202804	-0.000519	NaN	0.000000	0.001549	0.001675	28.0817	0.098273	0.002058	47.7445	28.3489	-166.969	0.065829	0.200871	-0.958401	-0.959696	-0.000519	47.7445	-0.958393	-6.240216E+12	8.310069E-17	NaN
1191	1.000000	0.212147	7.37669e+06	-56039.1	1105.82	-29739.8	0.000000	0.000000	6.212786	0.018583	NaN	0.000000	0.001546	0.001671	28.0814	0.119334	0.002166	55.0927	-42.0451	15.676	-0.032903	0.210797	-0.948420	-0.949769	0.018583	55.0927	-0.948673	-4.614509E+12	-4.027003E-15	NaN
1191	1.000000	0.222169	7.37669e+06	-56039.1	1105.82	-29739.8	0.000000	0.000000	6.222807	-0.004423	NaN	0.000000	0.001507	0.001685	28.0809	0.046211	0.002049	22.5501	-46.424	-165.5	-0.031145	0.220870	-0.938397	-0.939697	-0.004423	22.5501	-0.938250	-3.338338E+12	1.324963E-15	NaN
1191	1.000000	0.232176	7.37669e+06	-56039.1	1105.82	-29739.8	0.000000	0.000000	6.232813	-0.043872	NaN	0.000000	0.001535	0.001696	28.0804	0.050173	0.002016	24.8909	107.339	16.0638	-0.068294	0.230833	-0.928391	-0.929734	-0.043872	24.8909	-0.927069	-2.358484E+12	1.860179E-14	NaN
1191	1.000000	0.242169	7.37669e+06	-56039.1	1105.82	-29739.8	0.000000	0.000000	6.242809	0.048356	NaN	0.000000	0.001542	0.001702	28.0809	0.047081	0.001976	23.8206	-96.0716	-166.334	0.045020	0.240874	-0.918398	-0.919693	0.048356	23.8206	-0.919920	-1.888553E+12	-2.560478E-14	NaN
1191	1.000000	0.252172	7.37669e+06	-56039.1	1105.82	-29739.8	0.000000	0.000000	6.252808	-0.030951	NaN	0.000000	0.001538	0.001708	28.0804	0.093088	0.001914	48.6408	-161.625	15.3752	-0.064169	0.250799	-0.908395	-0.909767	-0.030951	48.6408	-0.907918	-1.300290E+12	2.380315E-14	NaN
1191	1.000000	0.262183	7.37669e+06	-56039.1	1105.82	-29739.8	0.000000	0.000000	6.262822	0.023388	NaN	0.000000	0.001583	0.001719	28.0806	0.188588	0.002081	90.6346	51.4617	-166.607	0.070095	0.260909	-0.898384	-0.899658	0.023388	90.6346	-0.898577	-9.723864E+11	-2.405183E-14	NaN
1191	1.000000	0.272209	7.37669e+06	-56039.1	1105.82	-29739.8	0.000000	0.000000	6.272848	0.013905	NaN	0.000000	0.001602	0.001685	28.0805	0.061867	0.001959	31.5863	-43.1247	14.651	-0.005581	0.270842	-0.888358	-0.889725	0.013905	31.5863	-0.888688	-7.147937E+11	-1.945344E-14	NaN
1191	1.000000	0.282193	7.37669e+06	-56039.1	1105.82	-29739.8	0.000000	0.000000	6.282831	-0.009710	NaN	0.000000	0.001644	0.001667	28.0807	0.042124	0.002083	20.227	-101.295	-165.82	0.061910	0.280879	-0.878374	-0.879688	-0.009710	20.227	-0.878014	-5.126767E+11	1.894030E-14	NaN
1191	1.000000	0.292216	7.37669e+06	-56039.1	1105.82	-29739.8	0.000000	0.000000	6.292854	-0.002753	NaN	0.000000	0.001628	0.001672	28.0803	0.080403	0.002049	39.2429	179.415	16.2408	-0.043940	0.290840	-0.868351	-0.869727	-0.002753	39.2429	-0.868298	-3.788080E+11	7.266895E-15	NaN
1191	1.000000	0.302171	7.37669e+06	-56039.1	1105.82	-29739.8	0.000000	0.000000	6.302808	-0.040234	NaN	0.000000	0.001554	0.001669	28.0805	0.016048	0.002041	7.862842	-46.5285	-165.852	-0.066543	0.300954	-0.858396	-0.859613	-0.040234	7.862842	-0.854558	-2.468596E+11	1.629837E-13	NaN
1191	1.000000	0.312213	7.37669e+06	-56039.1	1105.82	-29739.8	0.000000	0.000000	6.312847	-0.113364	NaN	0.000000	0.001521	0.001663	28.0804	0.054037	0.001968	27.4537	-56.8076	17.3805	-0.028291	0.310862	-0.848354	-0.849705	-0.113364	27.4537	-0.845257	-1.847148E+11	6.137266E-13	NaN
1191	1.000000	0.322226	7.37669e+06	-56039.1	1105.82	-29739.8	0.000000	0.000000	6.322864	0.003189	NaN	0.000000	0.001567	0.001644	28.0811	0.042619	0.002137	19.9435	-30.3905	-167.446	0.006266	0.320922	-0.838341	-0.839645	0.003189	19.9435	-0.838461	-1.494312E+11	-2.133856E-14	NaN
1191	1.000000	0.332239	7.37669e+06	-56039.1	1105.82	-29739.8	0.000000	0.000000	6.332877	-0.006072	NaN	0.000000	0.001610	0.001678	28.0804	0.053912	0.001983	27.1936	131.173	16.4766	0.016427	0.330845	-0.828328	-0.829722	-0.006072	27.1936	-0.828161	-1.083558E+11	5.603666E-14	NaN
1191	1.000000	0.342216	7.37669e+06	-56039.1	1105.82	-29739.8	0.000000	0.000000	6.342855	0.019931	NaN	0.000000	0.001638	0.001628	28.0803	0.037883	0.001901	19.9235	-92.8287	-166.575	-0.012528	0.340966	-0.818350	-0.819600	0.019931	19.9235	-0.819101	-8.166122E+10	-2.440695E-13	NaN
1191	1.000000	0.352263	7.37669e+06	-56039.1	1105.82	-29739.8	0.000000	0.000000	6.352899	-0.042087	NaN	0.000000	0.001638	0.001645	28.0815	0.113187	0.002030	55.7601	129.136	14.4259	0.076592	0.350970	-0.808304	-0.809597	-0.042087	55.7601	-0.807738	-5.726345E+10	7.349703E-13	NaN
1191	1.000000	0.362245	7.37669e+06	-56039.1	1105.82	-29739.8	0.000000	0.000000	6.362884	0.013585	NaN	0.000000	0.001634	0.001659	28.0816	0.077804	0.001928	40.3479	47.1206	-165.738	0.018172	0.360943	-0.798322	-0.799624	0.013585	40.3479	-0.798574	-4.300414E+10	-3.158958E-13	NaN
1191	1.000000	0.372247	7.37669e+06	-56039.1	1105.82	-29739.8	0.000000	0.000000	6.372884	-0.024985	NaN	0.000000	0.001641	0.001653	28.0816	0.048879	0.001981	24.6733	-143.205	13.7642	-0.064698	0.370896	-0.788320	-0.789671	-0.024985	24.6733	-0.787560	-3.047496E+10	8.198631E-13	NaN
1191	1.000000	0.382247	7.37669e+06	-56039.1	1105.82	-29739.8	0.000000	0.000000	6.382882	-0.094695	NaN	0.000000	0.001614	0.001683	28.0816	0.064285	0.002132	30.1519	139.656	-164.748	-0.119850	0.380954	-0.778320	-0.779613	-0.094695	30.1519	-0.775964	-2.120224E+10	4.466282E-12	NaN
1191	1.000000	0.392268	7.37669e+06	-56039.1	1105.82	-29739.8	0.000000	0.000000	6.392908	0.042796	NaN	0.000000	0.001658	0.001667	28.0818	0.021682	0.001990	10.8967	164.543	14.9486	0.096768	0.390893	-0.768299	-0.769674	0.042796	10.8967	-0.771244	-1.829042E+10	-2.339796E-12	NaN
1191	1.000000	0.402273	7.37669e+06	-56039.1	1105.82	-29739.8	0.000000	0.000000	6.402911	-0.020497	NaN	0.000000	0.001654	0.001665	28.0817	0.120803	0.002008	60.1682	148.4	-164.472	-0.044719	0.400936	-0.758294	-0.759631	-0.020497	60.1682	-0.758038	-1.209510E+10	1.694631E-12	NaN
1191	1.000000	0.412273	7.37669e+06	-56039.1	1105.82	-29739.8	0.000000	0.000000	6.412910	-0.028847	NaN	0.000000	0.001655	0.001652	28.0817	0.039807	0.001984	20.0656	-121.466	18.6702	-0.044853	0.410934	-0.748294	-0.749633	-0.028847	20.0656	-0.747215	-8.616104E+9	3.347982E-12	NaN
1191	1.000000	0.422260	7.37669e+06	-56039.1	1105.82	-29739.8	0.000000	0.000000	6.422894	-0.101500	NaN	0.000000	0.001616	0.001660	28.0818	0.109718	0.002038	53.8363	77.4444	-165.379	-0.105522	0.420953	-0.738306	-0.739614	-0.101500	53.8363	-0.736892	-6.233405E+9	1.628324E-11	NaN
1191	1.000000	0.432301	7.3767e+06	-56039.1	1105.82	-29739.8	0.000000	0.000000	6.432937	-0.036780	NaN	0.000000	0.001587	0.001626	28.082	0.039118	0.002044	19.138	18.0504	17.258	-0.028767	0.430879	-0.728266	-0.729688	-0.036780	19.138	-0.726825	-4.544949E+9	8.092500E-12	NaN
1191	1.000000	0.442292	7.3767e+06	-56039.1	1105.82	-29739.8	0.000000	0.000000	6.442931	0.027204	NaN	0.000000	0.001507	0.001654	28.0814	0.081629	0.002035	40.1056	88.1335	-163.081	0.038017	0.440986	-0.718275	-0.719581	0.027204	40.1056	-0.718783	-3.530860E+9	-7.704677E-12	NaN
1191	1.000000	0.452265	7.3767e+06	-56039.1	1105.82	-29739.8	0.000000	0.000000	6.452901	-0.048691	NaN	0.000000	0.001587	0.001673	28.0815	0.055882	0.001920	29.1062	12.0039	16.5392	-0.038481	0.450940	-0.708302	-0.709627	-0.048691	29.1062	-0.707047	-2.441995E+9	1.993907E-11	NaN
1191	1.000000	0.462271	7.3767e+06	-56039.1	1105.82	-29739.8	0.000000	0.000000	6.462910	0.040133	NaN	0.000000	0.001608	0.001674	28.0816	0.103003	0.002079	49.5409	-17.4634	-163.97	0.061724	0.460977	-0.698296	-0.699590	0.040133	49.5409	-0.698904	-1.890437E+9	-2.122949E-11	NaN
1191	1.000000	0.472267	7.3767e+06	-56039.1	1105.82	-29739.8	0.000000	0.000000	6.472905	-0.014727	NaN	0.000000	0.001560	0.001636	28.0819	0.177379	0.001997	88.8054	-176.225	13.4443	-0.032036	0.470977	-0.688300	-0.689590	-0.014727	88.8054	-0.688175	-1.348902E+9	1.091782E-11	NaN
1191	1.000000	0.482295	7.3767e+06	-56039.1	1105.82	-29739.8	0.000000	0.000000	6.482932	-0.026142	NaN	0.000000	0.001553	0.001648	28.0817	0.040064	0.001990	20.131	25.2321	-165.2	0.019426	0.480973	-0.678272	-0.679594	-0.026142	20.131	-0.677298	-9.577444E+8	2.729578E-11	NaN
1191	1.000000	0.492299	7.3767e+06	-56039.1	1105.82	-29739.8	0.000000	0.000000	6.492936	-0.033298	NaN	0.000000	0.001505	0.001656	28.0806	0.046485	0.002004	23.1923	74.8557	17.2424	0.040841	0.490912	-0.668268	-0.669655	-0.033298	23.1923	-0.667191	-6.965285E+8	4.780496E-11	NaN
1191	1.000000	0.502306	7.3767e+06	-56039.1	1105.82	-29739.8	0.000000	0.000000	6.502944	-0.001693	NaN	0.000000	0.001541	0.001661	28.0807	0.098953	0.001933	51.186	-24.6266	-167.698	0.051339	0.500975	-0.658261	-0.659592	-0.001693	51.186	-0.658236	-5.251815E+8	3.224486E-12	NaN
1191	1.000000	0.512292	7.3767e+06	-56039.1	1105.82	-29739.8	0.000000	0.000000	6.512932	0.037847	NaN	0.000000	0.001520	0.001681	28.0825	0.086045	0.001955	44.024	0.770383	15.013	0.024131	0.510931	-0.648275	-0.649636	0.037847	44.024	-0.648919	-3.914014E+8	-9.669559E-11	NaN
1191	1.000000	0.522300	7.3767e+06	-56039.1	1105.82	-29739.8	0.000000	0.000000	6.522938	-0.008095	NaN	0.000000	0.001551	0.001706	28.081	0.057943	0.001981	29.2461	90.1936	-162.316	-0.040836	0.521000	-0.638266	-0.639567	-0.008095	29.2461	-0.638059	-2.777495E+8	2.914585E-11	NaN
1191	1.000000	0.532323	7.3767e+06	-56039.1	1105.82	-29739.8	0.000000	0.000000	6.532961	0.008427	NaN	0.000000	0.001511	0.001688	28.0807	0.059070	0.001983	29.7897	62.3484	12.9115	-0.072822	0.530964	-0.628244	-0.629603	0.008427	29.7897	-0.628456	-2.050306E+8	-4.109911E-11	NaN
1191	1.000000	0.542329	7.3767e+06	-56039.1	1105.82	-29739.8	0.000000	0.000000	6.542966	-0.040665	NaN	0.000000	0.001541	0.001680	28.0804	0.015823	0.001987	7.964777	-6.881401	-164.339	-0.025692	0.540990	-0.618238	-0.619577	-0.040665	7.964777	-0.614408	-1.314481E+8	3.093617E-10	NaN
1191	1.000000	0.552308	7.3767e+06	-56039.1	1105.82	-29739.8	0.000000	0.000000	6.552946	-0.006812	NaN	0.000000	0.001544	0.001678	28.0808	0.026082	0.001920	13.5878	54.4994	16.8033	-0.052742	0.550982	-0.608259	-0.609585	-0.006812	13.5878	-0.607883	-1.069004E+8	6.372563E-11	NaN
1191	1.000000	0.562306	7.3767e+06	-56039.1	1105.82	-29739.8	0.000000	0.000000	6.562944	-0.002188	NaN	0.000000	0.001534	0.001690	28.0804	0.017388	0.001934	8.992897	21.5687	-166.76	-0.036759	0.561006	-0.598261	-0.599561	-0.002188	8.992897	-0.598079	-7.834218E+7	2.793405E-11	NaN
1191	1.000000	0.572330	7.3767e+06	-56039.1	1105.82	-29739.8	0.000000	0.000000	6.572967	-0.030417	NaN	0.000000	0.001533	0.001681	28.0805	0.052989	0.001909	27.7507	-135.331	14.0826	-0.051715	0.570938	-0.588237	-0.589629	-0.030417	27.7507	-0.587415	-5.584910E+7	5.446241E-10	NaN
1191	1.000000	0.582319	7.3767e+06	-56039.1	1105.82	-29739.8	0.000000	0.000000	6.582957	-0.007360	NaN	0.000000	0.001565	0.001673	28.0803	0.039842	0.002117	18.8228	140.151	-162.451	-0.053057	0.581043	-0.578248	-0.579524	-0.007360	18.8228	-0.577955	-4.135183E+7	1.779966E-10	NaN
1191	1.000000	0.592329	7.3767e+06	-56039.1	1105.82	-29739.8	0.000000	0.000000	6.592967	-0.013642	NaN	0.000000	0.001516	0.001622	28.0806	0.062633	0.001978	31.6612	20.7697	15.4058	-0.005468	0.591003	-0.568237	-0.569564	-0.013642	31.6612	-0.567914	-3.004763E+7	4.540246E-10	NaN
1191	1.000000	0.602382	7.3767e+06	-56039.1	1105.82	-29739.8	0.000000	0.000000	6.603021	0.017991	NaN	0.000000	0.001570	0.001678	28.0805	0.026343	0.001971	13.3678	20.3265	-162.049	-0.005423	0.601048	-0.558184	-0.559519	0.017991	13.3678	-0.559194	-2.276276E+7	-7.903533E-10	NaN
1191	1.000000	0.612366	7.3767e+06	-56039.1	1105.82	-29739.8	0.000000	0.000000	6.613003	-0.015135	NaN	0.000000	0.001595	0.001670	28.0804	0.035645	0.001979	18.0098	13.6358	15.5283	-0.042020	0.611004	-0.548201	-0.549563	-0.015135	18.0098	-0.547571	-1.571478E+7	9.630850E-10	NaN
1191	1.000000	0.622353	7.3767e+06	-56039.1	1105.82	-29739.8	0.000000	0.000000	6.622989	-0.048798	NaN	0.000000	0.001609	0.001674	28.0812	0.123805	0.002003	61.8108	154.863	-159.6	-0.037087	0.621065	-0.538214	-0.539502	-0.048798	61.8108	-0.537622	-1.143844E+7	4.266108E-9	NaN
1191	1.000000	0.632356	7.3767e+06	-56039.1	1105.82	-29739.8	0.000000	0.000000	6.632996	0.029737	NaN	0.000000	0.001574	0.001681	28.0816	0.068283	0.001984	34.4161	161.672	14.7904	0.024459	0.630982	-0.528211	-0.529585	0.029737	34.4161	-0.528859	-8.64415e+06	-3.440131E-9	NaN
1191	1.000000	0.642371	7.3767e+06	-56039.1	1105.82	-29739.8	0.000000	0.000000	6.643009	-0.007821	NaN	0.000000	0.001587	0.001651	28.0817	0.101994	0.001925	52.987	97.868	-163.319	0.032620	0.641050	-0.518196	-0.519517	-0.007821	52.987	-0.518085	-6.123e+06	1.277364E-9	NaN
1191	1.000000	0.652377	7.3767e+06	-56039.1	1105.82	-29739.8	0.000000	0.000000	6.653013	-0.058127	NaN	0.000000	0.001596	0.001647	28.0818	0.027677	0.002027	13.6556	-122.402	14.9207	0.086714	0.650974	-0.508190	-0.509593	-0.058127	13.6556	-0.504997	-4.02445e+06	1.444346E-8	NaN
1191	1.000000	0.662351	7.3767e+06	-56039.1	1105.82	-29739.8	0.000000	0.000000	6.662989	-0.018766	NaN	0.000000	0.001596	0.001678	28.082	0.110929	0.002070	53.5862	160.936	-166.437	3.694944E-5	0.661076	-0.498215	-0.499491	-0.018766	53.5862	-0.497953	-3.20961e+06	5.846964E-9	NaN
1191	1.000000	0.672375	7.3767e+06	-56039.1	1105.82	-29739.8	0.000000	0.000000	6.673012	-0.021443	NaN	0.000000	0.001579	0.001668	28.0818	0.004923	0.001964	2.506979	-119.536	14.9576	-0.012925	0.671015	-0.488192	-0.489552	-0.021443	2.506979	-0.481777	-1.9072e+06	1.124324E-8	NaN
1191	1.000000	0.682381	7.3767e+06	-56039.1	1105.82	-29739.8	0.000000	0.000000	6.683018	-0.023095	NaN	0.000000	0.001585	0.001627	28.0819	0.102049	0.002108	48.4193	157.743	-165.136	0.013233	0.681024	-0.478186	-0.479543	-0.023095	48.4193	-0.477828	-1.67925e+06	1.375294E-8	NaN
1191	1.000000	0.692377	7.3767e+06	-56039.1	1105.82	-29739.8	0.000000	0.000000	6.693013	-0.039683	NaN	0.000000	0.001532	0.001687	28.0819	0.043054	0.002206	19.5196	145.723	16.7541	0.017606	0.691070	-0.468190	-0.469497	-0.039683	19.5196	-0.466665	-1.17118e+06	3.388283E-8	NaN
1191	1.000000	0.702376	7.3767e+06	-56039.1	1105.82	-29739.8	0.000000	0.000000	6.703015	0.035790	NaN	0.000000	0.001650	0.001671	28.0818	0.044453	0.001948	22.8187	-176.623	-167.294	0.081210	0.701116	-0.458191	-0.459451	0.035790	22.8187	-0.459367	-924967	-3.869278E-8	NaN
1191	1.000000	0.712362	7.3767e+06	-56039.1	1105.82	-29739.8	0.000000	0.000000	6.712997	-0.077401	NaN	0.000000	0.001659	0.001702	28.0818	0.044181	0.002032	21.7425	85.9976	15.3662	-0.000555	0.711004	-0.448204	-0.449563	-0.077401	21.7425	-0.445535	-590783	1.310151E-7	NaN
1191	1.000000	0.722399	7.3767e+06	-56039.1	1105.82	-29739.8	0.000000	0.000000	6.723037	0.000311	NaN	0.000000	0.001592	0.001671	28.0818	0.015282	0.002068	7.390468	64.6199	-159.939	-0.086565	0.721075	-0.438168	-0.439492	0.000311	7.390468	-0.438200	-465529	-6.677812E-10	NaN
1191	1.000000	0.732379	7.3767e+06	-56039.1	1105.82	-29739.8	0.000000	0.000000	6.733015	-0.047720	NaN	0.000000	0.001603	0.001671	28.082	0.062951	0.002059	30.5684	-80.9885	14.2636	-0.013869	0.731061	-0.428188	-0.429506	-0.047720	30.5684	-0.427017	-323476	1.475228E-7	NaN
1191	1.000000	0.742407	7.3767e+06	-56039.1	1105.82	-29739.8	0.000000	0.000000	6.743045	0.002718	NaN	0.000000	0.001609	0.001675	28.0819	0.116017	0.001993	58.2234	-47.0567	-163.445	-0.019737	0.741056	-0.418160	-0.419511	0.002718	58.2234	-0.418195	-242555	-1.120568E-8	NaN
1191	1.000000	0.752395	7.3767e+06	-56039.1	1105.82	-29739.8	0.000000	0.000000	6.753031	-0.055278	NaN	0.000000	0.001652	0.001681	28.0818	0.083187	0.002060	40.3782	-105.404	14.1233	-0.091775	0.751007	-0.408171	-0.409559	-0.055278	40.3782	-0.407145	-168959	3.271712E-7	NaN
1191	1.000000	0.762413	7.3767e+06	-56039.1	1105.82	-29739.8	0.000000	0.000000	6.763050	-0.017311	NaN	0.000000	0.001616	0.001649	28.0805	0.080971	0.002007	40.3348	56.5328	-166.145	-0.112598	0.761041	-0.398154	-0.399525	-0.017311	40.3348	-0.397832	-124470	1.390756E-7	NaN
1191	1.000000	0.772415	7.3767e+06	-56039.1	1105.82	-29739.8	0.000000	0.000000	6.773051	-0.036195	NaN	0.000000	0.001622	0.001683	28.0805	0.149366	0.001910	78.1827	-115.389	15.3341	-0.043651	0.771088	-0.388152	-0.389478	-0.036195	78.1827	-0.387805	-89486.9	4.044745E-7	NaN
1191	1.000000	0.782431	7.3767e+06	-56039.1	1105.82	-29739.8	0.000000	0.000000	6.783066	-0.063205	NaN	0.000000	0.001650	0.001625	28.0804	0.002548	0.001999	1.274754	8.465711	-164.084	-0.046697	0.781126	-0.378136	-0.379441	-0.063205	1.274754	-0.340950	-18853.7	3.352367E-6	NaN
1191	1.000000	0.792419	7.3767e+06	-56039.1	1105.82	-29739.8	0.000000	0.000000	6.793059	0.048749	NaN	0.000000	0.001544	0.001658	28.0804	0.041319	0.002035	20.3052	-167.91	16.6088	0.009404	0.791059	-0.368148	-0.369508	0.048749	20.3052	-0.369948	-49588.9	-9.830647E-7	NaN
1191	1.000000	0.802416	7.3767e+06	-56039.1	1105.82	-29739.8	0.000000	0.000000	6.803056	0.029012	NaN	0.000000	0.001653	0.001650	28.0804	0.024822	0.001893	13.1152	-161.822	-167.514	0.064808	0.801141	-0.358151	-0.359426	0.029012	13.1152	-0.359810	-35407.3	-8.193673E-7	NaN
1191	1.000000	0.812398	7.3767e+06	-56039.1	1105.82	-29739.8	0.000000	0.000000	6.813034	-0.034847	NaN	0.000000	0.001616	0.001674	28.0805	0.025712	0.001944	13.2272	107.468	15.4521	-0.033727	0.811060	-0.348169	-0.349506	-0.034847	13.2272	-0.346193	-22475.6	1.550459E-6	NaN
1191	1.000000	0.822439	7.3767e+06	-56039.1	1105.82	-29739.8	0.000000	0.000000	6.823076	-0.027216	NaN	0.000000	0.001571	0.001713	28.0806	0.023780	0.001969	12.075	164.134	-162.427	-0.068731	0.821154	-0.338128	-0.339413	-0.027216	12.075	-0.336438	-16202.7	1.679738E-6	NaN
1191	1.000000	0.832414	7.3767e+06	-56039.1	1105.82	-29739.8	0.000000	0.000000	6.833053	0.034523	NaN	0.000000	0.001557	0.001719	28.0805	0.073607	0.002031	36.2446	-163.207	16.8707	-0.012330	0.831049	-0.328153	-0.329518	0.034523	36.2446	-0.328867	-12556.2	-2.749450E-6	NaN
1191	1.000000	0.842418	7.3767e+06	-56039.1	1105.82	-29739.8	0.000000	0.000000	6.843056	0.015774	NaN	0.000000	0.001569	0.001731	28.0809	0.137353	0.002045	67.1573	93.9155	-165.881	0.045377	0.841110	-0.318149	-0.319457	0.015774	67.1573	-0.318325	-8789.8	-1.794615E-6	NaN
1191	1.000000	0.852460	7.3767e+06	-56039.1	1105.82	-29739.8	0.000000	0.000000	6.853095	-0.075059	NaN	0.000000	0.001576	0.001703	28.0804	0.024119	0.001964	12.2791	-112.641	16.3531	-0.009525	0.851106	-0.308107	-0.309461	-0.075059	12.2791	-0.303522	-5309.05	1.413797E-5	NaN
1191	1.000000	0.862459	7.3767e+06	-56039.1	1105.82	-29739.8	0.000000	0.000000	6.863097	-0.001485	NaN	0.000000	0.001588	0.001700	28.0805	0.027016	0.002017	13.3944	163.385	-159.868	-0.082197	0.861128	-0.298108	-0.299438	-0.001485	13.3944	-0.298025	-4397.64	3.377305E-7	NaN
1191	1.000000	0.872448	7.3767e+06	-56039.1	1105.82	-29739.8	0.000000	0.000000	6.873087	0.019736	NaN	0.000000	0.001589	0.001705	28.0804	0.096124	0.002041	47.1052	107.497	17.5687	0.018239	0.871111	-0.288119	-0.289455	0.019736	47.1052	-0.288433	-3160.89	-6.243946E-6	NaN
1191	1.000000	0.882472	7.3767e+06	-56039.1	1105.82	-29739.8	0.000000	0.000000	6.883108	-0.055085	NaN	0.000000	0.001587	0.001711	28.0807	0.102028	0.002004	50.9205	-168.08	-164.676	-0.117938	0.881158	-0.278095	-0.279409	-0.055085	50.9205	-0.277284	-2147.59	2.564978E-5	NaN
1191	1.000000	0.892483	7.3767e+06	-56039.1	1105.82	-29739.8	0.000000	0.000000	6.893122	0.026815	NaN	0.000000	0.001600	0.001724	28.0804	0.119731	0.002102	56.9518	-170.645	17.5632	0.048763	0.891090	-0.268084	-0.269477	0.026815	56.9518	-0.268437	-1576.78	-1.700614E-5	NaN
1191	1.000000	0.902488	7.3767e+06	-56039.1	1105.82	-29739.8	0.000000	0.000000	6.903124	-0.055541	NaN	0.000000	0.001586	0.001693	28.0817	0.095309	0.002106	45.2656	-13.9633	-166.214	-0.062995	0.901152	-0.258079	-0.259415	-0.055541	45.2656	-0.257159	-1060.03	5.239568E-5	NaN
1191	1.000000	0.912480	7.3767e+06	-56039.1	1105.82	-29739.8	0.000000	0.000000	6.913116	-0.052885	NaN	0.000000	0.001561	0.001735	28.0815	0.109999	0.002082	52.8208	54.9382	19.169	-0.005088	0.911061	-0.248086	-0.249506	-0.052885	52.8208	-0.247335	-747.663	7.073422E-5	NaN
1191	1.000000	0.922436	7.3767e+06	-56039.1	1105.82	-29739.8	0.000000	0.000000	6.923075	0.026621	NaN	0.000000	0.001532	0.001709	28.0816	0.092816	0.001937	47.9131	28.2491	-163.447	0.010696	0.921139	-0.238131	-0.239428	0.026621	47.9131	-0.238548	-545.578	-4.879420E-5	NaN
1191	1.000000	0.932491	7.3767e+06	-56039.1	1105.82	-29739.8	0.000000	0.000000	6.933130	0.011997	NaN	0.000000	0.001584	0.001698	28.0814	0.170531	0.002062	82.7157	-163.239	14.8034	0.047421	0.931105	-0.228076	-0.229462	0.011997	82.7157	-0.228185	-374.819	-3.200807E-5	NaN
1191	1.000000	0.942463	7.3767e+06	-56039.1	1105.82	-29739.8	0.000000	0.000000	6.943104	0.068574	NaN	0.000000	0.001575	0.001684	28.0816	0.066956	0.001971	33.9777	-66.2883	-164.807	-0.037931	0.941119	-0.218104	-0.219448	0.068574	33.9777	-0.219617	-273.879	-0.000250	NaN
1191	1.000000	0.952488	7.3767e+06	-56039.1	1105.82	-29739.8	0.000000	0.000000	6.953124	-0.050766	NaN	0.000000	0.001604	0.001702	28.0817	0.029082	0.001957	14.8637	-165.594	16.2072	-0.061005	0.951114	-0.208079	-0.209453	-0.050766	14.8637	-0.205517	-162.179	0.000313	NaN
1191	1.000000	0.962495	7.3767e+06	-56039.1	1105.82	-29739.8	0.000000	0.000000	6.963132	-0.032581	NaN	0.000000	0.001626	0.001653	28.0817	0.068476	0.001952	35.0844	51.8218	-166.892	-0.031380	0.961147	-0.198072	-0.199420	-0.032581	35.0844	-0.197376	-119.256	0.000273	NaN
1191	1.000000	0.972498	7.3767e+06	-56039.1	1105.82	-29739.8	0.000000	0.000000	6.973137	0.027081	NaN	0.000000	0.001600	0.001728	28.0817	0.005754	0.002070	2.779973	-3.828067	14.5709	0.026716	0.971100	-0.188069	-0.189467	0.027081	2.779973	-0.195375	-110.512	-0.000245	NaN
1191	1.000000	0.982493	7.3767e+06	-56039.1	1105.82	-29739.8	0.000000	0.000000	6.983132	-0.000405	NaN	0.000000	0.001582	0.001773	28.0815	0.057191	0.001936	29.5431	-178.186	-164.347	-0.000966	0.981207	-0.178073	-0.179359	-0.000405	29.5431	-0.178063	-56.5527	7.154049E-6	NaN
1191	1.000000	0.992522	7.3767e+06	-56039.1	1105.82	-29739.8	0.000000	0.000000	6.993160	-0.005166	NaN	0.000000	0.001583	0.001724	28.0821	0.087147	0.002093	41.6323	132.273	16.2244	-0.036531	0.991153	-0.168045	-0.169414	-0.005166	41.6323	-0.167952	-37.8411	0.000137	NaN
1191	1.000000	1.002483	7.3767e+06	-56039.1	1105.82	-29739.8	0.000000	0.000000	7.003117	-0.085012	NaN	0.000000	0.001619	0.001714	28.0816	0.099160	0.001925	51.5092	112.565	-164.204	-0.070921	1.001162	-0.158084	-0.159405	-0.085012	51.5092	-0.156846	-24.0838	0.003530	NaN
1191	1.000000	1.012514	7.3767e+06	-56039.1	1105.82	-29739.8	0.000000	0.000000	7.013152	0.007612	NaN	0.000000	0.001605	0.001723	28.0819	0.052698	0.002078	25.3631	179.459	14.5791	-0.122996	1.011110	-0.148053	-0.149457	0.007612	25.3631	-0.148278	-16.8473	-0.000452	NaN
1191	1.000000	1.022526	7.3767e+06	-56039.1	1105.82	-29739.8	0.000000	0.000000	7.023165	0.029290	NaN	0.000000	0.001572	0.001701	28.0817	0.086287	0.002071	41.6645	-43.9229	-167.884	-0.031943	1.021230	-0.138041	-0.139337	0.029290	41.6645	-0.138568	-11.1177	-0.002635	NaN
1191	1.000000	1.032503	7.3767e+06	-56039.1	1105.82	-29739.8	0.000000	0.000000	7.033140	-0.025982	NaN	0.000000	0.001589	0.001722	28.0814	0.101955	0.001964	51.9076	-147.56	11.1455	0.004812	1.031176	-0.128064	-0.129391	-0.025982	51.9076	-0.127689	-6.869470	0.003782	NaN
1191	1.000000	1.042530	7.3767e+06	-56039.1	1105.82	-29739.8	0.000000	0.000000	7.043166	-0.048311	NaN	0.000000	0.001561	0.001753	28.0802	0.154927	0.002118	73.133	151.517	-165.994	0.041123	1.041214	-0.118037	-0.119353	-0.048311	73.133	-0.117541	-4.307327	0.011216	NaN
1191	1.000000	1.052505	7.3767e+06	-56039.1	1105.82	-29739.8	0.000000	0.000000	7.053143	-0.001273	NaN	0.000000	0.001582	0.001757	28.0803	0.068373	0.002079	32.8831	156.578	16.8265	0.016682	1.051186	-0.108062	-0.109381	-0.001273	32.8831	-0.108033	-2.730285	0.000466	NaN
1191	1.000000	1.062521	7.3767e+06	-56039.1	1105.82	-29739.8	0.000000	0.000000	7.063159	-0.001798	NaN	0.000000	0.001637	0.001710	28.0801	0.124889	0.001896	65.8585	56.8086	-163.418	0.077191	1.061201	-0.098046	-0.099366	-0.001798	65.8585	-0.098025	-1.651092	0.001089	NaN
1191	1.000000	1.072559	7.3767e+06	-56039.1	1105.82	-29739.8	0.000000	0.000000	7.073197	0.014996	NaN	0.000000	0.001603	0.001715	28.0803	0.068432	0.001879	36.4152	-55.6206	16.8031	0.006597	1.071226	-0.088008	-0.089341	0.014996	36.4152	-0.088317	-0.986577	-0.015200	NaN
1191	1.000000	1.082503	7.3767e+06	-56039.1	1105.82	-29739.8	0.000000	0.000000	7.083139	-0.074107	NaN	0.000000	0.001594	0.001702	28.0803	0.098368	0.002072	47.4818	-138.108	-163.747	-0.053322	1.081227	-0.078063	-0.079339	-0.074107	47.4818	-0.076893	-0.516620	0.143447	NaN
1191	1.000000	1.092553	7.3767e+06	-56039.1	1105.82	-29739.8	0.000000	0.000000	7.093189	-0.052855	NaN	0.000000	0.001619	0.001729	28.0806	0.057533	0.002005	28.6994	-111.862	12.8597	-0.047024	1.091169	-0.068014	-0.069398	-0.052855	28.6994	-0.066633	-0.276448	0.191193	NaN
1191	1.000000	1.102543	7.3767e+06	-56039.1	1105.82	-29739.8	0.000000	0.000000	7.103180	-0.033462	NaN	0.000000	0.001598	0.001748	28.0804	0.063750	0.002033	31.3516	-146.286	-162.355	0.015189	1.101215	-0.058024	-0.059352	-0.033462	31.3516	-0.057223	-0.149675	0.223562	NaN
1191	1.000000	1.112582	7.3767e+06	-56039.1	1105.82	-29739.8	0.000000	0.000000	7.113220	0.016651	NaN	0.000000	0.001584	0.001720	28.0805	0.029883	0.001951	15.3134	49.8055	15.2126	-0.050722	1.111151	-0.047985	-0.049416	0.016651	15.3134	-0.048801	-0.083925	-0.198396	NaN
1191	1.000000	1.122531	7.3767e+06	-56039.1	1105.82	-29739.8	0.000000	0.000000	7.123169	-0.018608	NaN	0.000000	0.001568	0.001733	28.0803	0.026260	0.001998	13.1455	-73.5491	-164.317	-0.048607	1.121239	-0.038035	-0.039328	-0.018608	13.1455	-0.036974	-0.036651	0.507702	NaN
1191	1.000000	1.132548	7.3767e+06	-56039.1	1105.82	-29739.8	0.000000	0.000000	7.133184	-0.061212	NaN	0.000000	0.001581	0.001756	28.0804	0.033824	0.001931	17.5161	143.598	14.9914	-0.104492	1.131216	-0.028019	-0.029351	-0.061212	17.5161	-0.025398	-0.017280	3.542475	NaN
1191	1.000000	1.142553	7.3767e+06	-56039.1	1105.82	-29739.8	0.000000	0.000000	7.143188	-0.057487	NaN	0.000000	0.001602	0.001730	28.0805	0.049066	0.002015	24.3516	153.229	-162.759	-0.054515	1.141262	-0.018014	-0.019305	-0.057487	24.3516	-0.016244	-0.010034	5.729328	NaN
1191	1.000000	1.152555	7.3767e+06	-56039.1	1105.82	-29739.8	0.000000	0.000000	7.153192	-0.025847	NaN	0.000000	0.001563	0.001765	28.0804	0.136014	0.002088	65.1342	-148.721	13.7699	0.043943	1.151186	-0.008012	-0.009381	-0.025847	65.1342	-0.007714	-0.005064	5.104167	NaN
1191	1.000000	1.162535	7.3767e+06	-56039.1	1105.82	-29739.8	0.000000	0.000000	7.163342	4.107011	NaN	0.000000	0.001530	0.001738	28.0803	4.749184	0.001696	2800.67	9.992202	-167.337	2.585650	1.161205	0.001968	0.000638	4.107011	2800.67	0.000868	0.000660	6226.06	99627.3
1191	2.000000	1.168608	7.3767e+06	-56039.1	1105.82	-29739.8	0.000000	0.000000	7.169660	10.0525	NaN	0.000000	0.001542	0.001756	28.0817	10.3028	0.001556	6622.41	10.1151	5.574340	9.265307	1.168251	0.008041	0.007684	10.0525	6622.41	0.006903	0.005938	1692.98	78519.5
1191	2.000000	1.171016	7.3767e+06	-56039.1	1105.82	-29739.8	0.000000	0.000000	7.172234	14.1054	NaN	0.000000	0.001607	0.001714	28.0816	13.2854	0.001729	7682.03	7.789389	-174.358	14.0936	1.170736	0.010449	0.010169	14.1054	7682.03	0.009072	0.008168	1726.82	77656.9
1191	2.000000	1.173484	7.3767e+06	-56039.1	1105.82	-29739.8	0.000000	0.000000	7.174790	16.2423	NaN	0.000000	0.001613	0.001742	28.0817	16.1634	0.001865	8667.33	9.467667	4.257196	15.6202	1.173192	0.012917	0.012625	16.2423	8667.33	0.011511	0.010910	1488.78	75814.3
1191	2.000000	1.175956	7.3767e+06	-56039.1	1105.82	-29739.8	0.000000	0.000000	7.177502	22.0585	NaN	0.000000	0.001575	0.001751	28.0816	18.7122	0.001826	10249.8	5.546402	-174.187	20.8121	1.175695	0.015389	0.015128	22.0585	10249.8	0.013775	0.013687	1611.67	80046
1191	2.000000	1.178543	7.3767e+06	-56039.1	1105.82	-29739.8	0.000000	0.000000	7.180233	25.5591	NaN	0.000000	0.001633	0.001718	28.0819	20.1744	0.001814	11121.4	8.043125	4.551264	25.5125	1.178151	0.017976	0.017584	25.5591	11121.4	0.016253	0.016992	1504.18	77949.1
1191	2.000000	1.180992	7.3767e+06	-56039.1	1105.82	-29739.8	0.000000	0.000000	7.182897	30.8089	NaN	0.000000	0.001508	0.001762	28.0818	22.8046	0.001786	12766.4	7.007897	-177.135	29.6692	1.180647	0.020425	0.020080	30.8089	12766.4	0.018615	0.020413	1509.31	81638
1191	2.000000	1.183471	7.3767e+06	-56039.1	1105.82	-29739.8	0.000000	0.000000	7.185593	36.0699	NaN	0.000000	0.001499	0.001725	28.0818	25.4997	0.001876	13590.4	8.918243	1.158006	35.2499	1.183078	0.022904	0.022511	36.0699	13590.4	0.020913	0.023998	1503.06	80153
1191	2.000000	1.185959	7.3767e+06	-56039.1	1105.82	-29739.8	0.000000	0.000000	7.188349	42.5735	NaN	0.000000	0.001541	0.001740	28.0817	27.6346	0.001740	15882.3	5.530934	-178.931	41.0124	1.185699	0.025392	0.025132	42.5735	15882.3	0.023382	0.028137	1513.07	86506.2
1191	2.000000	1.188482	7.3767e+06	-56039.1	1105.82	-29739.8	0.000000	0.000000	7.191029	46.4042	NaN	0.000000	0.001526	0.001698	28.0819	29.7153	0.001674	17756.3	6.617226	-0.618570	44.9054	1.188196	0.027915	0.027629	46.4042	17756.3	0.025955	0.032776	1415.8	89608
1191	2.000000	1.190924	7.3767e+06	-56039.1	1105.82	-29739.8	0.000000	0.000000	7.193838	55.3367	NaN	0.000000	0.001514	0.001696	28.0815	31.9522	0.001746	18302	7.341430	178.689	53.8368	1.190643	0.030357	0.030076	55.3367	18302	0.028089	0.036876	1500.6	87076.1
1191	2.000000	1.193509	7.3767e+06	-56039.1	1105.82	-29739.8	0.000000	0.000000	7.196649	60.8222	NaN	0.000000	0.001520	0.001711	28.0815	34.6737	0.001710	20274.9	2.386530	2.706398	61.6362	1.193091	0.032942	0.032525	60.8222	20274.9	0.030692	0.042191	1441.59	90182.5
1191	2.000000	1.195935	7.3767e+06	-56039.1	1105.82	-29739.8	0.000000	0.000000	7.199318	66.7081	NaN	0.000000	0.001496	0.001686	28.0817	37.9985	0.001928	19704.3	5.758295	179.596	66.6967	1.195669	0.035369	0.035102	66.7081	19704.3	0.032829	0.046813	1425	83205.6
1191	2.000000	1.198526	7.3767e+06	-56039.1	1105.82	-29739.8	0.000000	0.000000	7.202369	77.8845	NaN	0.000000	0.001525	0.001697	28.0817	39.5873	0.001695	23352	6.013961	-0.970097	80.7488	1.198049	0.037959	0.037483	77.8845	23352	0.035458	0.052818	1474.59	92834
1191	2.000000	1.200879	7.3767e+06	-56039.1	1105.82	-29739.8	0.000000	0.000000	7.205120	87.5945	NaN	0.000000	0.001540	0.001720	28.0816	42.0781	0.001798	23407.4	3.782426	179.593	85.1505	1.200632	0.040312	0.040065	87.5945	23407.4	0.037505	0.057740	1517.05	88999.7
1191	2.000000	1.203422	7.3767e+06	-56039.1	1105.82	-29739.8	0.000000	0.000000	7.207908	93.5241	NaN	0.000000	0.001500	0.001690	28.0805	45.7831	0.001879	24369.6	7.211387	-4.762741	91.1999	1.202966	0.042855	0.042400	93.5241	24369.6	0.039977	0.063969	1462.02	88031.1
1191	2.000000	1.205897	7.3767e+06	-56039.1	1105.82	-29739.8	0.000000	0.000000	7.211020	109.01	NaN	0.000000	0.001509	0.001694	28.0807	47.3504	0.001862	25425.9	2.890341	179.748	106.34	1.205548	0.045330	0.044981	109.01	25425.9	0.042115	0.069608	1566.05	88047.9
1191	2.000000	1.208488	7.3767e+06	-56039.1	1105.82	-29739.8	0.000000	0.000000	7.213818	114.063	NaN	0.000000	0.001558	0.001684	28.0807	49.7513	0.001785	27869.6	8.025850	-4.789626	115.5	1.208079	0.047921	0.047512	114.063	27869.6	0.044851	0.077166	1478.16	91662.4
1191	2.000000	1.210976	7.3767e+06	-56039.1	1105.82	-29739.8	0.000000	0.000000	7.216712	123.907	NaN	0.000000	0.001533	0.001718	28.0805	52.3284	0.001816	28819.2	7.304182	174.956	124.738	1.210636	0.050410	0.050070	123.907	28819.2	0.047185	0.083911	1476.65	90896.2
1191	2.000000	1.213416	7.3767e+06	-56039.1	1105.82	-29739.8	0.000000	0.000000	7.219652	136.066	NaN	0.000000	0.001586	0.001682	28.0806	54.1214	0.001859	29114	5.120358	-2.973742	133.999	1.213091	0.052849	0.052524	136.066	29114	0.049344	0.090395	1505.23	88471.4
1191	2.000000	1.216013	7.3767e+06	-56039.1	1105.82	-29739.8	0.000000	0.000000	7.222340	138.281	NaN	0.000000	0.001569	0.001687	28.0807	57.6655	0.001737	33188.9	7.244156	173.336	144.962	1.215707	0.055446	0.055140	138.281	33188.9	0.052321	0.099723	1386.65	96021.8
1191	2.000000	1.218379	7.3767e+06	-56039.1	1105.82	-29739.8	0.000000	0.000000	7.225622	160.549	NaN	0.000000	0.001594	0.001696	28.0802	58.1477	0.001773	32804.7	5.535481	-3.963665	157.907	1.217924	0.057813	0.057358	160.549	32804.7	0.054142	0.105644	1519.71	92211.6
1191	2.000000	1.220922	7.3767e+06	-56039.1	1105.82	-29739.8	0.000000	0.000000	7.228434	167.09	NaN	0.000000	0.001534	0.001632	28.0804	59.3664	0.001666	35637.4	-0.950492	-179.076	165.472	1.220652	0.060355	0.060085	167.09	35637.4	0.056839	0.114717	1456.55	96131.5
1191	2.000000	1.223334	7.3767e+06	-56039.1	1105.82	-29739.8	0.000000	0.000000	7.231561	184.476	NaN	0.000000	0.001545	0.001681	28.0804	63.6264	0.001756	36226.2	3.163377	-2.845776	178.818	1.222975	0.062767	0.062409	184.476	36226.2	0.058948	0.122063	1511.32	94733.7
1191	2.000000	1.225824	7.3767e+06	-56039.1	1105.82	-29739.8	0.000000	0.000000	7.234540	196.345	NaN	0.000000	0.001571	0.001711	28.0805	66.7573	0.001795	37198.2	4.584640	175.298	192.214	1.225534	0.065257	0.064967	196.345	37198.2	0.061298	0.130505	1504.51	94076.6
1191	2.000000	1.228359	7.3767e+06	-56039.1	1105.82	-29739.8	0.000000	0.000000	7.237550	207.895	NaN	0.000000	0.001560	0.001680	28.0804	68.505	0.001789	38289.5	2.595049	-2.758356	203.167	1.228101	0.067792	0.067534	207.895	38289.5	0.063720	0.139485	1490.45	93667.6
1191	2.000000	1.230769	7.3767e+06	-56039.1	1105.82	-29739.8	0.000000	0.000000	7.240624	224.039	NaN	0.000000	0.001620	0.001709	28.0805	71.7495	0.001881	38149.1	6.274250	173.318	217.652	1.230567	0.070202	0.070000	224.039	38149.1	0.065797	0.147414	1519.79	90779.4
1191	2.000000	1.233385	7.3767e+06	-56039.1	1105.82	-29739.8	0.000000	0.000000	7.244064	244.083	NaN	0.000000	0.001608	0.001760	28.0805	75.8439	0.001810	41908.6	9.487560	-10.3908	241.873	1.232888	0.072818	0.072321	244.083	41908.6	0.068450	0.157839	1546.41	96376.2
1191	2.000000	1.235935	7.3767e+06	-56039.1	1105.82	-29739.8	0.000000	0.000000	7.247024	254.048	NaN	0.000000	0.001586	0.001702	28.0815	78.3486	0.001861	42091.4	6.266516	172.359	255.943	1.235601	0.075368	0.075034	254.048	42091.4	0.070841	0.167526	1516.47	93956.4
1191	2.000000	1.238456	7.3767e+06	-56039.1	1105.82	-29739.8	0.000000	0.000000	7.250643	280.72	NaN	0.000000	0.001504	0.001703	28.0816	80.1723	0.001828	43861.6	10.1006	-10.5837	281.472	1.238004	0.077889	0.077438	280.72	43861.6	0.073089	0.176881	1587.06	95283.4
1191	2.000000	1.240801	7.3767e+06	-56039.1	1105.82	-29739.8	0.000000	0.000000	7.253736	298.901	NaN	0.000000	0.001531	0.001715	28.082	81.9458	0.001794	45681.9	4.723979	173.157	294.956	1.240599	0.080234	0.080032	298.901	45681.9	0.075327	0.186428	1603.3	96663.3
1191	2.000000	1.243484	7.3767e+06	-56039.1	1105.82	-29739.8	0.000000	0.000000	7.257117	315.877	NaN	0.000000	0.001518	0.001691	28.0816	84.8617	0.001745	48632.9	5.436793	-7.730605	320.256	1.243096	0.082917	0.082529	315.877	48632.9	0.078046	0.198350	1592.53	99767.1
1191	2.000000	1.245866	7.3767e+06	-56039.1	1105.82	-29739.8	0.000000	0.000000	7.260435	338.615	NaN	0.000000	0.001555	0.001724	28.0818	87.3461	0.001759	49668.1	4.578675	172.655	336.469	1.245535	0.085299	0.084968	338.615	49668.1	0.080186	0.207974	1628.16	99505.3
1191	2.000000	1.248312	7.3767e+06	-56039.1	1105.82	-29739.8	0.000000	0.000000	7.263779	360.461	NaN	0.000000	0.001550	0.001714	28.0814	88.7553	0.001816	48877.4	0.963738	-3.261807	352.249	1.248095	0.087745	0.087528	360.461	48877.4	0.082214	0.217291	1658.89	95798.9
1191	2.000000	1.250769	7.3767e+06	-56039.1	1105.82	-29739.8	0.000000	0.000000	7.267291	386.107	NaN	0.000000	0.001552	0.001733	28.0817	91.4605	0.001745	52404.1	2.098316	174.681	379.404	1.250575	0.090202	0.090008	386.107	52404.1	0.084676	0.228859	1687.1	100082
1191	2.000000	1.253331	7.3767e+06	-56039.1	1105.82	-29739.8	0.000000	0.000000	7.271173	418.193	NaN	0.000000	0.001572	0.001699	28.0816	95.6736	0.001844	51881.8	5.877043	-8.569593	412.904	1.252958	0.092764	0.092391	418.193	51881.8	0.086718	0.238668	1752.2	97026.8
1191	2.000000	1.255760	7.3767e+06	-56039.1	1105.82	-29739.8	0.000000	0.000000	7.274861	448.781	NaN	0.000000	0.001563	0.001680	28.0817	97.0772	0.001712	56694.9	4.295607	172.546	441.493	1.255451	0.095193	0.094884	448.781	56694.9	0.089256	0.251122	1787.1	103365
1191	2.000000	1.258267	7.3767e+06	-56039.1	1105.82	-29739.8	0.000000	0.000000	7.278168	468.246	NaN	0.000000	0.001567	0.001676	28.0815	99.9384	0.001827	54692.3	5.403456	-7.887722	459.631	1.257997	0.097700	0.097430	468.246	54692.3	0.091279	0.261262	1792.25	97760
1191	2.000000	1.260818	7.3767e+06	-56039.1	1105.82	-29739.8	0.000000	0.000000	7.281996	499.274	NaN	0.000000	0.001571	0.001695	28.0816	101.603	0.001779	57105.7	1.910933	175.06	496.999	1.260429	0.100251	0.099863	499.274	57105.7	0.093694	0.273614	1824.74	99743.2
1191	2.000000	1.263407	7.3767e+06	-56039.1	1105.82	-29739.8	0.000000	0.000000	7.285842	529.844	NaN	0.000000	0.001530	0.001728	28.0819	104.434	0.001769	59028.4	0.404175	-3.356763	529.999	1.262972	0.102840	0.102405	529.844	59028.4	0.096108	0.286225	1851.15	100805
1191	2.000000	1.265882	7.3767e+06	-56039.1	1105.82	-29739.8	0.000000	0.000000	7.289366	555.329	NaN	0.000000	0.001542	0.001700	28.0818	108.816	0.001816	59907.8	3.968023	172.096	554.43	1.265714	0.105315	0.105147	555.329	59907.8	0.098363	0.298248	1861.97	100223