File: remote_trans/data/nanoindenter/0828-1/data/Data_2025-08-06,11h17m57s/2025-07-22_16-23-58_1_397.txt
2025-07-22, 16:23:58, 1
Index	Phase	Displacement	Time	Pos X	Pos Y	Pos Z	Rot A	Rot B	Piezo Z	Force A	Force B	Gripper	Voltage A	Voltage B	Temperature	Amplitude force	Amplitude pos	Stiffness	Phase shift	Phase excitation	Force A raw	Displacement raw	HMax	HMax raw	Real Force	Real Stiffness	Contact Depth	Area	Hardness	Reduced Mod.
[#]	[#]	[um]	[s]	[um]	[um]	[um]	[m°]	[m°]	[um]	[uN]	[uN]	[V]	[V]	[V]	[°C]	[uN]	[um]	[N/m]	[°]	[°]	[uN]	[um]	[um]	[um]	[uN]	[N/m]	[um]	[um^2]	[MPa]	[MPa]
397	1.000000	0.002469	7.36894e+06	-57239.1	1005.82	-29737.3	0.000000	0.000000	6.002795	0.011284	NaN	0.000000	0.001610	0.001727	28.0824	0.070052	0.001080	64.8693	-19.4714	-160.334	-0.022546	0.001188	-1.092935	-1.094216	0.011284	64.8693	-1.093066	-4.045512E+14	-2.789319E-17	NaN
397	1.000000	0.012551	7.36894e+06	-57239.1	1005.82	-29737.3	0.000000	0.000000	6.012874	-0.065754	NaN	0.000000	0.001610	0.001736	28.0822	0.025440	0.001256	20.2619	-86.2678	18.8301	0.063601	0.011053	-1.082853	-1.084351	-0.065754	20.2619	-1.080419	-2.736180E+14	2.403143E-16	NaN
397	1.000000	0.022443	7.36894e+06	-57239.1	1005.82	-29737.3	0.000000	0.000000	6.022772	0.066626	NaN	0.000000	0.001572	0.001724	28.0821	0.088257	0.001708	51.6716	-65.4776	-163.929	0.009099	0.021143	-1.072961	-1.074261	0.066626	51.6716	-1.073928	-2.238514E+14	-2.976362E-16	NaN
397	1.000000	0.032407	7.36894e+06	-57239.1	1005.82	-29737.3	0.000000	0.000000	6.032733	0.006179	NaN	0.000000	0.001596	0.001744	28.0819	0.015750	0.001914	8.229611	-12.0335	13.9401	0.059274	0.031093	-1.062997	-1.064311	0.006179	8.229611	-1.063561	-1.624306E+14	-3.804305E-17	NaN
397	1.000000	0.042418	7.36894e+06	-57239.1	1005.82	-29737.3	0.000000	0.000000	6.042743	-0.010420	NaN	0.000000	0.001592	0.001714	28.0823	0.073121	0.001891	38.6737	-7.474021	-163.166	0.031939	0.041117	-1.052986	-1.054287	-0.010420	38.6737	-1.052784	-1.163701E+14	8.954095E-17	NaN
397	1.000000	0.052424	7.36894e+06	-57239.1	1005.82	-29737.3	0.000000	0.000000	6.052750	0.008837	NaN	0.000000	0.001587	0.001700	28.0818	0.045192	0.001848	24.4597	90.4472	17.7663	0.090555	0.051067	-1.042980	-1.044337	0.008837	24.4597	-1.043251	-8.663258E+13	-1.020062E-16	NaN
397	1.000000	0.062465	7.36894e+06	-57239.1	1005.82	-29737.3	0.000000	0.000000	6.062791	-0.002289	NaN	0.000000	0.001625	0.001688	28.0819	0.068051	0.002027	33.5794	71.4857	-165.304	-0.027450	0.061118	-1.032939	-1.034286	-0.002289	33.5794	-1.032888	-6.285293E+13	3.642133E-17	NaN
397	1.000000	0.072421	7.36894e+06	-57239.1	1005.82	-29737.3	0.000000	0.000000	6.072748	0.041542	NaN	0.000000	0.001570	0.001680	28.0819	0.027867	0.002071	13.4587	-150.471	14.1968	0.041978	0.071081	-1.022983	-1.024323	0.041542	13.4587	-1.025298	-4.968571E+13	-8.361036E-16	NaN
397	1.000000	0.082429	7.36894e+06	-57239.1	1005.82	-29737.3	0.000000	0.000000	6.082758	0.079115	NaN	0.000000	0.001565	0.001662	28.0821	0.098707	0.001980	49.8421	-65.0512	-164.807	0.129280	0.081077	-1.012975	-1.014327	0.079115	49.8421	-1.014166	-3.519207E+13	-2.248091E-15	NaN
397	1.000000	0.092412	7.36894e+06	-57239.1	1005.82	-29737.3	0.000000	0.000000	6.092743	0.130077	NaN	0.000000	0.001563	0.001686	28.082	0.092345	0.001999	46.2033	-158.319	14.7001	0.045889	0.091082	-1.002992	-1.004322	0.130077	46.2033	-1.005104	-2.657528E+13	-4.894668E-15	NaN
397	1.000000	0.102434	7.36894e+06	-57239.1	1005.82	-29737.3	0.000000	0.000000	6.102759	-0.018397	NaN	0.000000	0.001596	0.001700	28.0807	0.057425	0.001856	30.9361	24.5767	-171.494	-0.033377	0.101188	-0.992970	-0.994216	-0.018397	30.9361	-0.992524	-1.799282E+13	1.022452E-15	NaN
397	1.000000	0.112443	7.36894e+06	-57239.1	1005.82	-29737.3	0.000000	0.000000	6.112773	0.096019	NaN	0.000000	0.001567	0.001729	28.0807	0.092445	0.002130	43.4044	-32.851	14.0669	0.058127	0.111088	-0.982961	-0.984316	0.096019	43.4044	-0.984620	-1.408160E+13	-6.818787E-15	NaN
397	1.000000	0.122428	7.36894e+06	-57239.1	1005.82	-29737.3	0.000000	0.000000	6.122755	0.028365	NaN	0.000000	0.001588	0.001702	28.081	0.105113	0.002047	51.353	21.9592	-161.492	0.031155	0.121096	-0.972976	-0.974308	0.028365	51.353	-0.973390	-9.939210E+12	-2.853805E-15	NaN
397	1.000000	0.132466	7.36894e+06	-57239.1	1005.82	-29737.3	0.000000	0.000000	6.132792	0.001295	NaN	0.000000	0.001551	0.001732	28.0809	0.135106	0.001980	68.2285	-2.969262	14.2272	-0.060732	0.131074	-0.962938	-0.964330	0.001295	68.2285	-0.962952	-7.188906E+12	-1.800789E-16	NaN
397	1.000000	0.142476	7.36894e+06	-57239.1	1005.82	-29737.3	0.000000	0.000000	6.142803	0.034419	NaN	0.000000	0.001558	0.001716	28.0806	0.063036	0.002066	30.5075	35.278	-162.167	0.008764	0.141128	-0.952928	-0.954276	0.034419	30.5075	-0.953774	-5.406578E+12	-6.366147E-15	NaN
397	1.000000	0.152433	7.36894e+06	-57239.1	1005.82	-29737.3	0.000000	0.000000	6.152760	0.024870	NaN	0.000000	0.001653	0.001745	28.0808	0.058390	0.001882	31.0213	121.225	14.7276	0.085146	0.151157	-0.942971	-0.944247	0.024870	31.0213	-0.943572	-3.938461E+12	-6.314596E-15	NaN
397	1.000000	0.162454	7.36894e+06	-57239.1	1005.82	-29737.3	0.000000	0.000000	6.162781	0.028946	NaN	0.000000	0.001621	0.001730	28.0809	0.004400	0.002140	2.055516	-162.56	-163.621	0.056511	0.161218	-0.932950	-0.934186	0.028946	2.055516	-0.943512	-3.931091E+12	-7.363306E-15	NaN
397	1.000000	0.172468	7.36894e+06	-57239.1	1005.82	-29737.3	0.000000	0.000000	6.172796	0.066184	NaN	0.000000	0.001652	0.001733	28.0809	0.095753	0.002089	45.8415	163.918	15.1879	0.054999	0.171107	-0.922936	-0.924297	0.066184	45.8415	-0.924019	-2.145195E+12	-3.085239E-14	NaN
397	1.000000	0.182487	7.36894e+06	-57239.1	1005.82	-29737.3	0.000000	0.000000	6.182812	-0.012785	NaN	0.000000	0.001623	0.001752	28.0808	0.005206	0.001980	2.628943	34.7462	-165.02	-0.033916	0.181159	-0.912917	-0.914245	-0.012785	2.628943	-0.909270	-1.356115E+12	9.427538E-15	NaN
397	1.000000	0.192459	7.36894e+06	-57239.1	1005.82	-29737.3	0.000000	0.000000	6.192784	-0.018072	NaN	0.000000	0.001665	0.001777	28.0812	0.034525	0.002000	17.2612	-143.987	12.7294	-0.073678	0.191090	-0.902945	-0.904314	-0.018072	17.2612	-0.902160	-1.087056E+12	1.662481E-14	NaN
397	1.000000	0.202474	7.36894e+06	-57239.1	1005.82	-29737.3	0.000000	0.000000	6.202800	0.012684	NaN	0.000000	0.001637	0.001759	28.0809	0.047106	0.001931	24.3994	73.6328	-161.127	0.018652	0.201190	-0.892930	-0.894214	0.012684	24.3994	-0.893320	-8.256447E+11	-1.536246E-14	NaN
397	1.000000	0.212481	7.36894e+06	-57239.1	1005.82	-29737.3	0.000000	0.000000	6.212807	0.005327	NaN	0.000000	0.001665	0.001715	28.0811	0.085681	0.002059	41.6219	-74.6376	17.2851	0.006596	0.211100	-0.882923	-0.884304	0.005327	41.6219	-0.883019	-5.991511E+11	-8.890084E-15	NaN
397	1.000000	0.222492	7.36894e+06	-57239.1	1005.82	-29737.3	0.000000	0.000000	6.222821	0.086572	NaN	0.000000	0.001605	0.001720	28.0807	0.061170	0.001976	30.9518	2.561722	-160.354	0.064612	0.221186	-0.872912	-0.874218	0.086572	30.9518	-0.875010	-4.668923E+11	-1.854221E-13	NaN
397	1.000000	0.232491	7.36894e+06	-57239.1	1005.82	-29737.3	0.000000	0.000000	6.232819	0.050011	NaN	0.000000	0.001623	0.001718	28.0809	0.142574	0.001998	71.3762	-106.908	16.9961	0.078690	0.231174	-0.862913	-0.864230	0.050011	71.3762	-0.863438	-3.255775E+11	-1.536072E-13	NaN
397	1.000000	0.242484	7.36895e+06	-57239.1	1005.82	-29737.3	0.000000	0.000000	6.242811	0.042218	NaN	0.000000	0.001652	0.001695	28.0819	0.047686	0.002000	23.8386	162.15	-164.138	0.060624	0.241187	-0.852920	-0.854217	0.042218	23.8386	-0.854249	-2.444913E+11	-1.726751E-13	NaN
397	1.000000	0.252516	7.36895e+06	-57239.1	1005.82	-29737.3	0.000000	0.000000	6.252845	0.068216	NaN	0.000000	0.001661	0.001697	28.0818	0.035054	0.001907	18.3848	-65.8161	16.8374	0.060047	0.251114	-0.842888	-0.844290	0.068216	18.3848	-0.845670	-1.871132E+11	-3.645693E-13	NaN
397	1.000000	0.262508	7.36895e+06	-57239.1	1005.82	-29737.3	0.000000	0.000000	6.262834	0.006518	NaN	0.000000	0.001615	0.001689	28.0817	0.053141	0.001938	27.4147	-138.088	-165.297	-0.063863	0.261220	-0.832896	-0.834184	0.006518	27.4147	-0.833074	-1.263128E+11	-5.160550E-14	NaN
397	1.000000	0.272515	7.36895e+06	-57239.1	1005.82	-29737.3	0.000000	0.000000	6.272842	0.035306	NaN	0.000000	0.001590	0.001702	28.0819	0.106788	0.001942	54.9954	-179.945	17.9238	-0.022767	0.271164	-0.822889	-0.824240	0.035306	54.9954	-0.823370	-9.330642E+10	-3.783856E-13	NaN
397	1.000000	0.282534	7.36895e+06	-57239.1	1005.82	-29737.3	0.000000	0.000000	6.282861	0.026863	NaN	0.000000	0.001567	0.001736	28.0818	0.109416	0.002113	51.7889	103.125	-165.992	0.036569	0.281232	-0.812870	-0.814172	0.026863	51.7889	-0.813260	-6.804412E+10	-3.947892E-13	NaN
397	1.000000	0.292508	7.36895e+06	-57239.1	1005.82	-29737.3	0.000000	0.000000	6.292835	0.016675	NaN	0.000000	0.001582	0.001671	28.0818	0.081468	0.002010	40.535	-91.4032	16.171	-0.046924	0.291205	-0.802896	-0.804199	0.016675	40.535	-0.803204	-4.969994E+10	-3.355087E-13	NaN
397	1.000000	0.302533	7.36895e+06	-57239.1	1005.82	-29737.3	0.000000	0.000000	6.302857	-0.061416	NaN	0.000000	0.001558	0.001615	28.0819	0.104196	0.002010	51.8286	92.1717	-164.554	0.008878	0.301189	-0.792871	-0.794215	-0.061416	51.8286	-0.791982	-3.499466E+10	1.755017E-12	NaN
397	1.000000	0.312505	7.36895e+06	-57239.1	1005.82	-29737.3	0.000000	0.000000	6.312830	-0.024555	NaN	0.000000	0.001552	0.001640	28.082	0.157312	0.002101	74.8694	11.9438	16.2635	-0.033945	0.311199	-0.782899	-0.784205	-0.024555	74.8694	-0.782653	-2.613866E+10	9.394002E-13	NaN
397	1.000000	0.322534	7.36895e+06	-57239.1	1005.82	-29737.3	0.000000	0.000000	6.322863	0.063430	NaN	0.000000	0.001584	0.001626	28.0818	0.085639	0.001941	44.1242	26.3892	-165.286	0.061941	0.321268	-0.772870	-0.774137	0.063430	44.1242	-0.773948	-1.990574E+10	-3.186495E-12	NaN
397	1.000000	0.332569	7.36895e+06	-57239.1	1005.82	-29737.3	0.000000	0.000000	6.332895	0.005996	NaN	0.000000	0.001564	0.001636	28.0819	0.058941	0.001925	30.613	120.192	16.2812	-0.041978	0.331171	-0.762835	-0.764233	0.005996	30.613	-0.762982	-1.412111E+10	-4.246126E-13	NaN
397	1.000000	0.342542	7.36895e+06	-57239.1	1005.82	-29737.3	0.000000	0.000000	6.342869	0.017175	NaN	0.000000	0.001537	0.001652	28.0819	0.053962	0.002078	25.9705	-101.304	-162.912	0.008908	0.341248	-0.752862	-0.754156	0.017175	25.9705	-0.753358	-1.044534E+10	-1.644230E-12	NaN
397	1.000000	0.352558	7.36895e+06	-57239.1	1005.82	-29737.3	0.000000	0.000000	6.352886	0.029744	NaN	0.000000	0.001552	0.001651	28.082	0.128379	0.002102	61.0807	24.1044	15.2393	-0.014876	0.351181	-0.742846	-0.744223	0.029744	61.0807	-0.743211	-7.599496E+9	-3.913976E-12	NaN
397	1.000000	0.362543	7.36895e+06	-57239.1	1005.82	-29737.3	0.000000	0.000000	6.362874	0.130284	NaN	0.000000	0.001564	0.001679	28.0819	0.069184	0.002037	33.9689	69.8737	-162.693	0.058805	0.361239	-0.732861	-0.734165	0.130284	33.9689	-0.735738	-6.011684E+9	-2.167181E-11	NaN
397	1.000000	0.372539	7.36895e+06	-57239.1	1005.82	-29737.3	0.000000	0.000000	6.372867	0.042153	NaN	0.000000	0.001539	0.001688	28.0813	0.143633	0.001949	73.6881	-171.07	16.1207	0.031368	0.371196	-0.722865	-0.724208	0.042153	73.6881	-0.723294	-4.068067E+9	-1.036188E-11	NaN
397	1.000000	0.382580	7.36895e+06	-57239.1	1005.82	-29737.3	0.000000	0.000000	6.382906	0.004530	NaN	0.000000	0.001562	0.001664	28.0809	0.022276	0.002017	11.0437	179.142	-168.029	0.084083	0.381238	-0.712824	-0.714166	0.004530	11.0437	-0.713131	-2.956502E+9	-1.532223E-12	NaN
397	1.000000	0.392558	7.36895e+06	-57239.1	1005.82	-29737.3	0.000000	0.000000	6.392885	0.015876	NaN	0.000000	0.001561	0.001668	28.0808	0.124058	0.001883	65.8725	-141.369	15.6633	0.073575	0.391231	-0.702846	-0.704173	0.015876	65.8725	-0.703027	-2.152087E+9	-7.377202E-12	NaN
397	1.000000	0.402576	7.36895e+06	-57239.1	1005.82	-29737.3	0.000000	0.000000	6.402901	0.001069	NaN	0.000000	0.001546	0.001710	28.0808	0.078471	0.002095	37.4491	16.0159	-163.447	0.050546	0.401225	-0.692828	-0.694179	0.001069	37.4491	-0.692850	-1.562646E+9	-6.841472E-13	NaN
397	1.000000	0.412574	7.36895e+06	-57239.1	1005.82	-29737.3	0.000000	0.000000	6.412903	0.070449	NaN	0.000000	0.001561	0.001649	28.081	0.036947	0.001974	18.7135	69.5006	18.7176	0.124733	0.411191	-0.682830	-0.684213	0.070449	18.7135	-0.685653	-1.245958E+9	-5.654229E-11	NaN
397	1.000000	0.422603	7.36895e+06	-57239.1	1005.82	-29737.3	0.000000	0.000000	6.422929	0.021628	NaN	0.000000	0.001589	0.001677	28.081	0.033155	0.001995	16.6194	133.447	-163.904	-0.000387	0.421255	-0.672801	-0.674149	0.021628	16.6194	-0.673777	-8.572035E+8	-2.523137E-11	NaN
397	1.000000	0.432576	7.36895e+06	-57239.1	1005.82	-29737.3	0.000000	0.000000	6.432905	0.094876	NaN	0.000000	0.001559	0.001688	28.0811	0.044082	0.001944	22.675	-156.344	12.816	0.114147	0.431178	-0.662828	-0.664226	0.094876	22.675	-0.665967	-6.701566E+8	-1.415735E-10	NaN
397	1.000000	0.442592	7.36895e+06	-57239.1	1005.82	-29737.3	0.000000	0.000000	6.442919	0.020952	NaN	0.000000	0.001581	0.001677	28.081	0.026539	0.001975	13.4346	-106.442	-166.691	0.054591	0.441311	-0.652812	-0.654093	0.020952	13.4346	-0.653981	-4.592050E+8	-4.562750E-11	NaN
397	1.000000	0.452610	7.36895e+06	-57239.1	1005.82	-29737.3	0.000000	0.000000	6.452938	0.038781	NaN	0.000000	0.001568	0.001675	28.0811	0.060457	0.001881	32.1415	56.5936	12.6137	0.055432	0.451269	-0.642794	-0.644135	0.038781	32.1415	-0.643699	-3.319166E+8	-1.168401E-10	NaN
397	1.000000	0.462586	7.36895e+06	-57239.1	1005.82	-29737.3	0.000000	0.000000	6.462912	0.000643	NaN	0.000000	0.001566	0.001634	28.0806	0.019379	0.001994	9.718537	8.871902	-166.604	0.105847	0.461261	-0.632818	-0.634143	0.000643	9.718537	-0.632867	-2.357179E+8	-2.727383E-12	NaN
397	1.000000	0.472602	7.36895e+06	-57239.1	1005.82	-29737.3	0.000000	0.000000	6.472930	0.058233	NaN	0.000000	0.001550	0.001679	28.0807	0.094164	0.001963	47.9761	-45.88	15.4806	0.055452	0.471211	-0.622802	-0.624193	0.058233	47.9761	-0.623712	-1.764619E+8	-3.300019E-10	NaN
397	1.000000	0.482594	7.36895e+06	-57239.1	1005.82	-29737.3	0.000000	0.000000	6.482922	0.047450	NaN	0.000000	0.001591	0.001704	28.0808	0.078508	0.001985	39.5587	172.438	-164.651	0.087276	0.481317	-0.612810	-0.614087	0.047450	39.5587	-0.613710	-1.285721E+8	-3.690540E-10	NaN
397	1.000000	0.492593	7.36895e+06	-57239.1	1005.82	-29737.3	0.000000	0.000000	6.492922	0.080294	NaN	0.000000	0.001537	0.001691	28.081	0.049026	0.001851	26.4922	1.717471	16.262	-0.031553	0.491258	-0.602811	-0.604146	0.080294	26.4922	-0.605084	-9.782834E+7	-8.207670E-10	NaN
397	1.000000	0.502595	7.36895e+06	-57239.1	1005.82	-29737.3	0.000000	0.000000	6.502920	-0.035990	NaN	0.000000	0.001586	0.001695	28.0808	0.050669	0.002076	24.4071	160.398	-167.485	0.025715	0.501294	-0.592809	-0.594110	-0.035990	24.4071	-0.591703	-6.399375E+7	5.624020E-10	NaN
397	1.000000	0.512610	7.36895e+06	-57239.1	1005.82	-29737.3	0.000000	0.000000	6.512937	0.029971	NaN	0.000000	0.001579	0.001660	28.0822	0.103848	0.001930	53.8005	60.3083	16.0792	0.038852	0.511278	-0.582794	-0.584126	0.029971	53.8005	-0.583212	-4.886995E+7	-6.132779E-10	NaN
397	1.000000	0.522648	7.36895e+06	-57239.1	1005.82	-29737.3	0.000000	0.000000	6.522973	-0.015408	NaN	0.000000	0.001575	0.001727	28.0824	0.025978	0.001950	13.3243	143.983	-161.838	-0.090996	0.521295	-0.572756	-0.574109	-0.015408	13.3243	-0.571889	-3.409805E+7	4.518765E-10	NaN
397	1.000000	0.532634	7.36895e+06	-57239.1	1005.82	-29737.3	0.000000	0.000000	6.532962	0.072807	NaN	0.000000	0.001568	0.001680	28.0822	0.039481	0.001835	21.5132	-29.2688	16.8361	0.051016	0.531317	-0.562770	-0.564087	0.072807	21.5132	-0.565309	-2.765620E+7	-2.632581E-9	NaN
397	1.000000	0.542632	7.36895e+06	-57239.1	1005.82	-29737.3	0.000000	0.000000	6.542959	0.023085	NaN	0.000000	0.001597	0.001702	28.0821	0.029662	0.001992	14.8897	82.8001	-166.074	0.022335	0.541318	-0.552772	-0.554086	0.023085	14.8897	-0.553935	-1.925038E+7	-1.199174E-9	NaN
397	1.000000	0.552640	7.36895e+06	-57239.1	1005.82	-29737.3	0.000000	0.000000	6.552966	0.006832	NaN	0.000000	0.001604	0.001686	28.082	0.097758	0.001939	50.4246	-130.958	10.8533	0.062894	0.551260	-0.542764	-0.544144	0.006832	50.4246	-0.542866	-1.352366E+7	-5.052197E-10	NaN
397	1.000000	0.562628	7.36895e+06	-57239.1	1005.82	-29737.3	0.000000	0.000000	6.562957	0.079191	NaN	0.000000	0.001606	0.001657	28.0822	0.071453	0.002101	34.0127	-61.0288	-166.426	0.049761	0.561330	-0.532776	-0.534074	0.079191	34.0127	-0.534522	-1.036005E+7	-7.643889E-9	NaN
397	1.000000	0.572633	7.36895e+06	-57239.1	1005.82	-29737.3	0.000000	0.000000	6.572959	0.014369	NaN	0.000000	0.001632	0.001658	28.0819	0.030983	0.002042	15.1702	56.7048	15.1953	-0.010523	0.571305	-0.522771	-0.524099	0.014369	15.1702	-0.523482	-7.27797e+06	-1.974321E-9	NaN
397	1.000000	0.582668	7.36895e+06	-57239.1	1005.82	-29737.3	0.000000	0.000000	6.582996	0.037585	NaN	0.000000	0.001596	0.001682	28.0821	0.062018	0.002062	30.0762	-8.107934	-162.856	0.000811	0.581281	-0.512736	-0.514123	0.037585	30.0762	-0.513673	-5.31571e+06	-7.070619E-9	NaN
397	1.000000	0.592668	7.36895e+06	-57239.1	1005.82	-29737.3	0.000000	0.000000	6.592994	-0.015049	NaN	0.000000	0.001599	0.001619	28.0819	0.202355	0.002154	93.9503	-76.1027	12.6028	0.039974	0.591271	-0.502736	-0.504133	-0.015049	93.9503	-0.502615	-3.72819e+06	4.036583E-9	NaN
397	1.000000	0.602652	7.36895e+06	-57239.1	1005.82	-29737.3	0.000000	0.000000	6.602980	0.035410	NaN	0.000000	0.001635	0.001674	28.0821	0.093468	0.001930	48.4375	5.508877	-162.179	0.016370	0.601329	-0.492752	-0.494075	0.035410	48.4375	-0.493300	-2.76371e+06	-1.281261E-8	NaN
397	1.000000	0.612655	7.36895e+06	-57239.1	1005.82	-29737.3	0.000000	0.000000	6.612982	0.034006	NaN	0.000000	0.001631	0.001695	28.0819	0.064852	0.001919	33.7932	148.275	14.3495	0.023062	0.611263	-0.482749	-0.484141	0.034006	33.7932	-0.483504	-2.01634e+06	-1.686528E-8	NaN
397	1.000000	0.622671	7.36895e+06	-57239.1	1005.82	-29737.3	0.000000	0.000000	6.622996	-0.038285	NaN	0.000000	0.001581	0.001660	28.0821	0.022081	0.001874	11.7854	48.5172	-165.386	0.031433	0.621340	-0.472733	-0.474064	-0.038285	11.7854	-0.470296	-1.31693e+06	2.907170E-8	NaN
397	1.000000	0.632675	7.36895e+06	-57239.1	1005.82	-29737.3	0.000000	0.000000	6.633003	0.045344	NaN	0.000000	0.001597	0.001680	28.0824	0.088188	0.002005	43.9872	-46.0459	17.9421	0.099403	0.631306	-0.462729	-0.464098	0.045344	43.9872	-0.463502	-1.05734e+06	-4.288533E-8	NaN
397	1.000000	0.642659	7.36895e+06	-57239.1	1005.82	-29737.3	0.000000	0.000000	6.642988	0.082313	NaN	0.000000	0.001598	0.001667	28.0822	0.019186	0.002026	9.471155	146.552	-162.446	0.023116	0.641366	-0.452745	-0.454038	0.082313	9.471155	-0.459264	-921869	-8.928871E-8	NaN
397	1.000000	0.652678	7.36895e+06	-57239.1	1005.82	-29737.3	0.000000	0.000000	6.653005	0.044172	NaN	0.000000	0.001608	0.001682	28.0812	0.068996	0.001960	35.2107	-158.466	17.8203	0.034662	0.651351	-0.442726	-0.444053	0.044172	35.2107	-0.443667	-556032	-7.944153E-8	NaN
397	1.000000	0.662675	7.36895e+06	-57239.1	1005.82	-29737.3	0.000000	0.000000	6.663000	-0.024761	NaN	0.000000	0.001597	0.001705	28.0808	0.056187	0.001993	28.1943	-68.8156	-165.22	-0.001639	0.661370	-0.432729	-0.434034	-0.024761	28.1943	-0.432070	-381361	6.492785E-8	NaN
397	1.000000	0.672680	7.36895e+06	-57239.1	1005.82	-29737.3	0.000000	0.000000	6.673004	-0.054646	NaN	0.000000	0.001607	0.001701	28.0811	0.087915	0.001995	44.0611	52.8868	16.2087	-0.065611	0.671347	-0.422724	-0.424057	-0.054646	44.0611	-0.421793	-272800	2.003159E-7	NaN
397	1.000000	0.682715	7.36895e+06	-57239.1	1005.82	-29737.3	0.000000	0.000000	6.683042	0.026711	NaN	0.000000	0.001622	0.001693	28.0809	0.083861	0.002056	40.7822	-114.773	-167.135	0.063362	0.681377	-0.412689	-0.414027	0.026711	40.7822	-0.413180	-205877	-1.297438E-7	NaN
397	1.000000	0.692699	7.36895e+06	-57239.1	1005.82	-29737.3	0.000000	0.000000	6.693026	0.031936	NaN	0.000000	0.001619	0.001725	28.0809	0.088909	0.002062	43.1213	-151.635	14.9702	0.078663	0.691268	-0.402705	-0.404136	0.031936	43.1213	-0.403261	-148757	-2.146885E-7	NaN
397	1.000000	0.702722	7.36895e+06	-57239.1	1005.82	-29737.3	0.000000	0.000000	6.703049	0.044096	NaN	0.000000	0.001588	0.001686	28.0811	0.035870	0.001926	18.6235	5.979491	-166.881	0.089349	0.701384	-0.392682	-0.394020	0.044096	18.6235	-0.394458	-111403	-3.958298E-7	NaN
397	1.000000	0.712721	7.36895e+06	-57239.1	1005.82	-29737.3	0.000000	0.000000	6.713046	-0.008579	NaN	0.000000	0.001617	0.001693	28.081	0.063353	0.002048	30.937	84.7511	16.2565	-0.040640	0.711306	-0.382683	-0.384098	-0.008579	30.937	-0.382475	-75057.9	1.142985E-7	NaN
397	1.000000	0.722735	7.36895e+06	-57239.1	1005.82	-29737.3	0.000000	0.000000	6.723061	0.011616	NaN	0.000000	0.001580	0.001725	28.081	0.044092	0.001975	22.3209	160.846	-162.938	-0.104157	0.721355	-0.372669	-0.374049	0.011616	22.3209	-0.373059	-54974.5	-2.113000E-7	NaN
397	1.000000	0.732696	7.36895e+06	-57239.1	1005.82	-29737.3	0.000000	0.000000	6.733022	-0.009083	NaN	0.000000	0.001615	0.001700	28.081	0.045442	0.001931	23.5361	12.919	14.1238	0.012049	0.731314	-0.362708	-0.364090	-0.009083	23.5361	-0.362418	-38617.9	2.352070E-7	NaN
397	1.000000	0.742722	7.36895e+06	-57239.1	1005.82	-29737.3	0.000000	0.000000	6.743047	-0.031123	NaN	0.000000	0.001615	0.001709	28.0811	0.101821	0.002010	50.6632	-104.063	-163.378	0.042183	0.741408	-0.352682	-0.353996	-0.031123	50.6632	-0.352221	-27493.2	1.132014E-6	NaN
397	1.000000	0.752735	7.36895e+06	-57239.1	1005.82	-29737.3	0.000000	0.000000	6.753062	0.027366	NaN	0.000000	0.001593	0.001694	28.0809	0.108662	0.001970	55.1666	-158.865	17.4951	0.049115	0.751355	-0.342669	-0.344049	0.027366	55.1666	-0.343041	-20223.3	-1.353201E-6	NaN
397	1.000000	0.762734	7.36895e+06	-57239.1	1005.82	-29737.4	0.000000	0.000000	6.763057	-0.069256	NaN	0.000000	0.001626	0.001685	28.0809	0.015112	0.001994	7.577248	-172.762	-164.047	0.022527	0.761364	-0.332670	-0.334040	-0.069256	7.577248	-0.325815	-11326.6	6.114458E-6	NaN
397	1.000000	0.772709	7.36895e+06	-57239.1	1005.82	-29737.3	0.000000	0.000000	6.773037	0.052815	NaN	0.000000	0.001592	0.001734	28.0809	0.066523	0.001977	33.6437	176.652	13.9284	0.003167	0.771378	-0.322695	-0.324026	0.052815	33.6437	-0.323873	-10606.7	-4.979427E-6	NaN
397	1.000000	0.782739	7.36895e+06	-57239.1	1005.82	-29737.4	0.000000	0.000000	6.783067	0.043771	NaN	0.000000	0.001584	0.001697	28.0821	0.094678	0.002018	46.9106	125.084	-165.093	0.030183	0.781451	-0.312665	-0.313953	0.043771	46.9106	-0.313365	-7426.83	-5.893609E-6	NaN
397	1.000000	0.792740	7.36895e+06	-57239.1	1005.82	-29737.3	0.000000	0.000000	6.793068	0.036730	NaN	0.000000	0.001610	0.001700	28.0822	0.042225	0.001942	21.7456	-38.0139	18.4596	0.103163	0.791332	-0.302664	-0.304072	0.036730	21.7456	-0.303930	-5383.64	-6.822464E-6	NaN
397	1.000000	0.802770	7.36895e+06	-57239.1	1005.82	-29737.4	0.000000	0.000000	6.803093	-0.069067	NaN	0.000000	0.001611	0.001704	28.0821	0.048267	0.002083	23.1683	149.157	-167.346	0.067966	0.801415	-0.292634	-0.293989	-0.069067	23.1683	-0.290398	-3382.74	2.041752E-5	NaN
397	1.000000	0.812728	7.36895e+06	-57239.1	1005.82	-29737.4	0.000000	0.000000	6.813054	-0.003229	NaN	0.000000	0.001576	0.001705	28.0822	0.060944	0.002022	30.1443	71.6597	15.6267	-0.015497	0.811426	-0.282676	-0.283978	-0.003229	30.1443	-0.282596	-2582.81	1.250189E-6	NaN
397	1.000000	0.822764	7.36895e+06	-57239.1	1005.82	-29737.4	0.000000	0.000000	6.823089	-0.001080	NaN	0.000000	0.001622	0.001644	28.0824	0.158926	0.001906	83.3848	-174.166	-163.479	-0.035057	0.821440	-0.272641	-0.273964	-0.001080	83.3848	-0.272631	-1825.97	5.915313E-7	NaN
397	1.000000	0.832766	7.36895e+06	-57239.1	1005.82	-29737.4	0.000000	0.000000	6.833093	0.016122	NaN	0.000000	0.001634	0.001682	28.0821	0.047145	0.001870	25.2143	-105.052	16.2996	0.064151	0.831401	-0.262638	-0.264003	0.016122	25.2143	-0.263117	-1308.08	-1.232528E-5	NaN
397	1.000000	0.842736	7.36895e+06	-57239.1	1005.82	-29737.4	0.000000	0.000000	6.843063	0.010861	NaN	0.000000	0.001598	0.001758	28.0826	0.098766	0.002063	47.8799	-67.6436	-166.282	-0.007197	0.841416	-0.252668	-0.253988	0.010861	47.8799	-0.252838	-909.487	-1.194211E-5	NaN
397	1.000000	0.852766	7.36895e+06	-57239.1	1005.82	-29737.4	0.000000	0.000000	6.853092	-0.009002	NaN	0.000000	0.001612	0.001743	28.0822	0.078745	0.002042	38.5696	-67.4154	15.1532	-0.051071	0.851429	-0.242638	-0.243975	-0.009002	38.5696	-0.242463	-628.012	1.433418E-5	NaN
397	1.000000	0.862740	7.36895e+06	-57239.1	1005.82	-29737.4	0.000000	0.000000	6.863068	0.052773	NaN	0.000000	0.001621	0.001731	28.0825	0.102471	0.001890	54.2221	-15.9736	-163.874	-0.023656	0.861488	-0.232664	-0.233916	0.052773	54.2221	-0.233394	-452.905	-0.000117	NaN
397	1.000000	0.872770	7.36895e+06	-57239.1	1005.82	-29737.4	0.000000	0.000000	6.873096	0.001252	NaN	0.000000	0.001605	0.001735	28.082	0.112872	0.001978	57.0524	-12.0202	17.6176	-0.049443	0.871468	-0.222634	-0.223936	0.001252	57.0524	-0.222651	-306.172	-4.090001E-6	NaN
397	1.000000	0.882773	7.36895e+06	-57239.1	1005.82	-29737.4	0.000000	0.000000	6.883100	0.034092	NaN	0.000000	0.001621	0.001736	28.0823	0.082352	0.002090	39.4118	19.487	-165.455	0.033140	0.881457	-0.212631	-0.213947	0.034092	39.4118	-0.213280	-216.676	-0.000157	NaN
397	1.000000	0.892776	7.36895e+06	-57239.1	1005.82	-29737.4	0.000000	0.000000	6.893101	-0.016108	NaN	0.000000	0.001629	0.001749	28.082	0.091190	0.001911	47.7174	157.674	13.4615	-0.013771	0.891386	-0.202628	-0.204018	-0.016108	47.7174	-0.202375	-144.097	0.000112	NaN
397	1.000000	0.902788	7.36895e+06	-57239.1	1005.82	-29737.4	0.000000	0.000000	6.903113	7.695724E-5	NaN	0.000000	0.001602	0.001705	28.0822	0.086024	0.001920	44.8089	-142.982	-165.851	0.085128	0.901467	-0.192616	-0.193937	7.695724E-5	44.8089	-0.192618	-99.4629	-7.737281E-7	NaN
397	1.000000	0.912771	7.36895e+06	-57239.1	1005.82	-29737.4	0.000000	0.000000	6.913094	-0.062348	NaN	0.000000	0.001587	0.001755	28.0819	0.015827	0.001968	8.041153	142.509	14.4916	0.010152	0.911432	-0.182633	-0.183972	-0.062348	8.041153	-0.176818	-53.8474	0.001158	NaN
397	1.000000	0.922795	7.36895e+06	-57239.1	1005.82	-29737.4	0.000000	0.000000	6.923125	0.084350	NaN	0.000000	0.001563	0.001764	28.0808	0.026601	0.002079	12.7958	99.6298	-166.236	0.053802	0.921458	-0.172609	-0.173946	0.084350	12.7958	-0.177553	-55.4285	-0.001522	NaN
397	1.000000	0.932818	7.36895e+06	-57239.1	1005.82	-29737.4	0.000000	0.000000	6.933143	-0.018851	NaN	0.000000	0.001603	0.001728	28.081	0.034929	0.002095	16.6708	0.302303	13.3191	-0.000752	0.931457	-0.162586	-0.163947	-0.018851	16.6708	-0.161738	-29.4312	0.000641	NaN
397	1.000000	0.942798	7.36895e+06	-57239.1	1005.82	-29737.4	0.000000	0.000000	6.943125	0.016365	NaN	0.000000	0.001583	0.001730	28.0808	0.082872	0.002116	39.1642	93.3081	-166.239	0.012597	0.941456	-0.152606	-0.153948	0.016365	39.1642	-0.152919	-20.4659	-0.000800	NaN
397	1.000000	0.952772	7.36895e+06	-57239.1	1005.82	-29737.4	0.000000	0.000000	6.953096	-0.032934	NaN	0.000000	0.001609	0.001724	28.0805	0.074701	0.001893	39.4543	-63.0937	15.2357	0.063234	0.951436	-0.142632	-0.143968	-0.032934	39.4543	-0.142006	-12.8983	0.002553	NaN
397	1.000000	0.962817	7.36895e+06	-57239.1	1005.82	-29737.4	0.000000	0.000000	6.963142	-0.002359	NaN	0.000000	0.001609	0.001718	28.0806	0.052191	0.002111	24.718	-121.07	-163.455	-0.044327	0.961458	-0.132587	-0.133946	-0.002359	24.718	-0.132516	-8.524388	0.000277	NaN
397	1.000000	0.972841	7.36895e+06	-57239.1	1005.82	-29737.4	0.000000	0.000000	6.973171	0.087044	NaN	0.000000	0.001611	0.001728	28.0809	0.116652	0.001972	59.1416	-118.668	10.8803	-0.027955	0.971401	-0.122563	-0.124003	0.087044	59.1416	-0.123666	-5.721866	-0.015212	NaN
397	1.000000	0.982790	7.36895e+06	-57239.1	1005.82	-29737.4	0.000000	0.000000	6.983115	-0.026925	NaN	0.000000	0.001615	0.001690	28.0806	0.087670	0.002081	42.1297	81.7183	-164.134	0.007541	0.981506	-0.112614	-0.113898	-0.026925	42.1297	-0.112135	-3.331653	0.008082	NaN
397	1.000000	0.992804	7.36895e+06	-57239.1	1005.82	-29737.4	0.000000	0.000000	6.993130	0.002494	NaN	0.000000	0.001659	0.001695	28.0806	0.081070	0.001834	44.1951	92.6359	11.9534	-0.021181	0.991484	-0.102600	-0.103920	0.002494	44.1951	-0.102642	-2.089012	-0.001194	NaN
397	1.000000	1.002868	7.36895e+06	-57239.1	1005.82	-29737.4	0.000000	0.000000	7.003194	0.004724	NaN	0.000000	0.001622	0.001689	28.0806	0.049274	0.002140	23.0244	40.0083	-168.007	0.089470	1.001496	-0.092536	-0.093908	0.004724	23.0244	-0.092690	-1.248635	-0.003783	NaN
397	1.000000	1.012845	7.36895e+06	-57239.1	1005.82	-29737.4	0.000000	0.000000	7.013173	0.049026	NaN	0.000000	0.001622	0.001691	28.0808	0.080628	0.001981	40.6983	145.316	16.1683	0.048762	1.011440	-0.082559	-0.083964	0.049026	40.6983	-0.083462	-0.753833	-0.065035	NaN
397	1.000000	1.022825	7.36895e+06	-57239.1	1005.82	-29737.4	0.000000	0.000000	7.023152	0.043687	NaN	0.000000	0.001584	0.001774	28.0807	0.022138	0.001984	11.1604	-43.1468	-164.794	0.022869	1.021520	-0.072579	-0.073884	0.043687	11.1604	-0.075515	-0.476241	-0.091733	NaN
397	1.000000	1.032846	7.36895e+06	-57239.1	1005.82	-29737.4	0.000000	0.000000	7.033171	-0.025746	NaN	0.000000	0.001605	0.001732	28.0807	0.086185	0.002004	43.0075	-166.018	12.7348	0.017465	1.031447	-0.062558	-0.063957	-0.025746	43.0075	-0.062109	-0.206818	0.124486	NaN
397	1.000000	1.042811	7.36895e+06	-57239.1	1005.82	-29737.4	0.000000	0.000000	7.043138	0.022931	NaN	0.000000	0.001597	0.001763	28.0809	0.056705	0.001896	29.9069	42.5355	-163.287	-0.003034	1.041534	-0.052593	-0.053871	0.022931	29.9069	-0.053168	-0.113614	-0.201830	NaN
397	1.000000	1.052827	7.36895e+06	-57239.1	1005.82	-29737.4	0.000000	0.000000	7.053151	-0.055193	NaN	0.000000	0.001604	0.001765	28.0808	0.049027	0.001957	25.0532	-155.861	15.1081	0.002366	1.051424	-0.042577	-0.043980	-0.055193	25.0532	-0.040925	-0.048247	1.143969	NaN
397	1.000000	1.062840	7.36895e+06	-57239.1	1005.82	-29737.4	0.000000	0.000000	7.063164	-0.041585	NaN	0.000000	0.001622	0.001743	28.082	0.069593	0.001934	35.9924	-35.6695	-163.745	-0.011190	1.061527	-0.032564	-0.033877	-0.041585	35.9924	-0.031698	-0.025692	1.618609	NaN
397	1.000000	1.072841	7.36895e+06	-57239.1	1005.82	-29737.4	0.000000	0.000000	7.073168	0.032634	NaN	0.000000	0.001596	0.001743	28.0822	0.099825	0.002059	48.4875	-130.743	16.9814	-0.024706	1.071477	-0.022563	-0.023927	0.032634	48.4875	-0.023068	-0.015037	-2.170299	NaN
397	1.000000	1.082834	7.36895e+06	-57239.1	1005.82	-29737.4	0.000000	0.000000	7.083158	-0.024893	NaN	0.000000	0.001624	0.001708	28.0823	0.102898	0.001944	52.9269	-117.822	-164.767	-0.022381	1.081510	-0.012570	-0.013894	-0.024893	52.9269	-0.012218	-0.007653	3.252751	NaN
397	1.000000	1.092860	7.36895e+06	-57239.1	1005.82	-29737.4	0.000000	0.000000	7.093188	0.043492	NaN	0.000000	0.001571	0.001681	28.0822	0.011277	0.001945	5.797392	-139.795	19.9933	0.062170	1.091478	-0.002544	-0.003926	0.043492	5.797392	-0.008171	-0.005331	-8.157690	NaN
397	1.000000	1.102728	7.36895e+06	-57239.1	1005.82	-29737.4	0.000000	0.000000	7.103376	7.834390	NaN	0.000000	0.001589	0.001699	28.082	7.664852	0.001816	4221.04	10.4717	-170.246	6.139644	1.101490	0.007324	0.006086	7.834390	4221.04	0.005932	0.005000	1566.92	54539.8
397	2.000000	1.105942	7.36895e+06	-57239.1	1005.82	-29737.4	0.000000	0.000000	7.106756	11.8667	NaN	0.000000	0.001614	0.001737	28.0824	10.9849	0.001582	6942.88	9.314926	3.498559	10.7954	1.105592	0.010538	0.010188	11.8667	6942.88	0.009256	0.008366	1418.37	69349.4
397	2.000000	1.108394	7.36895e+06	-57239.1	1005.82	-29737.4	0.000000	0.000000	7.109358	15.521	NaN	0.000000	0.001575	0.001730	28.0822	14.1708	0.001663	8520.3	8.919763	-178.144	15.0237	1.108131	0.012990	0.012727	15.521	8520.3	0.011623	0.011042	1405.64	74080.7
397	2.000000	1.110910	7.36895e+06	-57239.1	1005.82	-29737.4	0.000000	0.000000	7.112103	21.0925	NaN	0.000000	0.001643	0.001718	28.0823	16.759	0.001884	8893.76	4.969616	7.841802	19.9519	1.110495	0.015506	0.015091	21.0925	8893.76	0.013727	0.013625	1548.07	69612.9
397	2.000000	1.113370	7.36895e+06	-57239.1	1005.82	-29737.4	0.000000	0.000000	7.114787	26.5289	NaN	0.000000	0.001638	0.001720	28.082	19.1078	0.001742	10967	5.538255	-175.745	25.4599	1.113052	0.017966	0.017648	26.5289	10967	0.016151	0.016852	1574.27	77186.2
397	2.000000	1.115871	7.36895e+06	-57239.1	1005.82	-29737.4	0.000000	0.000000	7.117540	32.6479	NaN	0.000000	0.001613	0.001718	28.0831	21.9249	0.001824	12023.3	8.981087	0.515760	31.8926	1.115441	0.020467	0.020037	32.6479	12023.3	0.018430	0.020135	1621.42	77413.6
397	2.000000	1.118328	7.36895e+06	-57239.1	1005.82	-29737.4	0.000000	0.000000	7.120345	41.1018	NaN	0.000000	0.001597	0.001731	28.0821	24.1571	0.001736	13916.4	4.300823	-175.615	39.6306	1.118021	0.022924	0.022617	41.1018	13916.4	0.020709	0.023668	1736.57	82644.5
397	2.000000	1.120887	7.36895e+06	-57239.1	1005.82	-29737.4	0.000000	0.000000	7.123158	47.29	NaN	0.000000	0.001638	0.001696	28.0823	26.7903	0.001673	16017.7	7.182810	-0.451361	45.7567	1.120538	0.025482	0.025134	47.29	16017.7	0.023268	0.027940	1692.54	87550.4
397	2.000000	1.123300	7.36895e+06	-57239.1	1005.82	-29737.4	0.000000	0.000000	7.125864	54.4133	NaN	0.000000	0.001646	0.001728	28.0821	29.5014	0.001723	17123.9	7.262483	178.19	51.9553	1.123058	0.027896	0.027654	54.4133	17123.9	0.025512	0.031954	1702.85	87520.9
397	2.000000	1.125835	7.36895e+06	-57239.1	1005.82	-29737.4	0.000000	0.000000	7.128653	60.5685	NaN	0.000000	0.001595	0.001716	28.0813	32.7263	0.001754	18653.2	7.861455	-3.347699	58.4451	1.125492	0.030431	0.030088	60.5685	18653.2	0.027995	0.036691	1650.76	88970.4
397	2.000000	1.128423	7.36895e+06	-57239.1	1005.82	-29737.4	0.000000	0.000000	7.131558	68.2725	NaN	0.000000	0.001567	0.001714	28.0808	35.9597	0.001811	19855	10.1284	175.122	70.9428	1.128095	0.033019	0.032691	68.2725	19855	0.030440	0.041661	1638.77	88874.7
397	2.000000	1.130842	7.36895e+06	-57239.1	1005.82	-29737.4	0.000000	0.000000	7.134345	77.2279	NaN	0.000000	0.001594	0.001720	28.0809	37.2135	0.001735	21450.7	9.384014	-5.757226	75.7843	1.130554	0.035438	0.035150	77.2279	21450.7	0.032738	0.046610	1656.9	90776.9
397	2.000000	1.133282	7.36895e+06	-57239.1	1005.82	-29737.4	0.000000	0.000000	7.137227	87.9615	NaN	0.000000	0.001586	0.001731	28.0808	37.9538	0.001530	24799	1.514144	179.995	84.8622	1.132997	0.037878	0.037593	87.9615	24799	0.035218	0.052255	1683.31	99116.1
397	2.000000	1.135785	7.36895e+06	-57239.1	1005.82	-29737.4	0.000000	0.000000	7.140196	99.271	NaN	0.000000	0.001571	0.001724	28.0819	42.5564	0.001857	22911.7	5.427211	-1.816530	96.8119	1.135404	0.040381	0.040000	99.271	22911.7	0.037132	0.056826	1746.93	87812.8
397	2.000000	1.138333	7.36895e+06	-57239.1	1005.82	-29737.4	0.000000	0.000000	7.143038	106.443	NaN	0.000000	0.001608	0.001689	28.0811	45.1495	0.001856	24321.7	5.763145	177.198	105.764	1.138055	0.042929	0.042651	106.443	24321.7	0.039646	0.063118	1686.43	88448.9
397	2.000000	1.140836	7.36895e+06	-57239.1	1005.82	-29737.4	0.000000	0.000000	7.145955	116.503	NaN	0.000000	0.001561	0.001696	28.0808	46.0284	0.001724	26703.7	1.006744	0.757286	112.648	1.140445	0.045432	0.045041	116.503	26703.7	0.042159	0.069728	1670.82	92393.3
397	2.000000	1.143278	7.36895e+06	-57239.1	1005.82	-29737.4	0.000000	0.000000	7.149062	132.648	NaN	0.000000	0.001577	0.001692	28.0808	48.609	0.001633	29771.9	6.418854	175.088	130.324	1.142898	0.047874	0.047494	132.648	29771.9	0.044533	0.076266	1739.28	98495
397	2.000000	1.145760	7.36895e+06	-57239.1	1005.82	-29737.4	0.000000	0.000000	7.152070	145.438	NaN	0.000000	0.001589	0.001666	28.081	51.7669	0.001572	32928.8	1.769986	-0.741998	141.899	1.145392	0.050356	0.049988	145.438	32928.8	0.047044	0.083495	1741.88	104116
397	2.000000	1.148258	7.36895e+06	-57239.1	1005.82	-29737.4	0.000000	0.000000	7.154944	154.568	NaN	0.000000	0.001591	0.001684	28.0807	55.7916	0.001773	31460.8	3.859293	177.171	150.688	1.147978	0.052854	0.052574	154.568	31460.8	0.049170	0.089864	1720.03	95885.1
397	2.000000	1.150710	7.36895e+06	-57239.1	1005.82	-29737.4	0.000000	0.000000	7.157909	167.034	NaN	0.000000	0.001583	0.001737	28.0807	57.1364	0.001774	32209	0.323135	0.548107	159.066	1.150410	0.055306	0.055006	167.034	32209	0.051417	0.096843	1724.8	94562.2
397	2.000000	1.153313	7.36895e+06	-57239.1	1005.82	-29737.4	0.000000	0.000000	7.160983	178.499	NaN	0.000000	0.001567	0.001712	28.0808	60.5302	0.001809	33462.9	6.738343	174.208	177.838	1.152891	0.057909	0.057487	178.499	33462.9	0.053908	0.104875	1702.01	94406.2
397	2.000000	1.155793	7.36895e+06	-57239.1	1005.82	-29737.4	0.000000	0.000000	7.164017	191.983	NaN	0.000000	0.001594	0.001685	28.0809	61.9481	0.001730	35806.6	5.915748	-5.876103	190.365	1.155377	0.060389	0.059973	191.983	35806.6	0.056367	0.113106	1697.38	97273.3
397	2.000000	1.158272	7.36895e+06	-57239.1	1005.82	-29737.4	0.000000	0.000000	7.167232	209.854	NaN	0.000000	0.001627	0.001702	28.0805	65.251	0.001841	35445.7	3.487175	176.713	206.342	1.157922	0.062868	0.062518	209.854	35445.7	0.058428	0.120232	1745.41	93395.7
397	2.000000	1.160789	7.36895e+06	-57239.1	1005.82	-29737.4	0.000000	0.000000	7.170189	220.552	NaN	0.000000	0.001632	0.001741	28.0821	66.5127	0.001797	37003.4	1.578623	-2.292156	217.815	1.160619	0.065385	0.065215	220.552	37003.4	0.060915	0.129110	1708.25	94088.3
397	2.000000	1.163305	7.36895e+06	-57239.1	1005.82	-29737.4	0.000000	0.000000	7.173639	243.249	NaN	0.000000	0.001573	0.001718	28.0822	68.5939	0.001680	40823.3	4.726877	174.581	244.18	1.162845	0.067901	0.067441	243.249	40823.3	0.063432	0.138401	1757.57	100256
397	2.000000	1.165731	7.36895e+06	-57239.1	1005.82	-29737.4	0.000000	0.000000	7.176615	256.626	NaN	0.000000	0.001605	0.001664	28.0822	71.3093	0.001735	41103.3	3.755695	-4.658524	251.035	1.165384	0.070326	0.069980	256.626	41103.3	0.065644	0.146821	1747.89	98006.8
397	2.000000	1.168279	7.36895e+06	-57239.1	1005.82	-29737.4	0.000000	0.000000	7.179712	269.969	NaN	0.000000	0.001640	0.001679	28.082	74.8644	0.001736	43117.3	6.882452	171.853	268.906	1.168019	0.072875	0.072615	269.969	43117.3	0.068179	0.156759	1722.19	99496.7
397	2.000000	1.170794	7.36895e+06	-57239.1	1005.82	-29737.4	0.000000	0.000000	7.182912	286.605	NaN	0.000000	0.001617	0.001711	28.0823	76.0485	0.001730	43957.8	6.358950	-7.599984	286.07	1.170451	0.075390	0.075047	286.605	43957.8	0.070500	0.166129	1725.19	98533.8
397	2.000000	1.173212	7.36895e+06	-57239.1	1005.82	-29737.4	0.000000	0.000000	7.185932	301.238	NaN	0.000000	0.001630	0.001682	28.0821	78.1353	0.001669	46820.1	5.782314	171.391	297.076	1.173043	0.077808	0.077639	301.238	46820.1	0.072982	0.176430	1707.41	101840
397	2.000000	1.175786	7.36895e+06	-57239.1	1005.82	-29737.4	0.000000	0.000000	7.189446	324.069	NaN	0.000000	0.001646	0.001720	28.0822	82.2065	0.001746	47088.1	7.077838	-9.087164	322.576	1.175307	0.080382	0.079903	324.069	47088.1	0.075221	0.185971	1742.58	99761.3
397	2.000000	1.178209	7.36895e+06	-57239.1	1005.82	-29737.4	0.000000	0.000000	7.192451	338.228	NaN	0.000000	0.001663	0.001679	28.0823	86.4661	0.001881	45975.5	6.263121	172.032	334.609	1.177862	0.082805	0.082458	338.228	45975.5	0.077287	0.194988	1734.61	95125.3
397	2.000000	1.180716	7.36895e+06	-57239.1	1005.82	-29737.4	0.000000	0.000000	7.195853	359.97	NaN	0.000000	0.001638	0.001689	28.0821	87.7814	0.001885	46570.7	6.341877	-8.246406	354.062	1.180390	0.085312	0.084986	359.97	46570.7	0.079515	0.204933	1756.53	93989.6
397	2.000000	1.183280	7.36895e+06	-57239.1	1005.82	-29737.4	0.000000	0.000000	7.198942	372.76	NaN	0.000000	0.001653	0.001665	28.0822	90.0947	0.001925	46794.1	5.005911	172.775	372.639	1.183046	0.087876	0.087642	372.76	46794.1	0.081901	0.215841	1727.01	92023.1
397	2.000000	1.185718	7.36895e+06	-57239.1	1005.82	-29737.4	0.000000	0.000000	7.202613	402.707	NaN	0.000000	0.001647	0.001674	28.0824	91.325	0.001663	54914.7	5.534574	-8.199092	396.592	1.185262	0.090314	0.089858	402.707	54914.7	0.084814	0.229514	1754.61	104727
397	2.000000	1.188201	7.36895e+06	-57239.1	1005.82	-29737.4	0.000000	0.000000	7.205510	412.776	NaN	0.000000	0.001600	0.001718	28.0828	95.1828	0.001807	52679	-0.361571	177.516	408.911	1.188026	0.092797	0.092622	412.776	52679	0.086921	0.239649	1722.42	98315.7
397	2.000000	1.190753	7.36895e+06	-57239.1	1005.82	-29737.4	0.000000	0.000000	7.209074	437.383	NaN	0.000000	0.001582	0.001693	28.0825	97.2742	0.001737	56016	4.519171	-7.428008	434.313	1.190384	0.095349	0.094980	437.383	56016	0.089493	0.252298	1733.6	101889
397	2.000000	1.193169	7.36895e+06	-57239.1	1005.82	-29737.4	0.000000	0.000000	7.212368	458.702	NaN	0.000000	0.001568	0.001658	28.0821	99.8611	0.001879	53144.1	4.722206	172.447	455.226	1.192909	0.097765	0.097505	458.702	53144.1	0.091292	0.261327	1755.28	94981
397	2.000000	1.195733	7.36895e+06	-57239.1	1005.82	-29737.4	0.000000	0.000000	7.215671	476.662	NaN	0.000000	0.001580	0.001693	28.0805	102.54	0.001825	56186.1	8.194703	-11.0067	473.807	1.195255	0.100329	0.099851	476.662	56186.1	0.093966	0.275023	1733.17	97885.4
397	2.000000	1.198255	7.36895e+06	-57239.1	1005.82	-29737.4	0.000000	0.000000	7.218842	492.451	NaN	0.000000	0.001568	0.001702	28.0811	104.961	0.001831	57318.9	5.739837	171.131	493.856	1.197923	0.102851	0.102519	492.451	57318.9	0.096407	0.287807	1711.04	97615.8
397	2.000000	1.200756	7.36895e+06	-57239.1	1005.82	-29737.4	0.000000	0.000000	7.222582	522.551	NaN	0.000000	0.001612	0.001697	28.0807	106.554	0.001813	58770	9.999283	-12.9322	518.381	1.200302	0.105352	0.104898	522.551	58770	0.098684	0.299976	1741.97	98036
397	2.000000	1.202192	7.36895e+06	-57239.1	1005.82	-29737.4	0.000000	0.000000	7.224215	527.344	NaN	0.000000	0.001595	0.001694	28.0806	109.101	0.001852	58913.3	8.378502	167.786	524.16	1.201836	0.106788	0.106432	527.344	58913.3	0.100075	0.307526	1714.8	97061.2