File: remote_trans/data/nanoindenter/0828-1/data/Data_2025-08-06,11h17m57s/2025-07-22_16-23-58_1_375.txt
2025-07-22, 16:23:58, 1
Index	Phase	Displacement	Time	Pos X	Pos Y	Pos Z	Rot A	Rot B	Piezo Z	Force A	Force B	Gripper	Voltage A	Voltage B	Temperature	Amplitude force	Amplitude pos	Stiffness	Phase shift	Phase excitation	Force A raw	Displacement raw	HMax	HMax raw	Real Force	Real Stiffness	Contact Depth	Area	Hardness	Reduced Mod.
[#]	[#]	[um]	[s]	[um]	[um]	[um]	[m°]	[m°]	[um]	[uN]	[uN]	[V]	[V]	[V]	[°C]	[uN]	[um]	[N/m]	[°]	[°]	[uN]	[um]	[um]	[um]	[uN]	[N/m]	[um]	[um^2]	[MPa]	[MPa]
375	1.000000	0.002382	7.36873e+06	-57389.1	955.819	-29737.3	0.000000	0.000000	6.002806	-0.042710	NaN	0.000000	0.001682	0.001639	28.0789	0.159612	0.000982	162.498	-37.6779	-171.643	0.030164	0.001162	-1.104861	-1.106080	-0.042710	162.498	-1.104663	-5.789819E+14	7.376786E-17	NaN
375	1.000000	0.012432	7.36873e+06	-57389.1	955.819	-29737.3	0.000000	0.000000	6.012858	0.009011	NaN	0.000000	0.001682	0.001639	28.0788	0.048609	0.001273	38.1963	-107.118	21.2893	-0.010335	0.010948	-1.094811	-1.096294	0.009011	38.1963	-1.094987	-4.293148E+14	-2.098918E-17	NaN
375	1.000000	0.022331	7.36873e+06	-57389.1	955.818	-29737.3	0.000000	0.000000	6.022757	-0.000777	NaN	0.000000	0.001678	0.001683	28.0799	0.060488	0.001603	37.7226	52.4048	-165.134	0.005711	0.021030	-1.084911	-1.086212	-0.000777	37.7226	-1.084896	-3.142456E+14	2.472509E-18	NaN
375	1.000000	0.032338	7.36873e+06	-57389.1	955.818	-29737.3	0.000000	0.000000	6.032764	0.001612	NaN	0.000000	0.001680	0.001673	28.08	0.102597	0.001927	53.2454	3.926907	14.2765	-0.021730	0.030992	-1.074904	-1.076250	0.001612	53.2454	-1.074927	-2.308759E+14	-6.981685E-18	NaN
375	1.000000	0.042341	7.36873e+06	-57389.1	955.818	-29737.3	0.000000	0.000000	6.042769	0.036358	NaN	0.000000	0.001664	0.001673	28.0805	0.090472	0.001942	46.5878	143.527	-163.749	0.068391	0.041019	-1.064901	-1.066223	0.036358	46.5878	-1.065487	-1.724044E+14	-2.108890E-16	NaN
375	1.000000	0.052332	7.36873e+06	-57389.1	955.819	-29737.3	0.000000	0.000000	6.052758	-0.013418	NaN	0.000000	0.001678	0.001681	28.0799	0.048239	0.001964	24.5597	-62.1778	13.0949	0.000864	0.051015	-1.054910	-1.056228	-0.013418	24.5597	-1.054500	-1.227169E+14	1.093386E-16	NaN
375	1.000000	0.062305	7.36873e+06	-57389.1	955.819	-29737.3	0.000000	0.000000	6.062734	0.071831	NaN	0.000000	0.001707	0.001658	28.0802	0.109154	0.001950	55.9817	-46.6519	-167.867	0.082454	0.061015	-1.044937	-1.046228	0.071831	55.9817	-1.045900	-9.403558E+13	-7.638666E-16	NaN
375	1.000000	0.072287	7.36873e+06	-57389.1	955.819	-29737.3	0.000000	0.000000	6.072713	0.004147	NaN	0.000000	0.001626	0.001678	28.0801	0.094032	0.001991	47.2367	-169.551	12.6875	0.012802	0.071014	-1.034955	-1.036228	0.004147	47.2367	-1.035021	-6.714517E+13	-6.176791E-17	NaN
375	1.000000	0.082324	7.36873e+06	-57389.1	955.819	-29737.3	0.000000	0.000000	6.082754	0.088532	NaN	0.000000	0.001609	0.001654	28.0803	0.060207	0.002042	29.4882	-166.126	-166.713	0.090168	0.080980	-1.024918	-1.026262	0.088532	29.4882	-1.027170	-5.265143E+13	-1.681472E-15	NaN
375	1.000000	0.092336	7.36873e+06	-57389.1	955.818	-29737.3	0.000000	0.000000	6.092762	-0.020558	NaN	0.000000	0.001646	0.001654	28.0799	0.030091	0.002003	15.0209	88.0034	11.4328	0.079332	0.090910	-1.014906	-1.016332	-0.020558	15.0209	-1.013879	-3.488129E+13	5.893720E-16	NaN
375	1.000000	0.102365	7.36873e+06	-57389.1	955.818	-29737.3	0.000000	0.000000	6.102793	0.042505	NaN	0.000000	0.001631	0.001634	28.08	0.079182	0.002104	37.6293	49.986	-164.7	0.061222	0.101036	-1.004877	-1.006206	0.042505	37.6293	-1.005724	-2.709122E+13	-1.568969E-15	NaN
375	1.000000	0.112356	7.36873e+06	-57389.1	955.818	-29737.3	0.000000	0.000000	6.112781	-0.016139	NaN	0.000000	0.001610	0.001653	28.08	0.080473	0.002163	37.212	110.502	15.0137	-0.041175	0.110965	-0.994886	-0.996277	-0.016139	37.212	-0.994561	-1.916617E+13	8.420349E-16	NaN
375	1.000000	0.122375	7.36873e+06	-57389.1	955.819	-29737.3	0.000000	0.000000	6.122801	-0.000979	NaN	0.000000	0.001606	0.001651	28.0803	0.114072	0.001931	59.0724	15.9687	-165.57	-0.007167	0.121032	-0.984867	-0.986210	-0.000979	59.0724	-0.984855	-1.418436E+13	6.904874E-17	NaN
375	1.000000	0.132350	7.36873e+06	-57389.1	955.819	-29737.3	0.000000	0.000000	6.132777	0.011257	NaN	0.000000	0.001586	0.001650	28.0799	0.014878	0.001835	8.109067	133.137	15.6302	0.005051	0.131024	-0.974892	-0.976218	0.011257	8.109067	-0.975933	-1.075507E+13	-1.046691E-15	NaN
375	1.000000	0.142344	7.36873e+06	-57389.1	955.819	-29737.3	0.000000	0.000000	6.142770	0.000182	NaN	0.000000	0.001587	0.001645	28.0801	0.073095	0.001896	38.5566	37.5476	-162.34	-0.031076	0.141042	-0.964898	-0.966200	0.000182	38.5566	-0.964901	-7.637353E+12	-2.385321E-17	NaN
375	1.000000	0.152391	7.36873e+06	-57389.1	955.818	-29737.3	0.000000	0.000000	6.152819	0.035564	NaN	0.000000	0.001601	0.001652	28.0799	0.021250	0.002007	10.5864	-93.3785	15.0817	-0.006215	0.151032	-0.954851	-0.956210	0.035564	10.5864	-0.957370	-6.045256E+12	-5.882972E-15	NaN
375	1.000000	0.162356	7.36873e+06	-57389.1	955.819	-29737.3	0.000000	0.000000	6.162785	0.081851	NaN	0.000000	0.001618	0.001631	28.0789	0.066204	0.001969	33.6181	134.875	-168.877	-0.009421	0.161046	-0.944886	-0.946196	0.081851	33.6181	-0.946713	-4.341985E+12	-1.885094E-14	NaN
375	1.000000	0.172360	7.36873e+06	-57389.1	955.819	-29737.3	0.000000	0.000000	6.172787	0.007219	NaN	0.000000	0.001609	0.001600	28.0788	0.027271	0.001963	13.8899	-40.5123	12.4129	0.014805	0.170966	-0.934882	-0.936276	0.007219	13.8899	-0.935271	-3.043240E+12	-2.372304E-15	NaN
375	1.000000	0.182376	7.36873e+06	-57389.1	955.819	-29737.3	0.000000	0.000000	6.182804	0.040703	NaN	0.000000	0.001633	0.001665	28.0789	0.101942	0.001887	54.0138	-164.851	-165.81	0.030342	0.181137	-0.924866	-0.926105	0.040703	54.0138	-0.925431	-2.241441E+12	-1.815933E-14	NaN
375	1.000000	0.192384	7.36873e+06	-57389.1	955.818	-29737.3	0.000000	0.000000	6.192809	-0.024786	NaN	0.000000	0.001683	0.001655	28.0789	0.075516	0.002016	37.4499	170.247	13.2183	-0.066367	0.191034	-0.914858	-0.916208	-0.024786	37.4499	-0.914362	-1.588808E+12	1.560059E-14	NaN
375	1.000000	0.202364	7.36873e+06	-57389.1	955.818	-29737.3	0.000000	0.000000	6.202793	0.067423	NaN	0.000000	0.001654	0.001604	28.079	0.065450	0.002186	29.9407	-58.3641	-164.222	0.011259	0.201070	-0.904878	-0.906172	0.067423	29.9407	-0.906567	-1.246783E+12	-5.407720E-14	NaN
375	1.000000	0.212409	7.36873e+06	-57389.1	955.818	-29737.3	0.000000	0.000000	6.212833	-0.061137	NaN	0.000000	0.001653	0.001657	28.0789	0.058682	0.002011	29.177	-131.453	12.731	-0.007067	0.211015	-0.894833	-0.896227	-0.061137	29.177	-0.893262	-8.241409E+11	7.418222E-14	NaN
375	1.000000	0.222363	7.36873e+06	-57389.1	955.82	-29737.3	0.000000	0.000000	6.222790	0.016993	NaN	0.000000	0.001646	0.001646	28.079	0.023241	0.001731	13.4291	25.3458	-163.133	0.008864	0.221084	-0.884879	-0.886158	0.016993	13.4291	-0.885828	-6.538982E+11	-2.598783E-14	NaN
375	1.000000	0.232402	7.36873e+06	-57389.1	955.819	-29737.3	0.000000	0.000000	6.232829	0.029782	NaN	0.000000	0.001641	0.001666	28.079	0.120662	0.001995	60.4819	-48.7143	15.8218	0.084583	0.231023	-0.874840	-0.876219	0.029782	60.4819	-0.875210	-4.698053E+11	-6.339160E-14	NaN
375	1.000000	0.242406	7.36873e+06	-57389.1	955.819	-29737.3	0.000000	0.000000	6.242835	0.069268	NaN	0.000000	0.001646	0.001629	28.0789	0.071674	0.001856	38.6113	88.1164	-167.516	0.038624	0.241079	-0.864836	-0.866163	0.069268	38.6113	-0.866181	-3.546303E+11	-1.953257E-13	NaN
375	1.000000	0.252412	7.36873e+06	-57389.1	955.819	-29737.3	0.000000	0.000000	6.252839	0.018634	NaN	0.000000	0.001676	0.001667	28.0787	0.006262	0.001976	3.169600	-128.708	12.3017	-0.042361	0.251068	-0.854830	-0.856174	0.018634	3.169600	-0.859239	-2.856436E+11	-6.523485E-14	NaN
375	1.000000	0.262392	7.36873e+06	-57389.1	955.819	-29737.3	0.000000	0.000000	6.262816	-0.048870	NaN	0.000000	0.001712	0.001660	28.0788	0.055389	0.001890	29.3058	37.8417	-163.468	-0.048965	0.261124	-0.844850	-0.846118	-0.048870	29.3058	-0.843600	-1.754108E+11	2.786035E-13	NaN
375	1.000000	0.272387	7.36873e+06	-57389.1	955.818	-29737.3	0.000000	0.000000	6.272817	0.076348	NaN	0.000000	0.001699	0.001639	28.0789	0.066768	0.001904	35.0667	18.6938	14.276	-0.026468	0.271068	-0.834855	-0.836174	0.076348	35.0667	-0.836488	-1.405099E+11	-5.433615E-13	NaN
375	1.000000	0.282396	7.36873e+06	-57389.1	955.818	-29737.3	0.000000	0.000000	6.282824	0.050901	NaN	0.000000	0.001694	0.001645	28.0788	0.040720	0.002018	20.1799	-144.615	-164.947	0.045916	0.281102	-0.824847	-0.826140	0.050901	20.1799	-0.826738	-1.036509E+11	-4.910830E-13	NaN
375	1.000000	0.292427	7.36873e+06	-57389.1	955.819	-29737.3	0.000000	0.000000	6.292854	0.020799	NaN	0.000000	0.001694	0.001649	28.0799	0.143380	0.001927	74.4241	-85.9757	14.1957	0.095547	0.291062	-0.814815	-0.816180	0.020799	74.4241	-0.815025	-7.190086E+10	-2.892709E-13	NaN
375	1.000000	0.302423	7.36873e+06	-57389.1	955.819	-29737.3	0.000000	0.000000	6.302849	-0.003553	NaN	0.000000	0.001674	0.001657	28.0801	0.035585	0.001955	18.2051	108.555	-167.291	0.064799	0.301056	-0.804819	-0.806186	-0.003553	18.2051	-0.804672	-5.203322E+10	6.828816E-14	NaN
375	1.000000	0.312443	7.36873e+06	-57389.1	955.819	-29737.3	0.000000	0.000000	6.312870	0.014050	NaN	0.000000	0.001579	0.001623	28.08	0.068164	0.002158	31.588	-167.126	15.7564	-0.002082	0.311042	-0.794799	-0.796200	0.014050	31.588	-0.795133	-3.861723E+10	-3.638206E-13	NaN
375	1.000000	0.322443	7.36873e+06	-57389.1	955.819	-29737.3	0.000000	0.000000	6.322868	-0.033825	NaN	0.000000	0.001600	0.001660	28.08	0.144135	0.001941	74.2599	-25.3287	-162.447	0.041216	0.321126	-0.784799	-0.786116	-0.033825	74.2599	-0.784457	-2.765633E+10	1.223055E-12	NaN
375	1.000000	0.332440	7.36873e+06	-57389.1	955.818	-29737.3	0.000000	0.000000	6.332868	0.059370	NaN	0.000000	0.001620	0.001651	28.08	0.014651	0.001981	7.395790	-51.1299	12.8508	0.028760	0.331084	-0.774802	-0.776158	0.059370	7.395790	-0.780823	-2.468398E+10	-2.405218E-12	NaN
375	1.000000	0.342458	7.36873e+06	-57389.1	955.818	-29737.3	0.000000	0.000000	6.342884	-0.002287	NaN	0.000000	0.001593	0.001659	28.0801	0.127633	0.001869	68.2773	35.6788	-169.571	-0.000232	0.341184	-0.764784	-0.766058	-0.002287	68.2773	-0.764759	-1.492912E+10	1.531610E-13	NaN
375	1.000000	0.352454	7.36873e+06	-57389.1	955.819	-29737.3	0.000000	0.000000	6.352882	0.039921	NaN	0.000000	0.001629	0.001651	28.0799	0.012472	0.001944	6.416005	176.345	12.7149	0.121032	0.351102	-0.754788	-0.756140	0.039921	6.416005	-0.759455	-1.264396E+10	-3.157283E-12	NaN
375	1.000000	0.362428	7.36873e+06	-57389.1	955.819	-29737.3	0.000000	0.000000	6.362855	0.000763	NaN	0.000000	0.001616	0.001661	28.0798	0.107755	0.002076	51.8941	142.424	-166.643	-0.003250	0.361163	-0.744814	-0.746079	0.000763	51.8941	-0.744825	-7.993960E+9	-9.538481E-14	NaN
375	1.000000	0.372473	7.36873e+06	-57389.1	955.818	-29737.3	0.000000	0.000000	6.372900	0.030691	NaN	0.000000	0.001589	0.001629	28.0799	0.037603	0.002099	17.9129	62.2193	11.2174	0.072789	0.371102	-0.734769	-0.736141	0.030691	17.9129	-0.736054	-6.071651E+9	-5.054805E-12	NaN
375	1.000000	0.382466	7.36873e+06	-57389.1	955.818	-29737.3	0.000000	0.000000	6.382893	0.022269	NaN	0.000000	0.001609	0.001613	28.0801	0.095437	0.002058	46.3768	42.0068	-167.426	-0.029032	0.381205	-0.724776	-0.726037	0.022269	46.3768	-0.725136	-4.310278E+9	-5.166436E-12	NaN
375	1.000000	0.392446	7.36873e+06	-57389.1	955.819	-29737.3	0.000000	0.000000	6.392870	-0.046085	NaN	0.000000	0.001640	0.001641	28.0799	0.056330	0.002087	26.9941	98.5383	11.4857	0.041055	0.391101	-0.714796	-0.716141	-0.046085	26.9941	-0.713516	-2.992410E+9	1.540079E-11	NaN
375	1.000000	0.402453	7.36873e+06	-57389.1	955.819	-29737.3	0.000000	0.000000	6.402879	0.009673	NaN	0.000000	0.001622	0.001628	28.0798	0.054834	0.002029	27.0233	-114.316	-168.159	0.080295	0.401164	-0.704790	-0.706078	0.009673	27.0233	-0.705058	-2.293997E+9	-4.216529E-12	NaN
375	1.000000	0.412478	7.36873e+06	-57389.1	955.82	-29737.3	0.000000	0.000000	6.412904	-0.014189	NaN	0.000000	0.001631	0.001657	28.08	0.072564	0.002064	35.1509	40.627	15.7932	0.036310	0.411054	-0.694764	-0.696188	-0.014189	35.1509	-0.694461	-1.643915E+9	8.631477E-12	NaN
375	1.000000	0.422461	7.36873e+06	-57389.1	955.819	-29737.3	0.000000	0.000000	6.422891	0.093977	NaN	0.000000	0.001633	0.001673	28.0799	0.054114	0.001900	28.4873	40.0525	-166.665	0.073030	0.421229	-0.684781	-0.686013	0.093977	28.4873	-0.687255	-1.310400E+9	-7.171622E-11	NaN
375	1.000000	0.432475	7.36873e+06	-57389.1	955.819	-29737.3	0.000000	0.000000	6.432900	-0.010679	NaN	0.000000	0.001654	0.001637	28.0785	0.024281	0.002005	12.1107	-116.74	14.1406	0.010152	0.431142	-0.674767	-0.676100	-0.010679	12.1107	-0.674106	-8.661259E+8	1.232999E-11	NaN
375	1.000000	0.442482	7.36873e+06	-57389.1	955.818	-29737.3	0.000000	0.000000	6.442906	-0.046587	NaN	0.000000	0.001644	0.001664	28.0785	0.097260	0.001879	51.7626	-59.4244	-164.575	-0.035657	0.441133	-0.664760	-0.666109	-0.046587	51.7626	-0.664085	-6.315590E+8	7.376434E-11	NaN
375	1.000000	0.452478	7.36873e+06	-57389.1	955.818	-29737.3	0.000000	0.000000	6.452903	-0.040519	NaN	0.000000	0.001614	0.001646	28.0789	0.081514	0.001989	40.9906	-4.236508	12.1419	-0.031915	0.451152	-0.654764	-0.656090	-0.040519	40.9906	-0.654023	-4.598049E+8	8.812149E-11	NaN
375	1.000000	0.462505	7.36873e+06	-57389.1	955.819	-29737.3	0.000000	0.000000	6.462931	-0.004415	NaN	0.000000	0.001624	0.001694	28.0787	0.070303	0.001961	35.8443	-80.3833	-167.039	-0.050898	0.461195	-0.644737	-0.646047	-0.004415	35.8443	-0.644645	-3.419834E+8	1.290854E-11	NaN
375	1.000000	0.472487	7.36873e+06	-57389.1	955.819	-29737.3	0.000000	0.000000	6.472914	0.022534	NaN	0.000000	0.001596	0.001657	28.0786	0.049085	0.002155	22.774	-101.642	14.0759	-0.082288	0.471165	-0.634755	-0.636077	0.022534	22.774	-0.635498	-2.561544E+8	-8.797032E-11	NaN
375	1.000000	0.482498	7.36873e+06	-57389.1	955.819	-29737.3	0.000000	0.000000	6.482926	0.037846	NaN	0.000000	0.001629	0.001613	28.0788	0.104165	0.002083	50.011	-25.2115	-165.494	0.049686	0.481174	-0.624744	-0.626068	0.037846	50.011	-0.625311	-1.856187E+8	-2.038897E-10	NaN
375	1.000000	0.492501	7.36873e+06	-57389.1	955.819	-29737.3	0.000000	0.000000	6.492931	0.098104	NaN	0.000000	0.001623	0.001596	28.079	0.010882	0.002104	5.171042	-1.312874	14.1973	0.026435	0.491247	-0.614741	-0.615995	0.098104	5.171042	-0.628970	-2.083913E+8	-4.707699E-10	NaN
375	1.000000	0.502548	7.36873e+06	-57389.1	955.819	-29737.3	0.000000	0.000000	6.502976	0.036173	NaN	0.000000	0.001629	0.001620	28.0787	0.113119	0.001976	57.2423	48.2739	-164.779	0.058878	0.501224	-0.604694	-0.606018	0.036173	57.2423	-0.605168	-9.808785E+7	-3.687867E-10	NaN
375	1.000000	0.512526	7.36873e+06	-57389.1	955.819	-29737.3	0.000000	0.000000	6.512952	-0.006540	NaN	0.000000	0.001572	0.001651	28.0786	0.044120	0.002075	21.2579	-40.4745	15.2328	-0.054958	0.511156	-0.594716	-0.596086	-0.006540	21.2579	-0.594485	-6.990223E+7	9.356383E-11	NaN
375	1.000000	0.522549	7.36873e+06	-57389.1	955.818	-29737.3	0.000000	0.000000	6.522975	0.008593	NaN	0.000000	0.001612	0.001667	28.0786	0.109637	0.001992	55.0458	113.056	-164.77	0.063885	0.521231	-0.584693	-0.586011	0.008593	55.0458	-0.584810	-5.141605E+7	-1.671324E-10	NaN
375	1.000000	0.532542	7.36873e+06	-57389.1	955.819	-29737.3	0.000000	0.000000	6.532965	-0.057679	NaN	0.000000	0.001625	0.001613	28.0786	0.038731	0.001902	20.3648	-102.881	15.1267	-0.085061	0.531150	-0.574701	-0.576092	-0.057679	20.3648	-0.572576	-3.485175E+7	1.654984E-9	NaN
375	1.000000	0.542546	7.36873e+06	-57389.1	955.818	-29737.3	0.000000	0.000000	6.542975	0.076371	NaN	0.000000	0.001626	0.001680	28.0783	0.118505	0.001870	63.3743	88.4651	-166.199	0.035509	0.541234	-0.564696	-0.566009	0.076371	63.3743	-0.565600	-2.791389E+7	-2.735940E-9	NaN
375	1.000000	0.552527	7.36873e+06	-57389.1	955.819	-29737.3	0.000000	0.000000	6.552951	-0.052432	NaN	0.000000	0.001618	0.001635	28.0784	0.048594	0.001776	27.3626	170.347	13.0858	-0.062302	0.551210	-0.554715	-0.556032	-0.052432	27.3626	-0.553278	-1.885167E+7	2.781266E-9	NaN
375	1.000000	0.562544	7.36873e+06	-57389.1	955.818	-29737.3	0.000000	0.000000	6.562970	-0.003720	NaN	0.000000	0.001590	0.001678	28.0788	0.097697	0.001948	50.1567	155.63	-169.601	-0.030480	0.561220	-0.544698	-0.546022	-0.003720	50.1567	-0.544643	-1.431283E+7	2.599384E-10	NaN
375	1.000000	0.572539	7.36873e+06	-57389.1	955.818	-29737.3	0.000000	0.000000	6.572966	0.006667	NaN	0.000000	0.001618	0.001679	28.0799	0.106174	0.002092	50.7632	7.343828	13.0601	0.022570	0.571156	-0.534703	-0.536086	0.006667	50.7632	-0.534801	-1.045281E+7	-6.378342E-10	NaN
375	1.000000	0.582565	7.36873e+06	-57389.1	955.819	-29737.3	0.000000	0.000000	6.582990	-0.020441	NaN	0.000000	0.001630	0.001706	28.0795	0.101438	0.001932	52.5039	-140.429	-166.386	-0.028603	0.581256	-0.524677	-0.525986	-0.020441	52.5039	-0.524385	-7.4915e+06	2.728563E-9	NaN
375	1.000000	0.592562	7.36873e+06	-57389.1	955.818	-29737.3	0.000000	0.000000	6.592988	0.011184	NaN	0.000000	0.001671	0.001641	28.0797	0.050241	0.002034	24.7024	53.2003	16.9298	0.004094	0.591175	-0.514680	-0.516067	0.011184	24.7024	-0.515020	-5.55021e+06	-2.014976E-9	NaN
375	1.000000	0.602559	7.36873e+06	-57389.1	955.818	-29737.3	0.000000	0.000000	6.602984	-0.014751	NaN	0.000000	0.001618	0.001637	28.0799	0.098156	0.001937	50.6844	115.969	-170.14	-0.036318	0.601230	-0.504683	-0.506012	-0.014751	50.6844	-0.504465	-3.95627e+06	3.728582E-9	NaN
375	1.000000	0.612563	7.36873e+06	-57389.1	955.818	-29737.3	0.000000	0.000000	6.612990	-0.001207	NaN	0.000000	0.001658	0.001593	28.0798	0.129627	0.002037	63.6232	-142.255	13.7968	-0.073061	0.611202	-0.494679	-0.496040	-0.001207	63.6232	-0.494664	-2.88769e+06	4.180446E-10	NaN
375	1.000000	0.622571	7.36873e+06	-57389.1	955.818	-29737.3	0.000000	0.000000	6.622996	-0.034595	NaN	0.000000	0.001590	0.001640	28.0801	0.085345	0.002006	42.5428	20.7202	-168.865	-0.066324	0.621272	-0.484671	-0.485970	-0.034595	42.5428	-0.484061	-2.05288e+06	1.685173E-8	NaN
375	1.000000	0.632584	7.36873e+06	-57389.1	955.819	-29737.3	0.000000	0.000000	6.633010	-0.001278	NaN	0.000000	0.001618	0.001658	28.0798	0.022366	0.002023	11.057	128.658	11.88	0.004963	0.631156	-0.474658	-0.476086	-0.001278	11.057	-0.474572	-1.51181e+06	8.454921E-10	NaN
375	1.000000	0.642548	7.36873e+06	-57389.1	955.818	-29737.3	0.000000	0.000000	6.642974	0.001190	NaN	0.000000	0.001630	0.001659	28.0799	0.063523	0.002172	29.2519	-176.777	-165.647	0.060850	0.641277	-0.464694	-0.465965	0.001190	29.2519	-0.464725	-1.09997e+06	-1.082206E-9	NaN
375	1.000000	0.652565	7.36873e+06	-57389.1	955.818	-29737.3	0.000000	0.000000	6.652992	0.018220	NaN	0.000000	0.001613	0.001681	28.0799	0.107279	0.001858	57.7356	6.394073	12.8159	-0.006337	0.651253	-0.454677	-0.455989	0.018220	57.7356	-0.454914	-800767	-2.275335E-8	NaN
375	1.000000	0.662585	7.36873e+06	-57389.1	955.819	-29737.3	0.000000	0.000000	6.663010	-0.034734	NaN	0.000000	0.001590	0.001681	28.0798	0.023841	0.001919	12.4219	90.7112	-167.081	-0.061675	0.661234	-0.444657	-0.446008	-0.034734	12.4219	-0.442560	-536387	6.475527E-8	NaN
375	1.000000	0.672612	7.36873e+06	-57389.1	955.818	-29737.3	0.000000	0.000000	6.673038	0.011921	NaN	0.000000	0.001613	0.001650	28.0801	0.040930	0.002053	19.9385	36.0429	14.6604	0.013668	0.671217	-0.434630	-0.436025	0.011921	19.9385	-0.435079	-420599	-2.834218E-8	NaN
375	1.000000	0.682578	7.36873e+06	-57389.1	955.82	-29737.3	0.000000	0.000000	6.683004	0.003112	NaN	0.000000	0.001614	0.001644	28.0797	0.055511	0.002161	25.6929	-31.8367	-166.048	0.008400	0.681261	-0.424664	-0.425982	0.003112	25.6929	-0.424755	-300477	-1.035844E-8	NaN
375	1.000000	0.692600	7.36873e+06	-57389.1	955.819	-29737.3	0.000000	0.000000	6.693025	-0.019860	NaN	0.000000	0.001594	0.001633	28.08	0.031431	0.001881	16.7086	37.9741	11.1445	-0.024296	0.691191	-0.414642	-0.416051	-0.019860	16.7086	-0.413751	-209753	9.468235E-8	NaN
375	1.000000	0.702604	7.36873e+06	-57389.1	955.819	-29737.3	0.000000	0.000000	6.703031	0.031008	NaN	0.000000	0.001634	0.001654	28.0786	0.112353	0.002026	55.4478	163.345	-163.951	-0.022148	0.701261	-0.404638	-0.405981	0.031008	55.4478	-0.405058	-157786	-1.965178E-7	NaN
375	1.000000	0.712606	7.36873e+06	-57389.1	955.818	-29737.3	0.000000	0.000000	6.713036	0.093665	NaN	0.000000	0.001621	0.001644	28.079	0.028772	0.001968	14.6177	43.183	18.324	0.025744	0.711250	-0.394636	-0.395992	0.093665	14.6177	-0.399442	-131229	-7.137505E-7	NaN
375	1.000000	0.722607	7.36873e+06	-57389.1	955.819	-29737.3	0.000000	0.000000	6.723030	-0.066292	NaN	0.000000	0.001588	0.001660	28.0785	0.107380	0.001960	54.7879	-93.2077	-164.117	-0.022179	0.721280	-0.384636	-0.385962	-0.066292	54.7879	-0.383728	-78227.5	8.474301E-7	NaN
375	1.000000	0.732592	7.36873e+06	-57389.1	955.819	-29737.3	0.000000	0.000000	6.733019	0.015143	NaN	0.000000	0.001592	0.001634	28.0788	0.103854	0.002042	50.8602	103.257	11.2507	0.020070	0.731218	-0.374650	-0.376024	0.015143	50.8602	-0.374874	-58378.6	-2.593949E-7	NaN
375	1.000000	0.742602	7.36873e+06	-57389.1	955.818	-29737.3	0.000000	0.000000	6.743027	-0.034556	NaN	0.000000	0.001610	0.001681	28.0785	0.037761	0.002068	18.2572	99.3031	-165.263	-0.064668	0.741333	-0.364640	-0.365910	-0.034556	18.2572	-0.363220	-39661.3	8.712805E-7	NaN
375	1.000000	0.752609	7.36873e+06	-57389.1	955.819	-29737.3	0.000000	0.000000	6.753037	0.063341	NaN	0.000000	0.001622	0.001677	28.0788	0.113104	0.001929	58.6208	80.3953	13.3307	0.079235	0.751253	-0.354633	-0.355989	0.063341	58.6208	-0.355444	-30614.3	-2.069011E-6	NaN
375	1.000000	0.762600	7.36873e+06	-57389.1	955.817	-29737.3	0.000000	0.000000	6.763025	-0.028015	NaN	0.000000	0.001661	0.001664	28.0785	0.048389	0.002029	23.8513	-57.9308	-169.52	-0.010349	0.761330	-0.344642	-0.345912	-0.028015	23.8513	-0.343761	-20717	1.352287E-6	NaN
375	1.000000	0.772635	7.36873e+06	-57389.1	955.818	-29737.3	0.000000	0.000000	6.773064	0.053946	NaN	0.000000	0.001612	0.001655	28.0786	0.085968	0.002089	41.1615	127.977	12.9803	0.024302	0.771263	-0.334607	-0.335979	0.053946	41.1615	-0.335590	-15747.3	-3.425740E-6	NaN
375	1.000000	0.782648	7.36873e+06	-57389.1	955.819	-29737.3	0.000000	0.000000	6.783072	-0.048270	NaN	0.000000	0.001611	0.001656	28.0788	0.011134	0.001997	5.576029	175.072	-162.805	0.023927	0.781348	-0.324594	-0.325894	-0.048270	5.576029	-0.318102	-8723.38	5.533443E-6	NaN
375	1.000000	0.792645	7.36873e+06	-57389.1	955.819	-29737.3	0.000000	0.000000	6.793072	0.003314	NaN	0.000000	0.001615	0.001673	28.0785	0.040938	0.002058	19.8894	-103.701	15.719	-0.005576	0.791273	-0.314597	-0.315969	0.003314	19.8894	-0.314722	-7777.51	-4.260741E-7	NaN
375	1.000000	0.802662	7.36873e+06	-57389.1	955.818	-29737.3	0.000000	0.000000	6.803089	0.014511	NaN	0.000000	0.001592	0.001655	28.0785	0.019863	0.002156	9.212867	150.088	-163.16	-0.061353	0.801310	-0.304580	-0.305932	0.014511	9.212867	-0.305762	-5731.32	-2.531831E-6	NaN
375	1.000000	0.812641	7.36873e+06	-57389.1	955.818	-29737.3	0.000000	0.000000	6.813068	0.031405	NaN	0.000000	0.001618	0.001642	28.0786	0.095552	0.002028	47.1252	91.0289	14.9114	0.011033	0.811278	-0.294601	-0.295964	0.031405	47.1252	-0.295101	-3977.37	-7.895805E-6	NaN
375	1.000000	0.822629	7.36873e+06	-57389.1	955.818	-29737.3	0.000000	0.000000	6.823053	-0.053081	NaN	0.000000	0.001572	0.001658	28.0789	0.119769	0.002078	57.6297	94.2833	-167.542	-0.017313	0.821357	-0.284613	-0.285885	-0.053081	57.6297	-0.283923	-2704.35	1.962814E-5	NaN
375	1.000000	0.832631	7.36873e+06	-57389.1	955.818	-29737.3	0.000000	0.000000	6.833059	0.040010	NaN	0.000000	0.001581	0.001664	28.0785	0.054800	0.002098	26.1244	170.315	14.3329	0.021375	0.831279	-0.274611	-0.275963	0.040010	26.1244	-0.275759	-2036.55	-1.964584E-5	NaN
375	1.000000	0.842629	7.36873e+06	-57389.1	955.819	-29737.3	0.000000	0.000000	6.843055	0.013922	NaN	0.000000	0.001597	0.001673	28.0797	0.018201	0.001886	9.649196	108.546	-164.288	0.018634	0.841366	-0.264613	-0.265876	0.013922	9.649196	-0.265696	-1432.19	-9.720670E-6	NaN
375	1.000000	0.852676	7.36873e+06	-57389.1	955.818	-29737.3	0.000000	0.000000	6.853101	-0.042583	NaN	0.000000	0.001577	0.001679	28.0799	0.109945	0.001975	55.6576	-66.8901	15.3607	-0.061481	0.851259	-0.254566	-0.255983	-0.042583	55.6576	-0.253992	-947.523	4.494150E-5	NaN
375	1.000000	0.862673	7.36873e+06	-57389.1	955.818	-29737.3	0.000000	0.000000	6.863102	0.079643	NaN	0.000000	0.001593	0.001651	28.0796	0.004155	0.002118	1.961513	-27.4359	-166.288	0.001653	0.861334	-0.244570	-0.245908	0.079643	1.961513	-0.275022	-1984.87	-4.012533E-5	NaN
375	1.000000	0.872673	7.36873e+06	-57389.1	955.819	-29737.3	0.000000	0.000000	6.873099	0.001750	NaN	0.000000	0.001563	0.001658	28.0796	0.017820	0.002039	8.741170	-80.8526	13.9839	-0.019459	0.871335	-0.234570	-0.235907	0.001750	8.741170	-0.234720	-475.167	-3.682806E-6	NaN
375	1.000000	0.882696	7.36873e+06	-57389.1	955.819	-29737.3	0.000000	0.000000	6.883120	-0.048472	NaN	0.000000	0.001588	0.001652	28.0795	0.116873	0.002074	56.3634	80.6512	-168.139	-0.014151	0.881355	-0.224547	-0.225887	-0.048472	56.3634	-0.223902	-320.536	0.000151	NaN
375	1.000000	0.892688	7.36873e+06	-57389.1	955.818	-29737.3	0.000000	0.000000	6.893113	-0.018949	NaN	0.000000	0.001610	0.001620	28.0798	0.120249	0.002000	60.1235	-18.2033	12.3117	-0.046272	0.891320	-0.214554	-0.215922	-0.018949	60.1235	-0.214318	-225.185	8.415020E-5	NaN
375	1.000000	0.902686	7.36874e+06	-57389.1	955.819	-29737.3	0.000000	0.000000	6.903111	-0.005812	NaN	0.000000	0.001651	0.001628	28.0797	0.099620	0.001990	50.0622	74.9099	-169.838	-0.022108	0.901413	-0.204557	-0.205829	-0.005812	50.0622	-0.204470	-155.92	3.727634E-5	NaN
375	1.000000	0.912659	7.36874e+06	-57389.1	955.82	-29737.3	0.000000	0.000000	6.913086	0.033516	NaN	0.000000	0.001569	0.001637	28.0796	0.018039	0.002086	8.649225	66.2025	12.9567	0.106846	0.911311	-0.194583	-0.195931	0.033516	8.649225	-0.197490	-119.774	-0.000280	NaN
375	1.000000	0.922671	7.36874e+06	-57389.1	955.818	-29737.3	0.000000	0.000000	6.923097	-0.014134	NaN	0.000000	0.001583	0.001670	28.0797	0.066694	0.002025	32.9402	7.663669	-166.461	-0.040614	0.921368	-0.184571	-0.185874	-0.014134	32.9402	-0.184249	-72.0224	0.000196	NaN
375	1.000000	0.932702	7.36874e+06	-57389.1	955.819	-29737.3	0.000000	0.000000	6.933129	0.008998	NaN	0.000000	0.001616	0.001667	28.0805	0.125587	0.001946	64.5332	33.227	15.4354	-0.056645	0.931316	-0.174540	-0.175927	0.008998	64.5332	-0.174644	-49.4159	-0.000182	NaN
375	1.000000	0.942711	7.36874e+06	-57389.1	955.819	-29737.3	0.000000	0.000000	6.943136	-0.021527	NaN	0.000000	0.001596	0.001644	28.0797	0.047572	0.002045	23.2599	8.810026	-164.642	-0.023595	0.941393	-0.164532	-0.165850	-0.021527	23.2599	-0.163837	-32.0526	0.000672	NaN
375	1.000000	0.952711	7.36874e+06	-57389.1	955.819	-29737.3	0.000000	0.000000	6.953136	-0.014066	NaN	0.000000	0.001599	0.001664	28.0798	0.040066	0.002008	19.9562	-176.992	16.0435	-0.048325	0.951333	-0.154532	-0.155910	-0.014066	19.9562	-0.154003	-21.4099	0.000657	NaN
375	1.000000	0.962686	7.36874e+06	-57389.1	955.82	-29737.3	0.000000	0.000000	6.963112	0.011007	NaN	0.000000	0.001620	0.001653	28.0799	0.040812	0.001949	20.9359	-75.3619	-165.279	-0.015201	0.961398	-0.144556	-0.145844	0.011007	20.9359	-0.144951	-14.6303	-0.000752	NaN
375	1.000000	0.972708	7.36874e+06	-57389.1	955.819	-29737.3	0.000000	0.000000	6.973135	0.000361	NaN	0.000000	0.001602	0.001652	28.0797	0.110285	0.002121	52.0032	46.6917	14.5653	-0.020341	0.971299	-0.134534	-0.135943	0.000361	52.0032	-0.134539	-9.321377	-3.873882E-5	NaN
375	1.000000	0.982717	7.36874e+06	-57389.1	955.82	-29737.3	0.000000	0.000000	6.983142	-0.010100	NaN	0.000000	0.001598	0.001576	28.0787	0.122669	0.001975	62.1112	-151.193	-167.437	0.073826	0.981373	-0.124525	-0.125869	-0.010100	62.1112	-0.124403	-5.918024	0.001707	NaN
375	1.000000	0.992742	7.36874e+06	-57389.1	955.818	-29737.3	0.000000	0.000000	6.993170	0.026753	NaN	0.000000	0.001629	0.001604	28.0785	0.088210	0.001974	44.6868	160.017	16.5266	-0.017630	0.991392	-0.114500	-0.115850	0.026753	44.6868	-0.114949	-3.811102	-0.007020	NaN
375	1.000000	1.002703	7.36874e+06	-57389.1	955.819	-29737.3	0.000000	0.000000	7.003128	-0.019908	NaN	0.000000	0.001625	0.001604	28.0789	0.149981	0.002047	73.2536	102.449	-166.916	-0.021525	1.001436	-0.104540	-0.105806	-0.019908	73.2536	-0.104336	-2.274050	0.008755	NaN
375	1.000000	1.012699	7.36874e+06	-57389.1	955.82	-29737.3	0.000000	0.000000	7.013122	-0.078081	NaN	0.000000	0.001667	0.001664	28.0784	0.004654	0.001843	2.525615	-137.153	16.0281	-0.061298	1.011350	-0.094543	-0.095892	-0.078081	2.525615	-0.071356	-0.370722	0.210620	NaN
375	1.000000	1.022698	7.36874e+06	-57389.1	955.819	-29737.3	0.000000	0.000000	7.023121	-0.059301	NaN	0.000000	0.001628	0.001657	28.0788	0.057735	0.001979	29.1701	91.3977	-168.413	-0.080720	1.021385	-0.084544	-0.085857	-0.059301	29.1701	-0.083020	-0.735270	0.080652	NaN
375	1.000000	1.032696	7.36874e+06	-57389.1	955.819	-29737.3	0.000000	0.000000	7.033122	-0.006298	NaN	0.000000	0.001597	0.001622	28.0785	0.047505	0.001823	26.0543	-159.492	12.4254	0.043292	1.031381	-0.074546	-0.075861	-0.006298	26.0543	-0.074364	-0.444673	0.014162	NaN
375	1.000000	1.042724	7.36874e+06	-57389.1	955.82	-29737.3	0.000000	0.000000	7.043148	-0.047152	NaN	0.000000	0.001608	0.001661	28.0788	0.069217	0.001932	35.8314	45.9074	-167.433	-0.069270	1.041421	-0.064518	-0.065821	-0.047152	35.8314	-0.063531	-0.226793	0.207908	NaN
375	1.000000	1.052710	7.36874e+06	-57389.1	955.819	-29737.3	0.000000	0.000000	7.053135	-0.033609	NaN	0.000000	0.001600	0.001659	28.0783	0.122095	0.002050	59.5622	-112.732	14.2051	-0.004070	1.051403	-0.054532	-0.055839	-0.033609	59.5622	-0.054109	-0.121181	0.277349	NaN
375	1.000000	1.062733	7.36874e+06	-57389.1	955.819	-29737.3	0.000000	0.000000	7.063156	-0.075570	NaN	0.000000	0.001623	0.001617	28.0786	0.048461	0.002038	23.7814	31.7443	-163.695	-0.087656	1.061454	-0.044509	-0.045788	-0.075570	23.7814	-0.042126	-0.052494	1.439595	NaN
375	1.000000	1.072753	7.36874e+06	-57389.1	955.819	-29737.3	0.000000	0.000000	7.073176	-0.054831	NaN	0.000000	0.001669	0.001628	28.0784	0.091995	0.001964	46.8467	-155.763	18.0995	-0.113839	1.071413	-0.034490	-0.035829	-0.054831	46.8467	-0.033612	-0.029165	1.880042	NaN
375	1.000000	1.082752	7.36874e+06	-57389.1	955.819	-29737.3	0.000000	0.000000	7.083180	0.049487	NaN	0.000000	0.001700	0.001623	28.0785	0.116651	0.002009	58.0767	162.142	-163.969	0.001226	1.081453	-0.024491	-0.025789	0.049487	58.0767	-0.025130	-0.017002	-2.910586	NaN
375	1.000000	1.092775	7.36874e+06	-57389.1	955.82	-29737.3	0.000000	0.000000	7.093199	-0.042498	NaN	0.000000	0.001683	0.001639	28.0784	0.058877	0.002043	28.8237	-84.4072	18.0885	0.032923	1.091370	-0.014467	-0.015872	-0.042498	28.8237	-0.013362	-0.008311	5.113212	NaN
375	1.000000	1.102757	7.36874e+06	-57389.1	955.821	-29737.3	0.000000	0.000000	7.103183	-0.000905	NaN	0.000000	0.001643	0.001616	28.0783	0.054240	0.002076	26.1275	104.973	-165.679	-0.016809	1.101481	-0.004485	-0.005761	-0.000905	26.1275	-0.004459	-0.003074	0.294341	NaN
375	1.000000	1.112690	7.36874e+06	-57389.1	955.819	-29737.3	0.000000	0.000000	7.113387	6.591856	NaN	0.000000	0.001657	0.001611	28.0797	6.586282	0.001656	3978.12	15.5068	1.830281	4.399562	1.111383	0.005448	0.004141	6.591856	3978.12	0.004205	0.003419	1927.81	62155.4
375	2.000000	1.116383	7.36874e+06	-57389.1	955.818	-29737.3	0.000000	0.000000	7.117196	9.391761	NaN	0.000000	0.001639	0.001624	28.0794	10.2971	0.001763	5841.09	4.621832	-172.936	8.569453	1.116113	0.009141	0.008871	9.391761	5841.09	0.007935	0.006976	1346.33	63895.3
375	2.000000	1.118924	7.36874e+06	-57389.1	955.819	-29737.3	0.000000	0.000000	7.119873	12.7095	NaN	0.000000	0.001658	0.001575	28.0796	12.4122	0.001702	7294.08	7.922823	3.909853	12.4642	1.118512	0.011682	0.011269	12.7095	7294.08	0.010375	0.009601	1323.76	68011.9
375	2.000000	1.121322	7.36874e+06	-57389.1	955.819	-29737.3	0.000000	0.000000	7.122442	16.8571	NaN	0.000000	0.001654	0.001612	28.0797	15.1678	0.001756	8635.29	5.320401	-175.106	15.0825	1.120997	0.014080	0.013755	16.8571	8635.29	0.012616	0.012236	1377.61	71321.8
375	2.000000	1.123846	7.36874e+06	-57389.1	955.819	-29737.3	0.000000	0.000000	7.125045	18.7877	NaN	0.000000	0.001649	0.001640	28.0798	17.4878	0.001783	9808.36	3.437987	5.613576	17.6471	1.123496	0.016604	0.016254	18.7877	9808.36	0.015167	0.015509	1211.42	71958.2
375	2.000000	1.126324	7.36874e+06	-57389.1	955.819	-29737.3	0.000000	0.000000	7.127753	24.393	NaN	0.000000	0.001680	0.001643	28.0796	20.1371	0.001844	10921.1	4.227010	-175.625	23.7608	1.126029	0.019081	0.018787	24.393	10921.1	0.017406	0.018629	1309.39	73104
375	2.000000	1.128844	7.36874e+06	-57389.1	955.821	-29737.3	0.000000	0.000000	7.130506	30.02	NaN	0.000000	0.001648	0.001608	28.0796	21.9255	0.001797	12202.4	6.636379	2.294437	30.7071	1.128457	0.021602	0.021214	30.02	12202.4	0.019757	0.022162	1354.56	74887.9
375	2.000000	1.131306	7.36874e+06	-57389.1	955.82	-29737.3	0.000000	0.000000	7.133151	34.4628	NaN	0.000000	0.001634	0.001621	28.0798	24.5476	0.001805	13602.6	7.508840	179.681	34.8909	1.131001	0.024064	0.023759	34.4628	13602.6	0.022164	0.026058	1322.56	76989.1
375	2.000000	1.133783	7.36874e+06	-57389.1	955.821	-29737.3	0.000000	0.000000	7.135756	37.5981	NaN	0.000000	0.001625	0.001618	28.0798	26.6871	0.001856	14380.8	3.304175	2.856892	35.1375	1.133439	0.026540	0.026197	37.5981	14380.8	0.024580	0.030255	1242.7	75536.4
375	2.000000	1.136288	7.36874e+06	-57389.1	955.82	-29737.3	0.000000	0.000000	7.138594	45.6923	NaN	0.000000	0.001628	0.001631	28.0798	28.903	0.001759	16431.2	2.433811	-177.264	44.7825	1.135943	0.029046	0.028701	45.6923	16431.2	0.026960	0.034679	1317.58	80614.1
375	2.000000	1.138837	7.36874e+06	-57389.1	955.82	-29737.3	0.000000	0.000000	7.141445	53.0355	NaN	0.000000	0.001663	0.001618	28.0799	31.2842	0.001763	17746.3	6.586602	-1.182191	53.1812	1.138434	0.031595	0.031192	53.0355	17746.3	0.029353	0.039414	1345.59	81668.6
375	2.000000	1.141306	7.36874e+06	-57389.1	955.819	-29737.3	0.000000	0.000000	7.144101	57.5745	NaN	0.000000	0.001691	0.001604	28.08	33.545	0.001757	19093.2	4.650906	178.719	57.453	1.140961	0.034064	0.033718	57.5745	19093.2	0.031803	0.044563	1291.98	82635.2
375	2.000000	1.143793	7.36874e+06	-57389.1	955.82	-29737.3	0.000000	0.000000	7.146889	64.8881	NaN	0.000000	0.001616	0.001613	28.0796	36.463	0.001899	19201.7	7.019142	-2.257830	63.2538	1.143366	0.036551	0.036124	64.8881	19201.7	0.034016	0.049480	1311.4	78867.5
375	2.000000	1.146254	7.36874e+06	-57389.1	955.819	-29737.3	0.000000	0.000000	7.149751	74.6149	NaN	0.000000	0.001637	0.001628	28.0799	37.9881	0.001768	21485.7	2.615183	-179.705	72.648	1.145969	0.039012	0.038727	74.6149	21485.7	0.036408	0.055075	1354.8	83646.3
375	2.000000	1.148766	7.36874e+06	-57389.1	955.82	-29737.3	0.000000	0.000000	7.152590	82.5722	NaN	0.000000	0.001624	0.001615	28.0786	40.061	0.001709	23444.5	5.133225	-2.790893	80.8072	1.148402	0.041524	0.041160	82.5722	23444.5	0.038883	0.061172	1349.83	86603.7
375	2.000000	1.151294	7.36874e+06	-57389.1	955.82	-29737.3	0.000000	0.000000	7.155472	91.1934	NaN	0.000000	0.001602	0.001621	28.0786	43.4132	0.001889	22986.9	7.162269	176.494	90.731	1.150934	0.044052	0.043692	91.1934	22986.9	0.041077	0.066840	1364.35	81233.3
375	2.000000	1.153739	7.36874e+06	-57389.1	955.82	-29737.3	0.000000	0.000000	7.158304	100.588	NaN	0.000000	0.001642	0.001590	28.0784	45.7806	0.001871	24465.3	6.108056	-4.246283	97.2658	1.153363	0.046497	0.046121	100.588	24465.3	0.043413	0.073146	1375.17	82647.2
375	2.000000	1.156239	7.36874e+06	-57389.1	955.82	-29737.3	0.000000	0.000000	7.161123	108.345	NaN	0.000000	0.001617	0.001597	28.0784	48.0813	0.001801	26699.3	1.463881	179.203	107.433	1.156112	0.048997	0.048870	108.345	26699.3	0.045953	0.080316	1348.98	86073.9
375	2.000000	1.158840	7.36874e+06	-57389.1	955.82	-29737.3	0.000000	0.000000	7.164225	120.505	NaN	0.000000	0.001646	0.001627	28.0785	49.9133	0.001674	29817.1	5.145878	-4.385185	121.243	1.158557	0.051598	0.051315	120.505	29817.1	0.048567	0.088036	1368.82	91814.2
375	2.000000	1.161262	7.36874e+06	-57389.1	955.82	-29737.3	0.000000	0.000000	7.167213	134.286	NaN	0.000000	0.001627	0.001577	28.0784	52.6514	0.001763	29865.4	6.513229	173.994	132.709	1.160836	0.054020	0.053593	134.286	29865.4	0.050647	0.094424	1422.15	88797.2
375	2.000000	1.163707	7.36874e+06	-57389.1	955.82	-29737.3	0.000000	0.000000	7.170078	144.465	NaN	0.000000	0.001579	0.001616	28.0785	56.5431	0.001694	33380	7.372831	-8.012271	141.711	1.163296	0.056465	0.056053	144.465	33380	0.053219	0.102623	1407.72	95199.8
375	2.000000	1.166204	7.36874e+06	-57389.1	955.819	-29737.3	0.000000	0.000000	7.173262	161.177	NaN	0.000000	0.001623	0.001613	28.0784	59.5337	0.001796	33149.5	5.254531	174.741	157.815	1.165899	0.058962	0.058657	161.177	33149.5	0.055316	0.109548	1471.29	91505.5
375	2.000000	1.168758	7.36874e+06	-57389.1	955.819	-29737.3	0.000000	0.000000	7.176349	174.148	NaN	0.000000	0.001615	0.001615	28.0787	61.4955	0.001885	32624.4	7.088682	-7.455976	170.537	1.168358	0.061516	0.061116	174.148	32624.4	0.057512	0.117040	1487.94	87126.2
375	2.000000	1.171195	7.36874e+06	-57389.1	955.818	-29737.3	0.000000	0.000000	7.178985	178.984	NaN	0.000000	0.001646	0.001603	28.0785	63.3558	0.001699	37283.4	4.033090	174.397	177.047	1.170945	0.063953	0.063703	178.984	37283.4	0.060352	0.127074	1408.5	95556.7
375	2.000000	1.173783	7.36874e+06	-57389.1	955.818	-29737.3	0.000000	0.000000	7.182186	193.859	NaN	0.000000	0.001586	0.001625	28.0787	67.0566	0.001783	37613	5.405393	-6.861257	194.193	1.173402	0.066541	0.066160	193.859	37613	0.062676	0.135578	1429.87	93329
375	2.000000	1.176200	7.36874e+06	-57389.1	955.819	-29737.3	0.000000	0.000000	7.184946	202.2	NaN	0.000000	0.001613	0.001618	28.0784	70.1106	0.001943	36091.6	4.523098	173.766	198.922	1.176023	0.068958	0.068781	202.2	36091.6	0.064756	0.143413	1409.92	87073.3
375	2.000000	1.178752	7.36874e+06	-57389.1	955.819	-29737.3	0.000000	0.000000	7.188135	217.668	NaN	0.000000	0.001624	0.001636	28.079	70.7686	0.001679	42140.8	2.510076	-4.871215	214.81	1.178415	0.071510	0.071173	217.668	42140.8	0.067636	0.154606	1407.89	97917.9
375	2.000000	1.181204	7.36874e+06	-57389.1	955.818	-29737.3	0.000000	0.000000	7.191414	237.781	NaN	0.000000	0.001597	0.001615	28.0789	72.6465	0.001696	42827.6	1.147317	176.273	233.981	1.180853	0.073962	0.073611	237.781	42827.6	0.069798	0.163267	1456.39	96838.3
375	2.000000	1.183726	7.36874e+06	-57389.1	955.818	-29737.3	0.000000	0.000000	7.194350	247.855	NaN	0.000000	0.001618	0.001660	28.0803	76.7927	0.001718	44704.1	3.138142	-6.049438	243.165	1.183263	0.076484	0.076021	247.855	44704.1	0.072325	0.173675	1427.12	98005.6
375	2.000000	1.186261	7.36874e+06	-57389.1	955.82	-29737.3	0.000000	0.000000	7.197144	254.166	NaN	0.000000	0.001584	0.001580	28.0798	79.8229	0.001753	45524.6	1.191913	176.04	257.589	1.186045	0.079019	0.078803	254.166	45524.6	0.074831	0.184295	1379.13	96886.4
375	2.000000	1.188634	7.36874e+06	-57389.1	955.819	-29737.3	0.000000	0.000000	7.200600	280.466	NaN	0.000000	0.001578	0.001619	28.08	82.2862	0.001839	44755.2	7.810870	-10.3586	273.672	1.188226	0.081392	0.080984	280.466	44755.2	0.076692	0.192369	1457.96	93228.5
375	2.000000	1.191180	7.36874e+06	-57389.1	955.819	-29737.3	0.000000	0.000000	7.203591	291.296	NaN	0.000000	0.001564	0.001618	28.0798	84.6017	0.001839	46009.7	4.030119	172.895	289.946	1.190947	0.083937	0.083705	291.296	46009.7	0.079189	0.203464	1431.69	93192.2
375	2.000000	1.193706	7.36874e+06	-57389.1	955.819	-29737.3	0.000000	0.000000	7.206950	311.536	NaN	0.000000	0.001586	0.001636	28.0802	86.1171	0.001805	47720.7	3.973970	-6.646999	307.559	1.193282	0.086464	0.086040	311.536	47720.7	0.081568	0.214302	1453.72	94181.8
375	2.000000	1.196181	7.36874e+06	-57389.1	955.82	-29737.3	0.000000	0.000000	7.209746	319.346	NaN	0.000000	0.001557	0.001643	28.08	89.8753	0.001856	48422.3	2.214878	174.19	316.863	1.196008	0.088939	0.088766	319.346	48422.3	0.083992	0.225619	1415.42	93138.8
375	2.000000	1.198755	7.36874e+06	-57389.1	955.819	-29737.3	0.000000	0.000000	7.213297	343.092	NaN	0.000000	0.001569	0.001609	28.0799	90.6138	0.001720	52697	2.961628	-6.938363	340.978	1.198366	0.091513	0.091124	343.092	52697	0.086630	0.238238	1440.12	98640.1
375	2.000000	1.201216	7.36874e+06	-57389.1	955.82	-29737.3	0.000000	0.000000	7.216203	353.893	NaN	0.000000	0.001614	0.001643	28.0798	92.3755	0.001819	50796.4	4.018872	172.509	352.823	1.200829	0.093974	0.093587	353.893	50796.4	0.088749	0.248609	1423.49	93078.3
375	2.000000	1.203651	7.36874e+06	-57389.1	955.82	-29737.3	0.000000	0.000000	7.219722	380.242	NaN	0.000000	0.001574	0.001601	28.08	95.1586	0.001807	52649.6	5.119558	-8.790718	375.495	1.203187	0.096409	0.095945	380.242	52649.6	0.090992	0.259814	1463.52	94370.7
375	2.000000	1.206158	7.36874e+06	-57389.1	955.819	-29737.3	0.000000	0.000000	7.222828	394.794	NaN	0.000000	0.001586	0.001663	28.0801	98.0912	0.001746	56178.7	3.635705	172.084	391.356	1.205888	0.098916	0.098646	394.794	56178.7	0.093645	0.273361	1444.22	98169.5
375	2.000000	1.208784	7.36874e+06	-57389.1	955.819	-29737.3	0.000000	0.000000	7.225810	403.445	NaN	0.000000	0.001568	0.001653	28.0798	99.7961	0.001824	54699.8	4.003350	-8.312279	403.458	1.208544	0.101542	0.101302	403.445	54699.8	0.096010	0.285709	1412.08	93496.8
375	2.000000	1.211185	7.36874e+06	-57389.1	955.819	-29737.3	0.000000	0.000000	7.229160	426.51	NaN	0.000000	0.001561	0.001641	28.0798	101.987	0.001722	59221.6	4.325069	170.958	424.103	1.210740	0.103943	0.103498	426.51	59221.6	0.098542	0.299210	1425.45	98915.7
375	2.000000	1.212977	7.36874e+06	-57389.1	955.819	-29737.3	0.000000	0.000000	7.230428	413.787	NaN	0.000000	0.001580	0.001671	28.0801	104.362	0.001884	55404.9	3.518447	-8.017238	426.755	1.212820	0.105735	0.105578	413.787	55404.9	0.100134	0.307849	1344.12	91233