File: remote_trans/data/nanoindenter/0828-1/data/Data_2025-08-06,11h17m57s/2025-07-22_16-23-58_1_1082.txt
2025-07-22, 16:23:58, 1
Index	Phase	Displacement	Time	Pos X	Pos Y	Pos Z	Rot A	Rot B	Piezo Z	Force A	Force B	Gripper	Voltage A	Voltage B	Temperature	Amplitude force	Amplitude pos	Stiffness	Phase shift	Phase excitation	Force A raw	Displacement raw	HMax	HMax raw	Real Force	Real Stiffness	Contact Depth	Area	Hardness	Reduced Mod.
[#]	[#]	[um]	[s]	[um]	[um]	[um]	[m°]	[m°]	[um]	[uN]	[uN]	[V]	[V]	[V]	[°C]	[uN]	[um]	[N/m]	[°]	[°]	[uN]	[um]	[um]	[um]	[uN]	[N/m]	[um]	[um^2]	[MPa]	[MPa]
1082	1.000000	0.002393	7.37563e+06	-54239.1	1055.82	-29744	0.000000	0.000000	6.002785	-0.014935	NaN	0.000000	0.001656	0.001722	28.081	0.015855	0.000876	18.1014	85.5595	-159.933	-0.063610	0.001127	-1.079910	-1.081176	-0.014935	18.1014	-1.079291	-2.642411E+14	5.651946E-17	NaN
1082	1.000000	0.010391	7.37563e+06	-54239.1	1055.82	-29744	0.000000	0.000000	6.010786	0.055610	NaN	0.000000	0.001661	0.001700	28.0805	0.039337	0.000919	42.7975	-56.4942	-160.796	0.069899	0.009043	-1.071912	-1.073260	0.055610	42.7975	-1.072886	-2.167539E+14	-2.565579E-16	NaN
1082	1.000000	0.018362	7.37563e+06	-54239.1	1055.82	-29744	0.000000	0.000000	6.018754	-0.027667	NaN	0.000000	0.001662	0.001721	28.0807	0.048651	0.001773	27.446	3.102258	-163.831	0.005629	0.017035	-1.063941	-1.065268	-0.027667	27.446	-1.063185	-1.605543E+14	1.723237E-16	NaN
1082	1.000000	0.026399	7.37563e+06	-54239.1	1055.82	-29744	0.000000	0.000000	6.026792	0.011509	NaN	0.000000	0.001631	0.001724	28.0809	0.047056	0.001843	25.5369	-132.488	-167.284	0.018117	0.025058	-1.055904	-1.057245	0.011509	25.5369	-1.056242	-1.295152E+14	-8.885955E-17	NaN
1082	1.000000	0.034350	7.37563e+06	-54239.1	1055.82	-29744	0.000000	0.000000	6.034739	-0.105253	NaN	0.000000	0.001623	0.001710	28.0806	0.131004	0.001836	71.3397	156.969	-166.004	-0.111285	0.033028	-1.047953	-1.049275	-0.105253	71.3397	-1.046846	-9.683221E+13	1.086959E-15	NaN
1082	1.000000	0.042340	7.37563e+06	-54239.1	1055.82	-29744	0.000000	0.000000	6.042734	0.021564	NaN	0.000000	0.001662	0.001694	28.0809	0.130154	0.002028	64.1777	-156.331	-167.054	0.056203	0.041105	-1.039963	-1.041198	0.021564	64.1777	-1.040215	-7.886093E+13	-2.734371E-16	NaN
1082	1.000000	0.050343	7.37563e+06	-54239.1	1055.82	-29744	0.000000	0.000000	6.050734	-0.044389	NaN	0.000000	0.001655	0.001708	28.0806	0.148074	0.001981	74.7389	147.393	-169.396	-0.074137	0.049015	-1.031960	-1.033288	-0.044389	74.7389	-1.031515	-6.023583E+13	7.369244E-16	NaN
1082	1.000000	0.058368	7.37563e+06	-54239.1	1055.82	-29744	0.000000	0.000000	6.058762	0.015027	NaN	0.000000	0.001629	0.001696	28.0819	0.031601	0.001925	16.4119	-166.772	-165.251	-0.027529	0.057034	-1.023935	-1.025270	0.015027	16.4119	-1.024622	-4.865570E+13	-3.088507E-16	NaN
1082	1.000000	0.066337	7.37563e+06	-54239.1	1055.82	-29744	0.000000	0.000000	6.066727	-0.057475	NaN	0.000000	0.001644	0.001740	28.0816	0.086604	0.001971	43.9311	-145.412	-165.646	-0.116555	0.065057	-1.015966	-1.017246	-0.057475	43.9311	-1.014985	-3.609715E+13	1.592219E-15	NaN
1082	1.000000	0.074409	7.37563e+06	-54239.1	1055.82	-29744	0.000000	0.000000	6.074801	-0.020246	NaN	0.000000	0.001641	0.001690	28.0816	0.081708	0.001910	42.7765	-13.7495	-165.758	-0.018177	0.073050	-1.007894	-1.009254	-0.020246	42.7765	-1.007539	-2.865890E+13	7.064612E-16	NaN
1082	1.000000	0.082344	7.37563e+06	-54239.1	1055.82	-29744	0.000000	0.000000	6.082738	0.012004	NaN	0.000000	0.001667	0.001701	28.0819	0.133002	0.002096	63.4682	-5.867641	-167.519	0.030168	0.081074	-0.999959	-1.001229	0.012004	63.4682	-1.000101	-2.275757E+13	-5.274642E-16	NaN
1082	1.000000	0.090362	7.37563e+06	-54239.1	1055.82	-29744	0.000000	0.000000	6.090756	0.028946	NaN	0.000000	0.001628	0.001700	28.0817	0.049536	0.001984	24.9631	101.684	-165.006	-0.046425	0.089057	-0.991941	-0.993246	0.028946	24.9631	-0.992811	-1.815357E+13	-1.594494E-15	NaN
1082	1.000000	0.098374	7.37563e+06	-54239.1	1055.82	-29744	0.000000	0.000000	6.098768	0.009358	NaN	0.000000	0.001588	0.001717	28.0818	0.089638	0.002076	43.1765	-138.713	-166.27	-0.044452	0.097055	-0.983929	-0.985249	0.009358	43.1765	-0.984091	-1.385249E+13	-6.755349E-16	NaN
1082	1.000000	0.106355	7.37563e+06	-54239.1	1055.82	-29744	0.000000	0.000000	6.106747	-0.025998	NaN	0.000000	0.001628	0.001700	28.0815	0.138173	0.001922	71.8888	135.598	-162.365	-0.008798	0.105032	-0.975948	-0.977271	-0.025998	71.8888	-0.975677	-1.067001E+13	2.436581E-15	NaN
1082	1.000000	0.114370	7.37563e+06	-54239.1	1055.82	-29744	0.000000	0.000000	6.114763	0.019925	NaN	0.000000	0.001653	0.001722	28.0817	0.119471	0.001985	60.1961	127.7	-165.727	0.024925	0.113049	-0.967934	-0.969254	0.019925	60.1961	-0.968182	-8.455916E+12	-2.356308E-15	NaN
1082	1.000000	0.122364	7.37563e+06	-54239.1	1055.82	-29744	0.000000	0.000000	6.122756	-0.013255	NaN	0.000000	0.001629	0.001665	28.0816	0.103011	0.001939	53.1248	-150.065	-165.177	0.039821	0.121024	-0.959940	-0.961280	-0.013255	53.1248	-0.959753	-6.509280E+12	2.036293E-15	NaN
1082	1.000000	0.130408	7.37563e+06	-54239.1	1055.82	-29744	0.000000	0.000000	6.130800	-0.024617	NaN	0.000000	0.001630	0.001707	28.0816	0.058985	0.001931	30.5432	78.4125	-166.285	-0.031238	0.129082	-0.951895	-0.953222	-0.024617	30.5432	-0.951291	-5.005348E+12	4.918091E-15	NaN
1082	1.000000	0.138405	7.37563e+06	-54239.1	1055.82	-29744	0.000000	0.000000	6.138799	0.019416	NaN	0.000000	0.001627	0.001722	28.082	0.123303	0.001956	63.0361	165.363	-169.957	-0.092435	0.137056	-0.943898	-0.945247	0.019416	63.0361	-0.944129	-4.007197E+12	-4.845174E-15	NaN
1082	1.000000	0.146410	7.37563e+06	-54239.1	1055.82	-29744	0.000000	0.000000	6.146799	-0.074855	NaN	0.000000	0.001641	0.001728	28.0817	0.156389	0.001917	81.5985	-108.247	-164.524	-0.082114	0.145093	-0.935894	-0.937210	-0.074855	81.5985	-0.935206	-3.037034E+12	2.464742E-14	NaN
1082	1.000000	0.154397	7.37563e+06	-54239.1	1055.82	-29744	0.000000	0.000000	6.154787	-0.047490	NaN	0.000000	0.001643	0.001709	28.0818	0.037989	0.001894	20.0597	-120.136	-164.351	-0.065078	0.153081	-0.927907	-0.929222	-0.047490	20.0597	-0.926131	-2.290749E+12	2.073104E-14	NaN
1082	1.000000	0.162376	7.37563e+06	-54239.1	1055.82	-29744	0.000000	0.000000	6.162768	-0.005294	NaN	0.000000	0.001621	0.001732	28.0818	0.031507	0.002104	14.9783	126.385	-167.19	0.000141	0.161116	-0.919927	-0.921187	-0.005294	14.9783	-0.919662	-1.873471E+12	2.825744E-15	NaN
1082	1.000000	0.170363	7.37563e+06	-54239.1	1055.82	-29744	0.000000	0.000000	6.170761	0.125829	NaN	0.000000	0.001624	0.001719	28.0817	0.030938	0.002177	14.2085	17.1987	-165.566	0.065942	0.169127	-0.911941	-0.913176	0.125829	14.2085	-0.918583	-1.811624E+12	-6.945660E-14	NaN
1082	1.000000	0.178399	7.37563e+06	-54239.1	1055.82	-29744	0.000000	0.000000	6.178792	-0.003771	NaN	0.000000	0.001630	0.001708	28.0819	0.100872	0.002066	48.8337	-117.457	-166.887	-0.100683	0.177084	-0.903904	-0.905220	-0.003771	48.8337	-0.903846	-1.145598E+12	3.292144E-15	NaN
1082	1.000000	0.186398	7.37563e+06	-54239.1	1055.82	-29744	0.000000	0.000000	6.186792	0.026835	NaN	0.000000	0.001631	0.001697	28.0819	0.038121	0.002068	18.4349	37.0818	-165.743	-0.005799	0.185090	-0.895905	-0.897213	0.026835	18.4349	-0.896997	-9.257222E+11	-2.898847E-14	NaN
1082	1.000000	0.194400	7.37563e+06	-54239.1	1055.82	-29744	0.000000	0.000000	6.194792	-0.036594	NaN	0.000000	0.001623	0.001682	28.0807	0.009626	0.002043	4.711571	134.406	-163.474	-0.066039	0.193141	-0.887903	-0.889163	-0.036594	4.711571	-0.882078	-5.818403E+11	6.289436E-14	NaN
1082	1.000000	0.202421	7.37563e+06	-54239.1	1055.82	-29744	0.000000	0.000000	6.202814	0.002065	NaN	0.000000	0.001646	0.001718	28.0805	0.051392	0.002017	25.4811	-106.037	-166.547	-0.065929	0.201080	-0.879882	-0.881224	0.002065	25.4811	-0.879943	-5.444198E+11	-3.792428E-15	NaN
1082	1.000000	0.210430	7.37563e+06	-54239.1	1055.82	-29744	0.000000	0.000000	6.210823	0.002377	NaN	0.000000	0.001644	0.001693	28.0804	0.049677	0.001983	25.0571	-40.7155	-166.783	-0.041119	0.209122	-0.871873	-0.873181	0.002377	25.0571	-0.871944	-4.243693E+11	-5.601627E-15	NaN
1082	1.000000	0.218405	7.37563e+06	-54239.1	1055.82	-29744	0.000000	0.000000	6.218799	0.030446	NaN	0.000000	0.001664	0.001714	28.0803	0.049721	0.002004	24.8168	-40.5572	-166.964	0.047551	0.217128	-0.863898	-0.865176	0.030446	24.8168	-0.864818	-3.398861E+11	-8.957573E-14	NaN
1082	1.000000	0.226437	7.37563e+06	-54239.1	1055.82	-29744	0.000000	0.000000	6.226827	-0.064248	NaN	0.000000	0.001636	0.001715	28.0804	0.094997	0.002004	47.3941	-27.5566	-165.402	0.052716	0.225103	-0.855867	-0.857201	-0.064248	47.3941	-0.854850	-2.491175E+11	2.579009E-13	NaN
1082	1.000000	0.234448	7.37563e+06	-54239.1	1055.82	-29744	0.000000	0.000000	6.234840	-0.018070	NaN	0.000000	0.001669	0.001741	28.0805	0.005250	0.002080	2.523846	-128.265	-164.459	0.004374	0.233159	-0.847855	-0.849144	-0.018070	2.523846	-0.842485	-1.694175E+11	1.066603E-13	NaN
1082	1.000000	0.242440	7.37563e+06	-54239.1	1055.82	-29744	0.000000	0.000000	6.242836	0.067600	NaN	0.000000	0.001619	0.001693	28.0803	0.085497	0.002058	41.5341	88.8092	-165.006	0.024054	0.241081	-0.839863	-0.841222	0.067600	41.5341	-0.841084	-1.621711E+11	-4.168440E-13	NaN
1082	1.000000	0.250457	7.37563e+06	-54239.1	1055.82	-29744	0.000000	0.000000	6.250847	-0.075548	NaN	0.000000	0.001644	0.001687	28.0805	0.039920	0.001996	20.0038	-105.626	-166.22	-0.098416	0.249131	-0.831846	-0.833172	-0.075548	20.0038	-0.829013	-1.112787E+11	6.789122E-13	NaN
1082	1.000000	0.258405	7.37563e+06	-54239.1	1055.82	-29744	0.000000	0.000000	6.258798	0.011307	NaN	0.000000	0.001611	0.001756	28.0801	0.030140	0.002018	14.9364	66.9644	-166.817	-0.025627	0.257129	-0.823898	-0.825175	0.011307	14.9364	-0.824466	-9.655256E+10	-1.171069E-13	NaN
1082	1.000000	0.266443	7.37563e+06	-54239.1	1055.82	-29744	0.000000	0.000000	6.266836	0.020320	NaN	0.000000	0.001566	0.001722	28.0802	0.081468	0.002007	40.585	-176.121	-166.941	0.040650	0.265126	-0.815861	-0.817178	0.020320	40.585	-0.816236	-7.467315E+10	-2.721162E-13	NaN
1082	1.000000	0.274425	7.37563e+06	-54239.1	1055.82	-29744	0.000000	0.000000	6.274819	0.014410	NaN	0.000000	0.001576	0.001693	28.0804	0.107219	0.002026	52.9084	-3.246466	-167.192	-0.003599	0.273143	-0.807878	-0.809161	0.014410	52.9084	-0.808082	-5.788325E+10	-2.489567E-13	NaN
1082	1.000000	0.282455	7.37563e+06	-54239.1	1055.82	-29744	0.000000	0.000000	6.282845	-0.054733	NaN	0.000000	0.001556	0.001702	28.0804	0.200801	0.001950	102.98	-158.075	-165.899	-0.064866	0.281220	-0.799849	-0.801083	-0.054733	102.98	-0.799450	-4.419760E+10	1.238371E-12	NaN
1082	1.000000	0.290442	7.37563e+06	-54239.1	1055.82	-29744	0.000000	0.000000	6.290835	0.023410	NaN	0.000000	0.001533	0.001676	28.0808	0.060361	0.001863	32.3919	-64.5979	-165.363	0.059130	0.289132	-0.791862	-0.793171	0.023410	32.3919	-0.792404	-3.545905E+10	-6.601858E-13	NaN
1082	1.000000	0.298469	7.37563e+06	-54239.1	1055.82	-29744	0.000000	0.000000	6.298863	0.019189	NaN	0.000000	0.001579	0.001715	28.0802	0.059020	0.002086	28.2926	84.0763	-164.821	-0.011068	0.297152	-0.783834	-0.785152	0.019189	28.2926	-0.784343	-2.755751E+10	-6.963405E-13	NaN
1082	1.000000	0.306440	7.37563e+06	-54239.1	1055.82	-29744	0.000000	0.000000	6.306832	-0.018221	NaN	0.000000	0.001580	0.001700	28.0803	0.055114	0.002053	26.8447	-82.8636	-166.764	0.057519	0.305164	-0.775863	-0.777140	-0.018221	26.8447	-0.775354	-2.080130E+10	8.759696E-13	NaN
1082	1.000000	0.314487	7.37564e+06	-54239.1	1055.82	-29744	0.000000	0.000000	6.314881	0.036855	NaN	0.000000	0.001569	0.001705	28.0803	0.074300	0.001967	37.7788	64.2638	-164.889	0.065823	0.313170	-0.767816	-0.769134	0.036855	37.7788	-0.768548	-1.680980E+10	-2.192483E-12	NaN
1082	1.000000	0.322464	7.37564e+06	-54239.1	1055.82	-29744	0.000000	0.000000	6.322856	-0.024370	NaN	0.000000	0.001569	0.001691	28.0802	0.070783	0.002051	34.5092	129.516	-167.208	0.012695	0.321161	-0.759839	-0.761143	-0.024370	34.5092	-0.759310	-1.258661E+10	1.936161E-12	NaN
1082	1.000000	0.330486	7.37564e+06	-54239.1	1055.82	-29744	0.000000	0.000000	6.330881	0.036289	NaN	0.000000	0.001559	0.001701	28.0816	0.036622	0.001985	18.4508	32.1472	-164.712	0.040370	0.329174	-0.751817	-0.753129	0.036289	18.4508	-0.753292	-1.042384E+10	-3.481377E-12	NaN
1082	1.000000	0.338478	7.37564e+06	-54239.1	1055.82	-29744	0.000000	0.000000	6.338870	-0.002742	NaN	0.000000	0.001557	0.001718	28.0817	0.018082	0.002034	8.888097	-37.9938	-163.03	-0.018897	0.337204	-0.743826	-0.745099	-0.002742	8.888097	-0.743594	-7.691403E+9	3.565473E-13	NaN
1082	1.000000	0.346444	7.37564e+06	-54239.1	1055.82	-29744	0.000000	0.000000	6.346835	-0.031641	NaN	0.000000	0.001562	0.001728	28.082	0.006752	0.001943	3.476019	60.9484	-165.736	-0.123966	0.345151	-0.735859	-0.737153	-0.031641	3.476019	-0.729032	-4.871027E+9	6.495820E-12	NaN
1082	1.000000	0.354487	7.37564e+06	-54239.1	1055.82	-29744	0.000000	0.000000	6.354879	-0.012285	NaN	0.000000	0.001568	0.001713	28.0818	0.056494	0.001988	28.4167	-171.037	-167.933	0.021443	0.353222	-0.727817	-0.729081	-0.012285	28.4167	-0.727492	-4.641186E+9	2.647010E-12	NaN
1082	1.000000	0.362467	7.37564e+06	-54239.1	1055.82	-29744	0.000000	0.000000	6.362859	-0.003402	NaN	0.000000	0.001554	0.001712	28.0817	0.057137	0.001994	28.6518	147.016	-164.601	0.030947	0.361175	-0.719836	-0.721128	-0.003402	28.6518	-0.719747	-3.639382E+9	9.348952E-13	NaN
1082	1.000000	0.370454	7.37564e+06	-54239.1	1055.82	-29744	0.000000	0.000000	6.370845	-0.039996	NaN	0.000000	0.001530	0.001701	28.0818	0.045630	0.002141	21.3134	-3.800930	-166.263	-0.074499	0.369185	-0.711849	-0.713118	-0.039996	21.3134	-0.710442	-2.716916E+9	1.472092E-11	NaN
1082	1.000000	0.378489	7.37564e+06	-54239.1	1055.82	-29744	0.000000	0.000000	6.378878	-0.103804	NaN	0.000000	0.001593	0.001746	28.0815	0.108927	0.001964	55.4551	-146.259	-167.073	-0.004818	0.377168	-0.703814	-0.705135	-0.103804	55.4551	-0.702410	-2.110784E+9	4.917794E-11	NaN
1082	1.000000	0.386492	7.37564e+06	-54239.1	1055.82	-29744	0.000000	0.000000	6.386889	0.102828	NaN	0.000000	0.001596	0.001726	28.0817	0.095132	0.002133	44.6082	135.429	-161.776	0.067382	0.385137	-0.695811	-0.697167	0.102828	44.6082	-0.697540	-1.811067E+9	-5.677774E-11	NaN
1082	1.000000	0.394487	7.37564e+06	-54239.1	1055.82	-29744	0.000000	0.000000	6.394880	0.015053	NaN	0.000000	0.001584	0.001703	28.0813	0.133096	0.001977	67.336	-83.3012	-169.635	0.044329	0.393199	-0.687816	-0.689105	0.015053	67.336	-0.687984	-1.340801E+9	-1.122708E-11	NaN
1082	1.000000	0.402509	7.37564e+06	-54239.1	1055.82	-29744	0.000000	0.000000	6.402905	0.061684	NaN	0.000000	0.001591	0.001720	28.0817	0.057526	0.001999	28.7765	62.3771	-166.085	0.041710	0.401156	-0.679794	-0.681148	0.061684	28.7765	-0.681402	-1.089871E+9	-5.659750E-11	NaN
1082	1.000000	0.410532	7.37564e+06	-54239.1	1055.82	-29744	0.000000	0.000000	6.410926	0.030329	NaN	0.000000	0.001563	0.001719	28.0817	0.066223	0.001976	33.518	62.6845	-167.002	0.053614	0.409198	-0.671771	-0.673105	0.030329	33.518	-0.672450	-8.220912E+8	-3.689190E-11	NaN
1082	1.000000	0.418499	7.37564e+06	-54239.1	1055.82	-29744	0.000000	0.000000	6.418893	0.017256	NaN	0.000000	0.001603	0.001702	28.0817	0.080913	0.002019	40.0724	-35.9207	-165.069	-0.059589	0.417167	-0.663804	-0.665137	0.017256	40.0724	-0.664127	-6.323946E+8	-2.728749E-11	NaN
1082	1.000000	0.426496	7.37564e+06	-54239.1	1055.82	-29744	0.000000	0.000000	6.426890	0.030892	NaN	0.000000	0.001560	0.001779	28.0817	0.101015	0.001933	52.2683	93.7566	-162.434	-0.023631	0.425188	-0.655807	-0.657115	0.030892	52.2683	-0.656251	-4.932924E+8	-6.262474E-11	NaN
1082	1.000000	0.434497	7.37564e+06	-54239.1	1055.82	-29744	0.000000	0.000000	6.434889	-0.031402	NaN	0.000000	0.001587	0.001746	28.0812	0.071061	0.001958	36.2901	139.95	-167.908	-0.049820	0.433169	-0.647806	-0.649135	-0.031402	36.2901	-0.647157	-3.702197E+8	8.482077E-11	NaN
1082	1.000000	0.442506	7.37564e+06	-54239.1	1055.82	-29744	0.000000	0.000000	6.442898	-0.021645	NaN	0.000000	0.001572	0.001733	28.0815	0.123559	0.002050	60.2688	-140.6	-167.632	-0.066431	0.441211	-0.639798	-0.641092	-0.021645	60.2688	-0.639528	-2.909493E+8	7.439380E-11	NaN
1082	1.000000	0.450536	7.37564e+06	-54239.1	1055.82	-29744	0.000000	0.000000	6.450930	0.037892	NaN	0.000000	0.001569	0.001740	28.0814	0.017573	0.001942	9.050538	151.566	-166.228	0.007044	0.449201	-0.631767	-0.633102	0.037892	9.050538	-0.634908	-2.514214E+8	-1.507117E-10	NaN
1082	1.000000	0.458533	7.37564e+06	-54239.1	1055.82	-29744	0.000000	0.000000	6.458927	0.038775	NaN	0.000000	0.001566	0.001766	28.0815	0.102297	0.002027	50.4763	152.653	-168.134	0.059082	0.457236	-0.623770	-0.625067	0.038775	50.4763	-0.624347	-1.800393E+8	-2.153673E-10	NaN
1082	1.000000	0.466498	7.37564e+06	-54239.1	1055.82	-29744	0.000000	0.000000	6.466889	-0.032918	NaN	0.000000	0.001531	0.001731	28.0809	0.060053	0.002007	29.9221	-103.714	-167.982	-0.005488	0.465239	-0.615806	-0.617064	-0.032918	29.9221	-0.614981	-1.338518E+8	2.459252E-10	NaN
1082	1.000000	0.474540	7.37564e+06	-54239.1	1055.82	-29744	0.000000	0.000000	6.474933	0.001967	NaN	0.000000	0.001563	0.001746	28.0802	0.083591	0.002009	41.6105	-117.831	-165.562	-0.027371	0.473278	-0.607763	-0.609025	0.001967	41.6105	-0.607798	-1.066155E+8	-1.845367E-11	NaN
1082	1.000000	0.482555	7.37564e+06	-54239.1	1055.82	-29744	0.000000	0.000000	6.482948	0.005652	NaN	0.000000	0.001595	0.001736	28.0805	0.042399	0.001944	21.811	103.987	-165.829	0.027049	0.481246	-0.599748	-0.601057	0.005652	21.811	-0.599942	-8.311276E+7	-6.800522E-11	NaN
1082	1.000000	0.490529	7.37564e+06	-54239.1	1055.82	-29744	0.000000	0.000000	6.490926	0.100023	NaN	0.000000	0.001613	0.001727	28.0804	0.023668	0.001926	12.2867	-44.4362	-165.864	0.112996	0.489214	-0.591774	-0.593089	0.100023	12.2867	-0.597880	-7.784968E+7	-1.284819E-9	NaN
1082	1.000000	0.498529	7.37564e+06	-54239.1	1055.82	-29744	0.000000	0.000000	6.498921	-0.034660	NaN	0.000000	0.001593	0.001677	28.0806	0.037003	0.002065	17.9235	-77.9949	-164.117	0.038747	0.497244	-0.583774	-0.585059	-0.034660	17.9235	-0.582324	-4.751082E+7	7.295158E-10	NaN
1082	1.000000	0.506515	7.37564e+06	-54239.1	1055.82	-29744	0.000000	0.000000	6.506908	0.008953	NaN	0.000000	0.001578	0.001649	28.0804	0.084840	0.002109	40.2277	-69.1433	-165.859	0.002503	0.505185	-0.575788	-0.577118	0.008953	40.2277	-0.575955	-3.880506E+7	-2.307236E-10	NaN
1082	1.000000	0.514558	7.37564e+06	-54239.1	1055.82	-29744	0.000000	0.000000	6.514951	-0.005149	NaN	0.000000	0.001582	0.001713	28.0802	0.016853	0.001979	8.516697	-3.299989	-163.652	-0.060878	0.513325	-0.567745	-0.568978	-0.005149	8.516697	-0.567292	-2.945810E+7	1.747834E-10	NaN
1082	1.000000	0.522535	7.37564e+06	-54239.1	1055.82	-29744	0.000000	0.000000	6.522925	-0.060173	NaN	0.000000	0.001582	0.001676	28.0804	0.064868	0.001887	34.3707	111.568	-164.014	-0.088969	0.521282	-0.559769	-0.561021	-0.060173	34.3707	-0.558456	-2.223372E+7	2.706400E-9	NaN
1082	1.000000	0.530556	7.37564e+06	-54239.1	1055.82	-29744	0.000000	0.000000	6.530952	0.074008	NaN	0.000000	0.001581	0.001711	28.0801	0.070849	0.001984	35.7133	18.9746	-166.446	0.097146	0.529320	-0.551747	-0.552983	0.074008	35.7133	-0.553302	-1.886591E+7	-3.922869E-9	NaN
1082	1.000000	0.538558	7.37564e+06	-54239.1	1055.82	-29744	0.000000	0.000000	6.538950	-0.009618	NaN	0.000000	0.001628	0.001688	28.0804	0.128094	0.002043	62.7104	-98.1125	-165.232	-0.041785	0.537238	-0.543745	-0.545066	-0.009618	62.7104	-0.543630	-1.385785E+7	6.940155E-10	NaN
1082	1.000000	0.546554	7.37564e+06	-54239.1	1055.82	-29744	0.000000	0.000000	6.546948	0.032962	NaN	0.000000	0.001591	0.001717	28.0802	0.085338	0.002041	41.8057	14.5168	-166.634	0.028852	0.545302	-0.535750	-0.537002	0.032962	41.8057	-0.536341	-1.097992E+7	-3.002019E-9	NaN
1082	1.000000	0.554571	7.37564e+06	-54239.1	1055.82	-29744	0.000000	0.000000	6.554963	-0.025564	NaN	0.000000	0.001576	0.001741	28.0801	0.118885	0.002093	56.8041	-153.168	-170.315	-0.038427	0.553252	-0.527732	-0.529051	-0.025564	56.8041	-0.527395	-8.24874e+06	3.099173E-9	NaN
1082	1.000000	0.562559	7.37564e+06	-54239.1	1055.82	-29744	0.000000	0.000000	6.562951	-0.039820	NaN	0.000000	0.001594	0.001706	28.0802	0.102732	0.001848	55.581	3.447035	-165.56	-0.037223	0.561269	-0.519744	-0.521034	-0.039820	55.581	-0.519207	-6.3469e+06	6.273965E-9	NaN
1082	1.000000	0.570578	7.37564e+06	-54239.1	1055.82	-29744	0.000000	0.000000	6.570971	-0.002321	NaN	0.000000	0.001593	0.001703	28.0803	0.088811	0.001943	45.7045	-135.568	-166.904	0.083551	0.569233	-0.511725	-0.513070	-0.002321	45.7045	-0.511687	-4.98787e+06	4.653147E-10	NaN
1082	1.000000	0.578567	7.37564e+06	-54239.1	1055.82	-29744	0.000000	0.000000	6.578959	-0.024112	NaN	0.000000	0.001625	0.001732	28.0807	0.045551	0.001867	24.4038	159.708	-165.311	-0.027361	0.577280	-0.503737	-0.505024	-0.024112	24.4038	-0.502996	-3.77397e+06	6.389094E-9	NaN
1082	1.000000	0.586577	7.37564e+06	-54239.1	1055.82	-29744	0.000000	0.000000	6.586968	-0.028465	NaN	0.000000	0.001610	0.001702	28.0801	0.067326	0.002126	31.6689	-117.056	-168.193	0.049532	0.585275	-0.495726	-0.497028	-0.028465	31.6689	-0.495052	-2.92392e+06	9.735313E-9	NaN
1082	1.000000	0.594596	7.37564e+06	-54239.1	1055.82	-29744	0.000000	0.000000	6.594987	-0.036280	NaN	0.000000	0.001606	0.001685	28.0803	0.075720	0.001960	38.6279	-121.693	-165.473	-0.019834	0.593279	-0.487708	-0.489024	-0.036280	38.6279	-0.487003	-2.25685e+06	1.607561E-8	NaN
1082	1.000000	0.602592	7.37564e+06	-54239.1	1055.82	-29744	0.000000	0.000000	6.602982	-0.058051	NaN	0.000000	0.001607	0.001691	28.0805	0.087904	0.002080	42.252	-157.499	-164.515	0.005438	0.601265	-0.479712	-0.481038	-0.058051	42.252	-0.478681	-1.72609e+06	3.363136E-8	NaN
1082	1.000000	0.610600	7.37564e+06	-54239.1	1055.82	-29744	0.000000	0.000000	6.610992	-0.022613	NaN	0.000000	0.001604	0.001663	28.0816	0.068072	0.002062	33.0088	178.428	-163.567	-0.012935	0.609324	-0.471704	-0.472980	-0.022613	33.0088	-0.471190	-1.35548e+06	1.668281E-8	NaN
1082	1.000000	0.618607	7.37564e+06	-54239.1	1055.82	-29744	0.000000	0.000000	6.619001	0.033886	NaN	0.000000	0.001621	0.001708	28.0817	0.131521	0.002071	63.5206	-54.3605	-160.528	0.084633	0.617318	-0.463696	-0.464985	0.033886	63.5206	-0.464096	-1.07785e+06	-3.143904E-8	NaN
1082	1.000000	0.626604	7.37564e+06	-54239.1	1055.82	-29744	0.000000	0.000000	6.626996	-0.025416	NaN	0.000000	0.001641	0.001668	28.0815	0.096889	0.001973	49.1013	-56.7064	-164.706	-0.006306	0.625266	-0.455699	-0.457038	-0.025416	49.1013	-0.455311	-811130	3.133384E-8	NaN
1082	1.000000	0.634602	7.37564e+06	-54239.1	1055.82	-29744	0.000000	0.000000	6.634993	-0.057543	NaN	0.000000	0.001614	0.001685	28.0815	0.065100	0.001986	32.784	-112.997	-162.934	-0.009672	0.633232	-0.447701	-0.449072	-0.057543	32.784	-0.446385	-607308	9.475062E-8	NaN
1082	1.000000	0.642586	7.37564e+06	-54239.1	1055.82	-29744	0.000000	0.000000	6.642978	-0.009912	NaN	0.000000	0.001596	0.001648	28.0814	0.064698	0.001894	34.1549	-39.7227	-166.872	-0.117101	0.641285	-0.439718	-0.441018	-0.009912	34.1549	-0.439500	-485630	2.040982E-8	NaN
1082	1.000000	0.650649	7.37564e+06	-54239.1	1055.82	-29744	0.000000	0.000000	6.651038	-0.093200	NaN	0.000000	0.001524	0.001674	28.0815	0.021416	0.001946	11.0074	173.078	-166.964	-0.049553	0.649290	-0.431654	-0.433013	-0.093200	11.0074	-0.425304	-305904	3.046706E-7	NaN
1082	1.000000	0.658616	7.37564e+06	-54239.1	1055.82	-29744	0.000000	0.000000	6.659008	-0.034761	NaN	0.000000	0.001525	0.001648	28.0814	0.046430	0.001958	23.7136	178.982	-165.928	-0.018106	0.657327	-0.423687	-0.424977	-0.034761	23.7136	-0.422587	-279963	1.241648E-7	NaN
1082	1.000000	0.666620	7.37564e+06	-54239.1	1055.82	-29744	0.000000	0.000000	6.667012	-0.015886	NaN	0.000000	0.001532	0.001654	28.0812	0.101024	0.002061	49.0162	25.3766	-164.29	-0.033397	0.665275	-0.415683	-0.417028	-0.015886	49.0162	-0.415440	-221671	7.166685E-8	NaN
1082	1.000000	0.674619	7.37564e+06	-54239.1	1055.82	-29744	0.000000	0.000000	6.675013	0.031948	NaN	0.000000	0.001521	0.001669	28.0816	0.052060	0.002015	25.8333	-71.2004	-165.684	-0.031044	0.673332	-0.407685	-0.408971	0.031948	25.8333	-0.408612	-177280	-1.802119E-7	NaN
1082	1.000000	0.682602	7.37564e+06	-54239.1	1055.82	-29744	0.000000	0.000000	6.682995	0.021571	NaN	0.000000	0.001538	0.001704	28.0814	0.070347	0.001987	35.4013	-156.176	-166.435	-0.014793	0.681323	-0.399702	-0.400980	0.021571	35.4013	-0.400159	-134356	-1.605547E-7	NaN
1082	1.000000	0.690609	7.37564e+06	-54239.1	1055.82	-29744	0.000000	0.000000	6.691000	-0.037789	NaN	0.000000	0.001556	0.001633	28.0815	0.060155	0.001924	31.261	-33.9901	-164.974	-0.124288	0.689273	-0.391695	-0.393030	-0.037789	31.261	-0.390788	-98727.2	3.827594E-7	NaN
1082	1.000000	0.698621	7.37564e+06	-54239.1	1055.82	-29744	0.000000	0.000000	6.699014	0.005145	NaN	0.000000	0.001588	0.001678	28.0814	0.143188	0.001907	75.0846	-134.309	-166.924	-0.010196	0.697336	-0.383682	-0.384967	0.005145	75.0846	-0.383734	-78241.7	-6.576301E-8	NaN
1082	1.000000	0.706621	7.37564e+06	-54239.1	1055.82	-29744	0.000000	0.000000	6.707017	0.063693	NaN	0.000000	0.001595	0.001665	28.0813	0.061902	0.001965	31.5029	73.68	-163.619	0.037142	0.705287	-0.375682	-0.377017	0.063693	31.5029	-0.377198	-63046.4	-1.010250E-6	NaN
1082	1.000000	0.714637	7.37564e+06	-54239.1	1055.82	-29744	0.000000	0.000000	6.715028	-0.026543	NaN	0.000000	0.001559	0.001651	28.0817	0.045246	0.001995	22.6824	-42.6336	-161.425	-0.061379	0.713349	-0.367667	-0.368955	-0.026543	22.6824	-0.366789	-44653.8	5.944098E-7	NaN
1082	1.000000	0.722645	7.37564e+06	-54239.1	1055.82	-29744	0.000000	0.000000	6.723038	0.004541	NaN	0.000000	0.001607	0.001672	28.0815	0.057621	0.002030	28.3876	-160.069	-168.004	-0.070830	0.721318	-0.359658	-0.360985	0.004541	28.3876	-0.359778	-35369.9	-1.283880E-7	NaN
1082	1.000000	0.730636	7.37564e+06	-54239.1	1055.82	-29744	0.000000	0.000000	6.731027	-0.038594	NaN	0.000000	0.001591	0.001679	28.0818	0.104223	0.002035	51.2187	166.873	-166.07	0.022473	0.729375	-0.351667	-0.352929	-0.038594	51.2187	-0.351102	-26484.5	1.457235E-6	NaN
1082	1.000000	0.738661	7.37564e+06	-54239.1	1055.82	-29744	0.000000	0.000000	6.739057	0.080861	NaN	0.000000	0.001574	0.001691	28.0812	0.036104	0.002013	17.9315	118.012	-162.786	0.020909	0.737310	-0.343642	-0.344993	0.080861	17.9315	-0.347024	-23109.3	-3.499049E-6	NaN
1082	1.000000	0.746633	7.37564e+06	-54239.1	1055.82	-29744	0.000000	0.000000	6.747026	0.004858	NaN	0.000000	0.001577	0.001655	28.0801	0.072540	0.001974	36.7394	133.629	-163.42	-0.007061	0.745351	-0.335671	-0.336953	0.004858	36.7394	-0.335770	-15842.8	-3.066569E-7	NaN
1082	1.000000	0.754643	7.37564e+06	-54239.1	1055.82	-29744	0.000000	0.000000	6.755036	-0.000679	NaN	0.000000	0.001567	0.001694	28.0803	0.131588	0.002047	64.2983	-42.6784	-165.913	0.047671	0.753327	-0.327660	-0.328976	-0.000679	64.2983	-0.327652	-12051.7	5.632380E-8	NaN
1082	1.000000	0.762663	7.37564e+06	-54239.1	1055.82	-29744	0.000000	0.000000	6.763057	0.038032	NaN	0.000000	0.001585	0.001692	28.0801	0.083160	0.001955	42.5423	-64.525	-165.993	0.012570	0.761312	-0.319641	-0.320992	0.038032	42.5423	-0.320311	-9401.91	-4.045087E-6	NaN
1082	1.000000	0.770681	7.37564e+06	-54239.1	1055.82	-29744	0.000000	0.000000	6.771074	0.022295	NaN	0.000000	0.001603	0.001705	28.0803	0.050234	0.001876	26.7747	-48.2354	-165.488	0.026286	0.769359	-0.311623	-0.312945	0.022295	26.7747	-0.312247	-7149.74	-3.118238E-6	NaN
1082	1.000000	0.778643	7.37564e+06	-54239.1	1055.82	-29744	0.000000	0.000000	6.779036	0.013081	NaN	0.000000	0.001561	0.001691	28.08	0.027992	0.001895	14.7715	16.1008	-168.364	-0.026599	0.777361	-0.303660	-0.304942	0.013081	14.7715	-0.304324	-5456.64	-2.397302E-6	NaN
1082	1.000000	0.786681	7.37564e+06	-54239.1	1055.82	-29744	0.000000	0.000000	6.787072	-0.045984	NaN	0.000000	0.001591	0.001674	28.08	0.085728	0.002092	40.9824	115.445	-164.016	-0.024772	0.785344	-0.295622	-0.296959	-0.045984	40.9824	-0.294781	-3933.82	1.168950E-5	NaN
1082	1.000000	0.794652	7.37564e+06	-54239.1	1055.82	-29744	0.000000	0.000000	6.795042	-0.069253	NaN	0.000000	0.001602	0.001661	28.0801	0.017825	0.001994	8.938924	27.2343	-166.6	-0.043200	0.793342	-0.287651	-0.288962	-0.069253	8.938924	-0.281841	-2516.08	2.752412E-5	NaN
1082	1.000000	0.802660	7.37564e+06	-54239.1	1055.82	-29744	0.000000	0.000000	6.803052	-0.025052	NaN	0.000000	0.001602	0.001692	28.08	0.086289	0.001995	43.2437	-149.372	-166.399	0.010682	0.801377	-0.279643	-0.280926	-0.025052	43.2437	-0.279209	-2296.29	1.090978E-5	NaN
1082	1.000000	0.810666	7.37564e+06	-54239.1	1055.82	-29744	0.000000	0.000000	6.811058	-0.026003	NaN	0.000000	0.001601	0.001712	28.0802	0.189653	0.001986	95.517	17.2922	-161.968	0.030429	0.809345	-0.271637	-0.272959	-0.026003	95.517	-0.271433	-1751.12	1.484928E-5	NaN
1082	1.000000	0.818666	7.37564e+06	-54239.1	1055.82	-29744	0.000000	0.000000	6.819060	0.035294	NaN	0.000000	0.001575	0.001668	28.0801	0.064734	0.002080	31.1208	56.4706	-164.44	-0.062278	0.817425	-0.263638	-0.264879	0.035294	31.1208	-0.264488	-1372.7	-2.571118E-5	NaN
1082	1.000000	0.826662	7.37564e+06	-54239.1	1055.82	-29744	0.000000	0.000000	6.827053	-0.038613	NaN	0.000000	0.001592	0.001724	28.0804	0.092438	0.002104	43.9336	-164.724	-169.142	-0.025668	0.825402	-0.255642	-0.256901	-0.038613	43.9336	-0.254983	-981.403	3.934482E-5	NaN
1082	1.000000	0.834698	7.37564e+06	-54239.1	1055.82	-29744	0.000000	0.000000	6.835091	0.020245	NaN	0.000000	0.001559	0.001696	28.0801	0.035876	0.002150	16.684	135.422	-166.366	0.015255	0.833369	-0.247606	-0.248934	0.020245	16.684	-0.248516	-779.825	-2.596139E-5	NaN
1082	1.000000	0.842682	7.37564e+06	-54239.1	1055.82	-29744	0.000000	0.000000	6.843075	-0.006622	NaN	0.000000	0.001574	0.001700	28.0801	0.153551	0.001971	77.9099	141.544	-168.311	-0.032443	0.841358	-0.239621	-0.240945	-0.006622	77.9099	-0.239557	-565.767	1.170445E-5	NaN
1082	1.000000	0.850684	7.37564e+06	-54239.1	1055.82	-29744	0.000000	0.000000	6.851079	0.063129	NaN	0.000000	0.001579	0.001722	28.0801	0.099374	0.002116	46.9617	151.21	-166.187	-0.010472	0.849394	-0.231620	-0.232909	0.063129	46.9617	-0.232628	-440.506	-0.000143	NaN
1082	1.000000	0.858676	7.37564e+06	-54239.1	1055.82	-29744	0.000000	0.000000	6.859067	-0.050696	NaN	0.000000	0.001641	0.001699	28.0802	0.056834	0.001881	30.2197	20.9924	-165.076	-0.070594	0.857437	-0.223627	-0.224866	-0.050696	30.2197	-0.222369	-303.027	0.000167	NaN
1082	1.000000	0.866723	7.37564e+06	-54239.1	1055.82	-29744	0.000000	0.000000	6.867116	-0.000263	NaN	0.000000	0.001639	0.001700	28.0806	0.060503	0.002030	29.8092	139.474	-168.001	-0.010784	0.865381	-0.215580	-0.216923	-0.000263	29.8092	-0.215574	-235.905	1.116035E-6	NaN
1082	1.000000	0.874680	7.37564e+06	-54239.1	1055.82	-29744	0.000000	0.000000	6.875074	0.035901	NaN	0.000000	0.001621	0.001725	28.0803	0.017744	0.001895	9.363346	100.439	-166.276	0.130280	0.873372	-0.207623	-0.208931	0.035901	9.363346	-0.210499	-195.387	-0.000184	NaN
1082	1.000000	0.882716	7.37564e+06	-54239.1	1055.82	-29744	0.000000	0.000000	6.883108	-0.022614	NaN	0.000000	0.001611	0.001705	28.0818	0.040639	0.002159	18.8233	14.2211	-165.559	0.016293	0.881432	-0.199587	-0.200872	-0.022614	18.8233	-0.198686	-125.34	0.000180	NaN
1082	1.000000	0.890692	7.37564e+06	-54239.1	1055.82	-29744	0.000000	0.000000	6.891088	0.083031	NaN	0.000000	0.001675	0.001722	28.0816	0.005639	0.002051	2.749387	52.7414	-166.568	0.031011	0.889357	-0.191612	-0.192947	0.083031	2.749387	-0.214261	-224.713	-0.000369	NaN
1082	1.000000	0.898715	7.37564e+06	-54239.1	1055.82	-29744	0.000000	0.000000	6.899107	0.001910	NaN	0.000000	0.001629	0.001739	28.0815	0.108170	0.002044	52.9332	104.563	-159.518	-0.020280	0.897345	-0.183589	-0.184958	0.001910	52.9332	-0.183616	-70.2705	-2.718417E-5	NaN
1082	1.000000	0.906688	7.37564e+06	-54239.1	1055.82	-29744	0.000000	0.000000	6.907082	0.027278	NaN	0.000000	0.001625	0.001716	28.0816	0.091990	0.001997	46.0641	-142.1	-166.867	-0.057158	0.905390	-0.175615	-0.176913	0.027278	46.0641	-0.176059	-52.259	-0.000522	NaN
1082	1.000000	0.914709	7.37564e+06	-54239.1	1055.82	-29744	0.000000	0.000000	6.915098	-0.077071	NaN	0.000000	0.001660	0.001721	28.0813	0.045243	0.001967	23.0016	119.82	-166.815	-0.083228	0.913399	-0.167595	-0.168904	-0.077071	23.0016	-0.165082	-33.7085	0.002286	NaN
1082	1.000000	0.922755	7.37564e+06	-54239.1	1055.82	-29744	0.000000	0.000000	6.923148	0.015738	NaN	0.000000	0.001620	0.001731	28.0815	0.028390	0.002243	12.6572	42.8933	-166.046	0.060470	0.921389	-0.159549	-0.160914	0.015738	12.6572	-0.160481	-27.9597	-0.000563	NaN
1082	1.000000	0.930710	7.37564e+06	-54239.1	1055.82	-29744	0.000000	0.000000	6.931100	-0.069516	NaN	0.000000	0.001572	0.001738	28.0813	0.026402	0.002108	12.5223	-56.4101	-163.632	0.020331	0.929422	-0.151593	-0.152882	-0.069516	12.5223	-0.147430	-16.2541	0.004277	NaN
1082	1.000000	0.938723	7.37564e+06	-54239.1	1055.82	-29744	0.000000	0.000000	6.939116	-0.004981	NaN	0.000000	0.001577	0.001759	28.0813	0.054074	0.002033	26.5962	-62.5795	-166.851	-0.041734	0.937397	-0.143580	-0.144906	-0.004981	26.5962	-0.143440	-13.7161	0.000363	NaN
1082	1.000000	0.946729	7.37564e+06	-54239.1	1055.82	-29744	0.000000	0.000000	6.947120	-0.052724	NaN	0.000000	0.001598	0.001774	28.0812	0.161031	0.001944	82.8362	-98.4139	-170.62	0.004124	0.945419	-0.135574	-0.136885	-0.052724	82.8362	-0.135097	-9.552924	0.005519	NaN
1082	1.000000	0.954721	7.37564e+06	-54239.1	1055.82	-29744	0.000000	0.000000	6.955115	0.043746	NaN	0.000000	0.001609	0.001761	28.0813	0.046706	0.002062	22.6516	-66.4394	-164.971	0.074746	0.953405	-0.127582	-0.128898	0.043746	22.6516	-0.129031	-7.297166	-0.005995	NaN
1082	1.000000	0.962718	7.37564e+06	-54239.1	1055.82	-29744	0.000000	0.000000	6.963110	-0.018252	NaN	0.000000	0.001610	0.001707	28.0816	0.056644	0.001992	28.4427	-175.728	-163.678	-0.108414	0.961482	-0.119586	-0.120822	-0.018252	28.4427	-0.119104	-4.634177	0.003939	NaN
1082	1.000000	0.970726	7.37564e+06	-54239.1	1055.82	-29744	0.000000	0.000000	6.971117	-0.029430	NaN	0.000000	0.001588	0.001722	28.081	0.092664	0.002155	43.0087	-56.2989	-165.504	-0.033201	0.969427	-0.111578	-0.112877	-0.029430	43.0087	-0.111064	-3.164183	0.009301	NaN
1082	1.000000	0.978733	7.37564e+06	-54239.1	1055.82	-29744	0.000000	0.000000	6.979127	0.016406	NaN	0.000000	0.001629	0.001676	28.0813	0.087833	0.001891	46.4549	25.1507	-163.297	-0.024927	0.977451	-0.103570	-0.104852	0.016406	46.4549	-0.103835	-2.217830	-0.007397	NaN
1082	1.000000	0.986712	7.37564e+06	-54239.1	1055.82	-29744	0.000000	0.000000	6.987105	-0.001150	NaN	0.000000	0.001597	0.001682	28.0813	0.044169	0.002069	21.3525	125.112	-168.135	-0.017124	0.985423	-0.095591	-0.096880	-0.001150	21.3525	-0.095551	-1.451919	0.000792	NaN
1082	1.000000	0.994749	7.37564e+06	-54239.1	1055.82	-29744	0.000000	0.000000	6.995142	0.013445	NaN	0.000000	0.001605	0.001708	28.0811	0.104927	0.002019	51.9816	4.417342	-164.508	-0.020176	0.993426	-0.087555	-0.088877	0.013445	51.9816	-0.087749	-0.956371	-0.014059	NaN
1082	1.000000	1.002720	7.37564e+06	-54239.1	1055.82	-29744	0.000000	0.000000	7.003113	0.018344	NaN	0.000000	0.001618	0.001703	28.0816	0.011697	0.002058	5.682678	-91.0162	-165.55	-0.016864	1.001400	-0.079584	-0.080903	0.018344	5.682678	-0.082005	-0.694195	-0.026424	NaN
1082	1.000000	1.010721	7.37564e+06	-54239.1	1055.82	-29744	0.000000	0.000000	7.011116	0.057527	NaN	0.000000	0.001600	0.001690	28.0813	0.079638	0.001974	40.3437	43.428	-169.155	-0.013712	1.009474	-0.071582	-0.072830	0.057527	40.3437	-0.072652	-0.401113	-0.143419	NaN
1082	1.000000	1.018770	7.37564e+06	-54239.1	1055.82	-29744	0.000000	0.000000	7.019161	-0.047112	NaN	0.000000	0.001576	0.001704	28.0801	0.056219	0.002031	27.6772	169.109	-163.157	-0.058552	1.017496	-0.063533	-0.064807	-0.047112	27.6772	-0.062256	-0.208806	0.225627	NaN
1082	1.000000	1.026771	7.37564e+06	-54239.1	1055.82	-29744	0.000000	0.000000	7.027164	0.011127	NaN	0.000000	0.001562	0.001742	28.08	0.027727	0.001914	14.4868	-102.274	-166.187	-0.077975	1.025461	-0.055533	-0.056842	0.011127	14.4868	-0.056109	-0.138839	-0.080140	NaN
1082	1.000000	1.034770	7.37564e+06	-54239.1	1055.82	-29744	0.000000	0.000000	7.035162	-0.009322	NaN	0.000000	0.001560	0.001732	28.0801	0.069312	0.001896	36.5572	65.9008	-168.124	-0.048861	1.033444	-0.047534	-0.048859	-0.009322	36.5572	-0.047342	-0.075775	0.123022	NaN
1082	1.000000	1.042786	7.37564e+06	-54239.1	1055.82	-29744	0.000000	0.000000	7.043179	0.000292	NaN	0.000000	0.001587	0.001734	28.0803	0.092323	0.002010	45.9312	-122.089	-163.624	0.039556	1.041479	-0.039517	-0.040824	0.000292	45.9312	-0.039522	-0.043737	-0.006670	NaN
1082	1.000000	1.050779	7.37564e+06	-54239.1	1055.82	-29744	0.000000	0.000000	7.051171	-0.022033	NaN	0.000000	0.001594	0.001716	28.0801	0.117992	0.001984	59.4827	-168.983	-167.132	-0.047773	1.049405	-0.031524	-0.032898	-0.022033	59.4827	-0.031246	-0.024944	0.883313	NaN
1082	1.000000	1.058792	7.37564e+06	-54239.1	1055.82	-29744	0.000000	0.000000	7.059183	-0.044372	NaN	0.000000	0.001548	0.001720	28.0801	0.057047	0.001912	29.8377	-28.0754	-165.941	-0.040029	1.057432	-0.023512	-0.024871	-0.044372	29.8377	-0.022396	-0.014454	3.069980	NaN
1082	1.000000	1.066790	7.37564e+06	-54239.1	1055.82	-29744	0.000000	0.000000	7.067182	-0.023199	NaN	0.000000	0.001557	0.001724	28.0801	0.029128	0.002010	14.4949	162.221	-163.967	-0.001360	1.065457	-0.015513	-0.016846	-0.023199	14.4949	-0.014313	-0.008867	2.616336	NaN
1082	1.000000	1.074781	7.37564e+06	-54239.1	1055.82	-29744	0.000000	0.000000	7.075173	-0.023475	NaN	0.000000	0.001575	0.001705	28.0798	0.090650	0.002047	44.29	-134.377	-165.795	-0.004046	1.073440	-0.007522	-0.008863	-0.023475	44.29	-0.007125	-0.004715	4.979170	NaN
1082	1.000000	1.082769	7.37564e+06	-54239.1	1055.82	-29744	0.000000	0.000000	7.083206	1.070834	NaN	0.000000	0.001514	0.001720	28.0802	1.715168	0.001838	932.927	2.453919	-165.5	0.254850	1.081466	0.000466	-0.000837	1.070834	932.927	-0.000395	-0.000293	-3655.84	NaN
1082	2.000000	1.090191	7.37564e+06	-54239.1	1055.82	-29744	0.000000	0.000000	7.090929	8.391225	NaN	0.000000	0.001547	0.001719	28.0801	8.723592	0.001608	5424.21	13.3967	-175.621	8.058838	1.089378	0.007888	0.007075	8.391225	5424.21	0.006727	0.005766	1455.35	65265.1
1082	2.000000	1.092325	7.37564e+06	-54239.1	1055.82	-29744	0.000000	0.000000	7.093173	11.0747	NaN	0.000000	0.001556	0.001679	28.0808	11.7265	0.001825	6425.85	7.445732	-174.007	10.7455	1.092102	0.010021	0.009798	11.0747	6425.85	0.008729	0.007803	1419.37	66463.6
1082	2.000000	1.094366	7.37564e+06	-54239.1	1055.82	-29744	0.000000	0.000000	7.095383	15.1742	NaN	0.000000	0.001539	0.001696	28.0802	14.0961	0.001678	8402.09	8.112267	-176.481	14.4968	1.094030	0.012063	0.011727	15.1742	8402.09	0.010708	0.009979	1520.58	76844.4
1082	2.000000	1.096323	7.37564e+06	-54239.1	1055.82	-29744	0.000000	0.000000	7.097469	18.3124	NaN	0.000000	0.001559	0.001703	28.0804	15.6855	0.001630	9622.29	4.677728	-175.079	18.0466	1.096032	0.014020	0.013728	18.3124	9622.29	0.012593	0.012208	1500.06	79567.1
1082	2.000000	1.098328	7.37564e+06	-54239.1	1055.82	-29744	0.000000	0.000000	7.099590	21.1114	NaN	0.000000	0.001536	0.001719	28.0802	18.4401	0.001794	10280.4	5.576298	-174.052	22.2981	1.098004	0.016025	0.015700	21.1114	10280.4	0.014485	0.014605	1445.52	77720.6
1082	2.000000	1.100319	7.37564e+06	-54239.1	1055.82	-29744	0.000000	0.000000	7.101805	26.5732	NaN	0.000000	0.001566	0.001699	28.0804	19.8932	0.001571	12659	1.227215	-173.548	26.8168	1.100024	0.018016	0.017721	26.5732	12659	0.016442	0.017256	1539.93	88044
1082	2.000000	1.102317	7.37564e+06	-54239.1	1055.82	-29744	0.000000	0.000000	7.103918	29.3775	NaN	0.000000	0.001584	0.001702	28.0816	22.6755	0.001740	13029.9	5.678223	-177.067	29.7324	1.102030	0.020014	0.019727	29.3775	13029.9	0.018323	0.019975	1470.73	84230.9
1082	2.000000	1.104326	7.37564e+06	-54239.1	1055.82	-29744	0.000000	0.000000	7.106082	33.1295	NaN	0.000000	0.001565	0.001686	28.0803	24.7034	0.001989	12418.8	8.905513	-177.97	33.7142	1.103980	0.022023	0.021676	33.1295	12418.8	0.020022	0.022577	1467.4	75512.4
1082	2.000000	1.106273	7.37564e+06	-54239.1	1055.82	-29744	0.000000	0.000000	7.108183	36.8744	NaN	0.000000	0.001555	0.001694	28.0817	26.7497	0.001700	15732.5	7.818408	178.071	36.4696	1.106014	0.023970	0.023711	36.8744	15732.5	0.022212	0.026139	1410.73	88905.7
1082	2.000000	1.108276	7.37564e+06	-54239.1	1055.82	-29744	0.000000	0.000000	7.110419	42.5372	NaN	0.000000	0.001564	0.001652	28.0816	29.204	0.001812	16119.1	0.331858	-175.015	41.4454	1.107987	0.025973	0.025684	42.5372	16119.1	0.023994	0.029210	1456.25	86168.4
1082	2.000000	1.110221	7.37564e+06	-54239.1	1055.82	-29744	0.000000	0.000000	7.112548	47.0327	NaN	0.000000	0.001541	0.001700	28.0815	31.0822	0.001774	17523.1	6.003478	178.24	45.0243	1.109959	0.027917	0.027655	47.0327	17523.1	0.025904	0.032682	1439.12	88558.8
1082	2.000000	1.112292	7.37564e+06	-54239.1	1055.82	-29744	0.000000	0.000000	7.114973	55.628	NaN	0.000000	0.001562	0.001682	28.0821	33.2586	0.001798	18492.9	5.339704	179.808	56.2809	1.111966	0.029988	0.029663	55.628	18492.9	0.027732	0.036175	1537.76	88833.1
1082	2.000000	1.114280	7.37564e+06	-54239.1	1055.82	-29744	0.000000	0.000000	7.117176	60.8566	NaN	0.000000	0.001563	0.001693	28.0817	34.7608	0.001858	18707.9	2.217525	-176.014	60.369	1.114001	0.031977	0.031698	60.8566	18707.9	0.029537	0.039790	1529.44	85686
1082	2.000000	1.116232	7.37564e+06	-54239.1	1055.82	-29744	0.000000	0.000000	7.119334	65.8673	NaN	0.000000	0.001588	0.001720	28.0819	36.6852	0.001843	19909.8	3.863769	-179.188	63.7689	1.115878	0.033928	0.033575	65.8673	19909.8	0.031447	0.043796	1503.95	86920.2
1082	2.000000	1.118231	7.37564e+06	-54239.1	1055.82	-29744	0.000000	0.000000	7.121529	70.6395	NaN	0.000000	0.001596	0.001704	28.0817	39.2847	0.001808	21727.5	5.351956	176.916	69.461	1.118031	0.035927	0.035728	70.6395	21727.5	0.033489	0.048286	1462.94	90338.3
1082	2.000000	1.120228	7.37564e+06	-54239.1	1055.82	-29744	0.000000	0.000000	7.123825	77.9006	NaN	0.000000	0.001565	0.001658	28.0818	40.0511	0.001659	24143.2	4.845959	176.601	75.4248	1.119867	0.037925	0.037564	77.9006	24143.2	0.035505	0.052928	1471.83	95879.4
1082	2.000000	1.122227	7.37564e+06	-54239.1	1055.82	-29744	0.000000	0.000000	7.126210	87.2617	NaN	0.000000	0.001567	0.001696	28.0818	42.1435	0.001840	22904.8	5.598895	177.534	86.7836	1.121977	0.039924	0.039674	87.2617	22904.8	0.037067	0.056668	1539.88	87908.7
1082	2.000000	1.124256	7.37564e+06	-54239.1	1055.82	-29744	0.000000	0.000000	7.128530	94.3524	NaN	0.000000	0.001577	0.001679	28.0817	43.9924	0.001738	25319.3	5.856010	176.27	92.9371	1.123964	0.041953	0.041661	94.3524	25319.3	0.039158	0.061870	1525	92999.9
1082	2.000000	1.126230	7.37564e+06	-54239.1	1055.82	-29744	0.000000	0.000000	7.130922	104.528	NaN	0.000000	0.001539	0.001681	28.082	46.3783	0.001903	24375.8	10.4371	171.604	103.742	1.125919	0.043926	0.043616	104.528	24375.8	0.040710	0.065876	1586.73	86769.5
1082	2.000000	1.128199	7.37564e+06	-54239.1	1055.82	-29744	0.000000	0.000000	7.133191	111.814	NaN	0.000000	0.001581	0.001645	28.0815	47.1988	0.001690	27925.2	3.929061	177.311	110.109	1.127989	0.045896	0.045686	111.814	27925.2	0.042893	0.071718	1559.07	95269.6
1082	2.000000	1.130249	7.37564e+06	-54239.1	1055.82	-29744	0.000000	0.000000	7.135699	122.957	NaN	0.000000	0.001596	0.001701	28.0815	48.7265	0.001681	28982.7	5.240839	175.256	122.435	1.129910	0.047946	0.047606	122.957	28982.7	0.044764	0.076918	1598.55	95476.7
1082	2.000000	1.132233	7.37564e+06	-54239.1	1055.82	-29744	0.000000	0.000000	7.137889	127.95	NaN	0.000000	0.001581	0.001676	28.0816	52.0129	0.001754	29647.6	6.307659	174.357	127.006	1.131867	0.049930	0.049564	127.95	29647.6	0.046693	0.082466	1551.54	94324.5
1082	2.000000	1.134307	7.37564e+06	-54239.1	1055.82	-29744	0.000000	0.000000	7.140277	135.589	NaN	0.000000	0.001555	0.001697	28.0818	53.9372	0.001821	29617	7.390596	174.416	135.507	1.133821	0.052004	0.051518	135.589	29617	0.048571	0.088046	1539.98	91192.5
1082	2.000000	1.136206	7.37564e+06	-54239.1	1055.82	-29744	0.000000	0.000000	7.142505	143.599	NaN	0.000000	0.001551	0.001687	28.0818	55.1951	0.001672	33004.2	6.925344	172.901	140.805	1.135837	0.053903	0.053534	143.599	33004.2	0.050639	0.094400	1521.17	98142.2
1082	2.000000	1.138159	7.37564e+06	-54239.1	1055.82	-29744	0.000000	0.000000	7.144790	151.641	NaN	0.000000	0.001537	0.001691	28.0814	57.9181	0.001736	33358.3	4.610985	174.249	148.703	1.137969	0.055856	0.055665	151.641	33358.3	0.052447	0.100126	1514.5	96317.3
1082	2.000000	1.140219	7.37564e+06	-54239.1	1055.82	-29744	0.000000	0.000000	7.147237	161.059	NaN	0.000000	0.001602	0.001697	28.0803	59.1942	0.002001	29578.2	3.947643	176.967	161.139	1.139910	0.057916	0.057606	161.059	29578.2	0.053832	0.104626	1539.38	83546.2
1082	2.000000	1.142218	7.37564e+06	-54239.1	1055.82	-29744	0.000000	0.000000	7.149649	171.086	NaN	0.000000	0.001570	0.001675	28.0803	61.9504	0.001774	34915.9	2.807799	175.97	169.902	1.141849	0.059915	0.059546	171.086	34915.9	0.056240	0.112672	1518.44	95035.9
1082	2.000000	1.144287	7.37564e+06	-54239.1	1055.82	-29744	0.000000	0.000000	7.152031	178.739	NaN	0.000000	0.001571	0.001692	28.0803	62.6599	0.001775	35301.3	-1.528481	-178.882	177.998	1.143893	0.061983	0.061590	178.739	35301.3	0.058186	0.119383	1497.19	93345.2
1082	2.000000	1.146228	7.37564e+06	-54239.1	1055.82	-29744	0.000000	0.000000	7.154555	192.876	NaN	0.000000	0.001589	0.001627	28.0804	64.1016	0.001752	36597.1	0.448279	178.517	191.88	1.145937	0.063925	0.063634	192.876	36597.1	0.059972	0.125708	1534.32	94305.6
1082	2.000000	1.148194	7.37564e+06	-54239.1	1055.82	-29744	0.000000	0.000000	7.156865	201.263	NaN	0.000000	0.001531	0.001709	28.08	68.4527	0.001888	36261.1	7.337936	171.821	197.363	1.147919	0.065891	0.065616	201.263	36261.1	0.061728	0.132077	1523.83	91159.3
1082	2.000000	1.150244	7.37564e+06	-54239.1	1055.82	-29744	0.000000	0.000000	7.159439	214	NaN	0.000000	0.001586	0.001664	28.0803	68.2001	0.001713	39808.3	6.438494	172.426	214.327	1.149820	0.067941	0.067517	214	39808.3	0.063909	0.140197	1526.42	97135.4
1082	2.000000	1.152197	7.37564e+06	-54239.1	1055.82	-29744	0.000000	0.000000	7.161688	221.197	NaN	0.000000	0.001534	0.001669	28.0803	71.6675	0.001886	38000	4.940700	173.813	219.961	1.151940	0.069893	0.069637	221.197	38000	0.065528	0.146372	1511.2	90745.9
1082	2.000000	1.154225	7.37564e+06	-54239.1	1055.82	-29744	0.000000	0.000000	7.164243	234.018	NaN	0.000000	0.001562	0.001688	28.0803	73.5227	0.001861	39497.3	7.740659	170.927	231.403	1.153854	0.071921	0.071550	234.018	39497.3	0.067478	0.153979	1519.8	91962.4
1082	2.000000	1.156136	7.37564e+06	-54239.1	1055.82	-29744	0.000000	0.000000	7.166662	246.368	NaN	0.000000	0.001566	0.001672	28.0805	73.6224	0.001825	40350.2	2.800135	176.177	242.354	1.155802	0.073832	0.073498	246.368	40350.2	0.069253	0.161062	1529.64	91859.1
1082	2.000000	1.158167	7.37564e+06	-54239.1	1055.82	-29744	0.000000	0.000000	7.169052	255.077	NaN	0.000000	0.001587	0.001690	28.0801	76.3503	0.001839	41506.4	0.110067	177.761	252.575	1.157969	0.075863	0.075666	255.077	41506.4	0.071254	0.169228	1507.3	92183.2
1082	2.000000	1.160148	7.37564e+06	-54239.1	1055.82	-29744	0.000000	0.000000	7.171757	272.674	NaN	0.000000	0.001570	0.001676	28.0804	77.6869	0.001867	41605.1	3.461060	174.65	270.071	1.159876	0.077845	0.077572	272.674	41605.1	0.072930	0.176209	1547.44	90553.5
1082	2.000000	1.162232	7.37564e+06	-54239.1	1055.82	-29744	0.000000	0.000000	7.174277	283.285	NaN	0.000000	0.001673	0.001678	28.0802	80.0171	0.001886	42434.7	4.397259	174.534	286.292	1.161901	0.079928	0.079598	283.285	42434.7	0.074921	0.184682	1533.91	90215.7
1082	2.000000	1.164176	7.37564e+06	-54239.1	1055.82	-29744	0.000000	0.000000	7.176844	298.44	NaN	0.000000	0.001648	0.001661	28.0805	80.5479	0.001733	46482.6	3.717138	174.493	295.818	1.163758	0.081872	0.081454	298.44	46482.6	0.077057	0.193973	1538.56	96425.6
1082	2.000000	1.166100	7.37564e+06	-54239.1	1055.82	-29744	0.000000	0.000000	7.179216	309.321	NaN	0.000000	0.001627	0.001723	28.0805	81.737	0.001773	46097.3	3.650082	174.383	304.332	1.165852	0.083797	0.083549	309.321	46097.3	0.078764	0.201556	1534.67	93810.5
1082	2.000000	1.168145	7.37564e+06	-54239.1	1055.82	-29744	0.000000	0.000000	7.181498	315.09	NaN	0.000000	0.001616	0.001691	28.0802	85.3123	0.001818	46935	4.706119	172.237	311.431	1.167892	0.085842	0.085589	315.09	46935	0.080807	0.210804	1494.7	93396.4
1082	2.000000	1.170166	7.37564e+06	-54239.1	1055.82	-29744	0.000000	0.000000	7.184349	335.242	NaN	0.000000	0.001645	0.001728	28.0803	85.9191	0.001777	48354.6	7.484308	170.427	332.823	1.169723	0.087863	0.087419	335.242	48354.6	0.082663	0.219380	1528.13	94321.9
1082	2.000000	1.172168	7.37564e+06	-54239.1	1055.82	-29744	0.000000	0.000000	7.186900	348.617	NaN	0.000000	0.001594	0.001717	28.0802	87.7877	0.001779	49343.8	5.127581	172.061	347.815	1.171746	0.089865	0.089442	348.617	49343.8	0.084566	0.228334	1526.78	94345.2
1082	2.000000	1.174214	7.37564e+06	-54239.1	1055.82	-29744	0.000000	0.000000	7.189414	359.982	NaN	0.000000	0.001611	0.001682	28.0816	89.8512	0.001806	49752.2	5.006673	172.875	358.108	1.173755	0.091910	0.091452	359.982	49752.2	0.086484	0.237531	1515.52	93266.4
1082	2.000000	1.176302	7.37564e+06	-54239.1	1055.82	-29744	0.000000	0.000000	7.191699	364.76	NaN	0.000000	0.001598	0.001667	28.0815	91.8042	0.001731	53032.7	4.525374	172.404	373.264	1.175956	0.093999	0.093653	364.76	53032.7	0.088840	0.249062	1464.53	97087.6
1082	2.000000	1.178210	7.37564e+06	-54239.1	1055.82	-29744	0.000000	0.000000	7.194305	381.748	NaN	0.000000	0.001620	0.001656	28.0815	93.7635	0.001740	53876.3	3.529630	172.626	382.022	1.177984	0.095906	0.095680	381.748	53876.3	0.090592	0.257798	1480.8	96946.2
1082	2.000000	1.180211	7.37564e+06	-54239.1	1055.82	-29744	0.000000	0.000000	7.197036	399.496	NaN	0.000000	0.001618	0.001629	28.0815	95.1438	0.001728	55068.3	10.8787	166.007	398.913	1.179770	0.097907	0.097466	399.496	55068.3	0.092467	0.267303	1494.54	97313.6
1082	2.000000	1.182136	7.37564e+06	-54239.1	1055.82	-29744	0.000000	0.000000	7.199582	414.569	NaN	0.000000	0.001609	0.001714	28.0814	96.6979	0.001687	57316.2	2.189379	173.779	413.233	1.181842	0.099833	0.099539	414.569	57316.2	0.094408	0.277316	1494.93	99440.5
1082	2.000000	1.184239	7.37564e+06	-54239.1	1055.82	-29744	0.000000	0.000000	7.202307	429.704	NaN	0.000000	0.001596	0.001689	28.0816	100.865	0.001781	56640.2	10.4268	167.172	429.522	1.183702	0.101936	0.101399	429.704	56640.2	0.096246	0.286955	1497.46	96603.1
1082	2.000000	1.186064	7.37564e+06	-54239.1	1055.82	-29744	0.000000	0.000000	7.204938	449.302	NaN	0.000000	0.001567	0.001665	28.0816	101.758	0.001795	56678.4	6.600702	169.811	442.798	1.185605	0.103761	0.103302	449.302	56678.4	0.097816	0.295307	1521.47	95291.5
1082	2.000000	1.188091	7.37564e+06	-54239.1	1055.82	-29744	0.000000	0.000000	7.207531	463.056	NaN	0.000000	0.001523	0.001697	28.0817	102.42	0.001786	57359.3	-0.995903	177.369	459.084	1.187936	0.105788	0.105633	463.056	57359.3	0.099733	0.305663	1514.92	94788.5
1082	2.000000	1.188634	7.37564e+06	-54239.1	1055.82	-29744	0.000000	0.000000	7.208325	469.159	NaN	0.000000	0.001525	0.001693	28.0816	103.791	0.001836	56519	3.090035	-6.194683	465.469	1.188202	0.106331	0.105898	469.159	56519	0.100105	0.307692	1524.77	93091.4