File: remote_trans/data/nanoindenter/0828-1/data/Data_2025-08-06,11h17m57s/2025-07-22_16-23-58_1_589.txt
2025-07-22, 16:23:58, 1
Index	Phase	Displacement	Time	Pos X	Pos Y	Pos Z	Rot A	Rot B	Piezo Z	Force A	Force B	Gripper	Voltage A	Voltage B	Temperature	Amplitude force	Amplitude pos	Stiffness	Phase shift	Phase excitation	Force A raw	Displacement raw	HMax	HMax raw	Real Force	Real Stiffness	Contact Depth	Area	Hardness	Reduced Mod.
[#]	[#]	[um]	[s]	[um]	[um]	[um]	[m°]	[m°]	[um]	[uN]	[uN]	[V]	[V]	[V]	[°C]	[uN]	[um]	[N/m]	[°]	[°]	[uN]	[um]	[um]	[um]	[uN]	[N/m]	[um]	[um^2]	[MPa]	[MPa]
589	1.000000	0.002526	7.37081e+06	-47639.1	1005.82	-29765.2	0.000000	0.000000	6.002820	0.037773	NaN	0.000000	0.001538	0.001756	28.0811	0.058940	0.000960	61.368	93.3206	-158.79	0.073100	0.001230	-1.079509	-1.080805	0.037773	61.368	-1.079971	-2.698550E+14	-1.399747E-16	NaN
589	1.000000	0.010484	7.37081e+06	-47639.1	1005.82	-29765.2	0.000000	0.000000	6.010776	-0.001737	NaN	0.000000	0.001615	0.001759	28.0817	0.060827	0.000976	62.3394	-113.358	-162.199	0.078306	0.009135	-1.071552	-1.072901	-0.001737	62.3394	-1.071531	-2.078522E+14	8.354546E-18	NaN
589	1.000000	0.018430	7.37081e+06	-47639.1	1005.82	-29765.2	0.000000	0.000000	6.018723	0.009443	NaN	0.000000	0.001573	0.001747	28.0811	0.108912	0.001546	70.4603	-16.7194	-164.237	-0.022103	0.017155	-1.063606	-1.064881	0.009443	70.4603	-1.063706	-1.631655E+14	-5.787486E-17	NaN
589	1.000000	0.026489	7.37081e+06	-47639.1	1005.82	-29765.2	0.000000	0.000000	6.026780	-0.033698	NaN	0.000000	0.001613	0.001716	28.0811	0.102208	0.001808	56.5194	-50.6215	-164.927	0.001399	0.025137	-1.055547	-1.056899	-0.033698	56.5194	-1.055100	-1.250161E+14	2.695460E-16	NaN
589	1.000000	0.034438	7.37081e+06	-47639.1	1005.82	-29765.2	0.000000	0.000000	6.034728	-0.055304	NaN	0.000000	0.001617	0.001739	28.0812	0.029873	0.002000	14.9353	-81.0569	-163.439	0.006836	0.033115	-1.047598	-1.048920	-0.055304	14.9353	-1.044821	-9.094701E+13	6.080899E-16	NaN
589	1.000000	0.042465	7.37081e+06	-47639.1	1005.82	-29765.2	0.000000	0.000000	6.042755	-0.056621	NaN	0.000000	0.001628	0.001778	28.0811	0.024942	0.002008	12.4211	18.0423	-166.394	-0.058360	0.041130	-1.039571	-1.040905	-0.056621	12.4211	-1.036152	-6.953778E+13	8.142527E-16	NaN
589	1.000000	0.050454	7.37081e+06	-47639.1	1005.82	-29765.2	0.000000	0.000000	6.050747	0.033280	NaN	0.000000	0.001600	0.001720	28.0818	0.078553	0.001874	41.9154	47.9984	-163.101	-0.060371	0.049156	-1.031582	-1.032880	0.033280	41.9154	-1.032178	-6.148534E+13	-5.412658E-16	NaN
589	1.000000	0.058459	7.37081e+06	-47639.1	1005.82	-29765.2	0.000000	0.000000	6.058754	0.053755	NaN	0.000000	0.001602	0.001750	28.081	0.087932	0.001909	46.0571	-44.0244	-164.721	0.020073	0.057130	-1.023577	-1.024906	0.053755	46.0571	-1.024452	-4.840032E+13	-1.110643E-15	NaN
589	1.000000	0.066458	7.37081e+06	-47639.1	1005.82	-29765.2	0.000000	0.000000	6.066751	0.011832	NaN	0.000000	0.001614	0.001738	28.081	0.054901	0.001969	27.8887	-105.614	-167.637	-0.045056	0.065151	-1.015578	-1.016885	0.011832	27.8887	-1.015896	-3.713050E+13	-3.186655E-16	NaN
589	1.000000	0.074474	7.37081e+06	-47639.1	1005.82	-29765.2	0.000000	0.000000	6.074767	0.014569	NaN	0.000000	0.001636	0.001714	28.0811	0.041682	0.002015	20.6824	36.7587	-163.352	-0.020338	0.073144	-1.007561	-1.008892	0.014569	20.6824	-1.008090	-2.915207E+13	-4.997655E-16	NaN
589	1.000000	0.082461	7.37081e+06	-47639.1	1005.82	-29765.2	0.000000	0.000000	6.082755	0.030856	NaN	0.000000	0.001647	0.001719	28.0812	0.125831	0.002039	61.7105	-107.066	-164.141	0.020552	0.081122	-0.999575	-1.000913	0.030856	61.7105	-0.999950	-2.265138E+13	-1.362228E-15	NaN
589	1.000000	0.090446	7.37081e+06	-47639.1	1005.82	-29765.2	0.000000	0.000000	6.090741	0.049671	NaN	0.000000	0.001662	0.001703	28.081	0.067018	0.002016	33.2352	97.8851	-170.872	0.046819	0.089105	-0.991589	-0.992931	0.049671	33.2352	-0.992710	-1.809729E+13	-2.744645E-15	NaN
589	1.000000	0.098471	7.37081e+06	-47639.1	1005.82	-29765.2	0.000000	0.000000	6.098762	-0.030522	NaN	0.000000	0.001649	0.001747	28.081	0.047608	0.001988	23.9446	47.1983	-164.925	-0.022224	0.097238	-0.983565	-0.984798	-0.030522	23.9446	-0.982609	-1.322999E+13	2.307037E-15	NaN
589	1.000000	0.106489	7.37081e+06	-47639.1	1005.82	-29765.2	0.000000	0.000000	6.106779	-0.063424	NaN	0.000000	0.001588	0.001748	28.0812	0.105874	0.001987	53.294	-11.0549	-164.511	-0.012830	0.105197	-0.975547	-0.976838	-0.063424	53.294	-0.974654	-1.033665E+13	6.135866E-15	NaN
589	1.000000	0.114492	7.37081e+06	-47639.1	1005.82	-29765.2	0.000000	0.000000	6.114785	0.016227	NaN	0.000000	0.001557	0.001742	28.081	0.053351	0.001825	29.2377	-113.209	-167.103	-0.102401	0.113171	-0.967544	-0.968865	0.016227	29.2377	-0.967960	-8.397894E+12	-1.932320E-15	NaN
589	1.000000	0.122455	7.37081e+06	-47639.1	1005.82	-29765.2	0.000000	0.000000	6.122746	-0.036329	NaN	0.000000	0.001575	0.001746	28.0808	0.122009	0.002060	59.2283	163.78	-163.088	0.046808	0.121212	-0.959581	-0.960824	-0.036329	59.2283	-0.959121	-6.382830E+12	5.691704E-15	NaN
589	1.000000	0.130489	7.37081e+06	-47639.1	1005.82	-29765.2	0.000000	0.000000	6.130782	0.014348	NaN	0.000000	0.001602	0.001733	28.0797	0.045465	0.001933	23.5216	173.572	-164.18	-0.031470	0.129225	-0.951547	-0.952810	0.014348	23.5216	-0.952005	-5.117568E+12	-2.803746E-15	NaN
589	1.000000	0.138507	7.37081e+06	-47639.1	1005.82	-29765.2	0.000000	0.000000	6.138801	0.037981	NaN	0.000000	0.001547	0.001750	28.0796	0.064253	0.001938	33.1561	-157.38	-165.979	-0.023786	0.137136	-0.943529	-0.944900	0.037981	33.1561	-0.944388	-4.039573E+12	-9.402328E-15	NaN
589	1.000000	0.146469	7.37081e+06	-47639.1	1005.82	-29765.2	0.000000	0.000000	6.146760	-0.020009	NaN	0.000000	0.001558	0.001749	28.0801	0.039858	0.001946	20.4784	-36.6596	-165.946	-0.019737	0.145153	-0.935567	-0.936883	-0.020009	20.4784	-0.934834	-3.002184E+12	6.664944E-15	NaN
589	1.000000	0.154476	7.37081e+06	-47639.1	1005.82	-29765.2	0.000000	0.000000	6.154769	0.008711	NaN	0.000000	0.001570	0.001779	28.0798	0.029141	0.002113	13.7882	9.637525	-166.302	-0.014199	0.153232	-0.927559	-0.928804	0.008711	13.7882	-0.928033	-2.430258E+12	-3.584194E-15	NaN
589	1.000000	0.162506	7.37081e+06	-47639.1	1005.82	-29765.2	0.000000	0.000000	6.162800	0.024599	NaN	0.000000	0.001575	0.001743	28.0798	0.002306	0.002003	1.151197	60.0091	-164.794	0.062724	0.161210	-0.919530	-0.920826	0.024599	1.151197	-0.935556	-3.070251E+12	-8.012082E-15	NaN
589	1.000000	0.170533	7.37081e+06	-47639.1	1005.82	-29765.2	0.000000	0.000000	6.170825	-0.003279	NaN	0.000000	0.001566	0.001756	28.0797	0.048630	0.001893	25.6926	-3.284525	-163.274	0.008254	0.169184	-0.911503	-0.912851	-0.003279	25.6926	-0.911407	-1.449335E+12	2.262204E-15	NaN
589	1.000000	0.178501	7.37081e+06	-47639.1	1005.82	-29765.2	0.000000	0.000000	6.178794	-0.001583	NaN	0.000000	0.001588	0.001750	28.0798	0.065055	0.002149	30.2671	153.418	-164.9	-0.012923	0.177161	-0.903534	-0.904875	-0.001583	30.2671	-0.903495	-1.133160E+12	1.396550E-15	NaN
589	1.000000	0.186467	7.37081e+06	-47639.1	1005.82	-29765.2	0.000000	0.000000	6.186758	-0.035499	NaN	0.000000	0.001591	0.001754	28.08	0.022203	0.001900	11.688	-73.778	-165.098	0.004662	0.185222	-0.895568	-0.896814	-0.035499	11.688	-0.893291	-8.248849E+11	4.303556E-14	NaN
589	1.000000	0.194497	7.37081e+06	-47639.1	1005.82	-29765.2	0.000000	0.000000	6.194790	0.018844	NaN	0.000000	0.001580	0.001739	28.08	0.078297	0.002066	37.8945	99.3751	-162.715	0.075292	0.193189	-0.887539	-0.888847	0.018844	37.8945	-0.887912	-6.977218E+11	-2.700742E-14	NaN
589	1.000000	0.202514	7.37081e+06	-47639.1	1005.82	-29765.2	0.000000	0.000000	6.202808	0.043273	NaN	0.000000	0.001578	0.001769	28.0801	0.047886	0.002008	23.8475	18.7106	-166.524	0.045297	0.201178	-0.879522	-0.880857	0.043273	23.8475	-0.880883	-5.605875E+11	-7.719139E-14	NaN
589	1.000000	0.210535	7.37081e+06	-47639.1	1005.82	-29765.2	0.000000	0.000000	6.210829	0.031031	NaN	0.000000	0.001579	0.001770	28.08	0.045515	0.002067	22.0225	-99.3052	-170.001	0.020932	0.209204	-0.871501	-0.872832	0.031031	22.0225	-0.872557	-4.325559E+11	-7.173810E-14	NaN
589	1.000000	0.218540	7.37081e+06	-47639.1	1005.82	-29765.2	0.000000	0.000000	6.218834	0.044109	NaN	0.000000	0.001579	0.001756	28.0801	0.057292	0.001906	30.0546	-62.93	-166.717	0.132706	0.217243	-0.863496	-0.864793	0.044109	30.0546	-0.864597	-3.375441E+11	-1.306754E-13	NaN
589	1.000000	0.226528	7.37081e+06	-47639.1	1005.82	-29765.2	0.000000	0.000000	6.226821	0.005911	NaN	0.000000	0.001573	0.001765	28.0799	0.014478	0.001867	7.752694	-178.495	-167.204	0.072862	0.225155	-0.855508	-0.856881	0.005911	7.752694	-0.856080	-2.588530E+11	-2.283691E-14	NaN
589	1.000000	0.234500	7.37081e+06	-47639.1	1005.82	-29765.2	0.000000	0.000000	6.234791	-0.042323	NaN	0.000000	0.001597	0.001732	28.0798	0.035107	0.002067	16.9867	11.3382	-167.989	0.009783	0.233174	-0.847535	-0.848862	-0.042323	16.9867	-0.845667	-1.870911E+11	2.262166E-13	NaN
589	1.000000	0.242525	7.37081e+06	-47639.1	1005.82	-29765.2	0.000000	0.000000	6.242822	0.107930	NaN	0.000000	0.001596	0.001749	28.08	0.032352	0.001833	17.6545	81.903	-162.243	0.043333	0.241198	-0.839511	-0.840838	0.107930	17.6545	-0.844096	-1.781477E+11	-6.058456E-13	NaN
589	1.000000	0.250551	7.37081e+06	-47639.1	1005.82	-29765.2	0.000000	0.000000	6.250845	0.040913	NaN	0.000000	0.001555	0.001784	28.0798	0.064357	0.001997	32.2313	-89.9707	-162.873	0.077789	0.249250	-0.831485	-0.832786	0.040913	32.2313	-0.832437	-1.238252E+11	-3.304113E-13	NaN
589	1.000000	0.258539	7.37081e+06	-47639.1	1005.82	-29765.2	0.000000	0.000000	6.258833	0.046600	NaN	0.000000	0.001527	0.001785	28.0801	0.056800	0.002059	27.5831	-50.0319	-165.345	-0.087856	0.257243	-0.823497	-0.824792	0.046600	27.5831	-0.824764	-9.745599E+10	-4.781636E-13	NaN
589	1.000000	0.266539	7.37081e+06	-47639.1	1005.82	-29765.2	0.000000	0.000000	6.266831	-0.018505	NaN	0.000000	0.001523	0.001777	28.0813	0.118434	0.002021	58.612	-35.1199	-165.427	-0.066294	0.265245	-0.815496	-0.816791	-0.018505	58.612	-0.815260	-7.243038E+10	2.554851E-13	NaN
589	1.000000	0.274514	7.37081e+06	-47639.1	1005.82	-29765.2	0.000000	0.000000	6.274805	-0.026448	NaN	0.000000	0.001562	0.001765	28.0812	0.169167	0.001745	96.9695	-123.349	-162.21	-0.027133	0.273189	-0.807522	-0.808847	-0.026448	96.9695	-0.807318	-5.651640E+10	4.679735E-13	NaN
589	1.000000	0.282550	7.37081e+06	-47639.1	1005.82	-29765.2	0.000000	0.000000	6.282841	-0.037971	NaN	0.000000	0.001567	0.001772	28.0809	0.141020	0.002089	67.5044	91.5875	-164.706	0.068588	0.281264	-0.799486	-0.800772	-0.037971	67.5044	-0.799064	-4.366712E+10	8.695585E-13	NaN
589	1.000000	0.290535	7.37081e+06	-47639.1	1005.82	-29765.2	0.000000	0.000000	6.290828	0.006320	NaN	0.000000	0.001573	0.001758	28.0813	0.085689	0.002193	39.0776	92.6997	-165.139	0.028964	0.289263	-0.791500	-0.792773	0.006320	39.0776	-0.791622	-3.460255E+10	-1.826559E-13	NaN
589	1.000000	0.298539	7.37081e+06	-47639.1	1005.82	-29765.2	0.000000	0.000000	6.298831	0.007272	NaN	0.000000	0.001556	0.001800	28.0815	0.133616	0.002000	66.8144	71.627	-167.336	-0.006104	0.297263	-0.783497	-0.784773	0.007272	66.8144	-0.783579	-2.690653E+10	-2.702669E-13	NaN
589	1.000000	0.306563	7.37081e+06	-47639.1	1005.82	-29765.2	0.000000	0.000000	6.306857	0.051970	NaN	0.000000	0.001577	0.001768	28.0813	0.101007	0.002009	50.2843	65.209	-161.329	-0.040778	0.305219	-0.775473	-0.776817	0.051970	50.2843	-0.776248	-2.139163E+10	-2.429446E-12	NaN
589	1.000000	0.314560	7.37081e+06	-47639.1	1005.82	-29765.2	0.000000	0.000000	6.314852	0.007970	NaN	0.000000	0.001602	0.001806	28.081	0.019167	0.002015	9.514245	-31.2852	-165.262	-0.007040	0.313225	-0.767476	-0.768811	0.007970	9.514245	-0.768104	-1.657799E+10	-4.807430E-13	NaN
589	1.000000	0.322623	7.37081e+06	-47639.1	1005.82	-29765.2	0.000000	0.000000	6.322918	0.045010	NaN	0.000000	0.001616	0.001778	28.0808	0.011576	0.002013	5.751744	1.301246	-166.428	0.034907	0.321254	-0.759412	-0.760781	0.045010	5.751744	-0.765282	-1.517553E+10	-2.965990E-12	NaN
589	1.000000	0.330578	7.37081e+06	-47639.1	1005.82	-29765.2	0.000000	0.000000	6.330871	0.027829	NaN	0.000000	0.001591	0.001755	28.081	0.079352	0.002015	39.3745	23.9988	-163.765	-0.028722	0.329244	-0.751458	-0.752792	0.027829	39.3745	-0.751988	-1.000647E+10	-2.781053E-12	NaN
589	1.000000	0.338590	7.37081e+06	-47639.1	1005.82	-29765.2	0.000000	0.000000	6.338882	0.009777	NaN	0.000000	0.001586	0.001731	28.0814	0.146008	0.002129	68.5788	-7.322133	-169.094	0.006523	0.337289	-0.743446	-0.744747	0.009777	68.5788	-0.743553	-7.681518E+9	-1.272812E-12	NaN
589	1.000000	0.346559	7.37081e+06	-47639.1	1005.82	-29765.2	0.000000	0.000000	6.346853	0.026423	NaN	0.000000	0.001591	0.001782	28.0811	0.076785	0.002119	36.2384	-105.739	-164.677	0.086882	0.345249	-0.735476	-0.736786	0.026423	36.2384	-0.736023	-6.065734E+9	-4.356191E-12	NaN
589	1.000000	0.354569	7.37081e+06	-47639.1	1005.82	-29765.2	0.000000	0.000000	6.354862	0.034261	NaN	0.000000	0.001568	0.001744	28.0813	0.089330	0.002017	44.2993	84.9114	-163.687	-0.056303	0.353297	-0.727467	-0.728739	0.034261	44.2993	-0.728047	-4.722726E+9	-7.254556E-12	NaN
589	1.000000	0.362568	7.37081e+06	-47639.1	1005.82	-29765.2	0.000000	0.000000	6.362862	0.019313	NaN	0.000000	0.001598	0.001747	28.081	0.084358	0.001940	43.4889	-73.9468	-168.168	-0.011469	0.361298	-0.719467	-0.720738	0.019313	43.4889	-0.719800	-3.645459E+9	-5.297864E-12	NaN
589	1.000000	0.370595	7.37081e+06	-47639.1	1005.82	-29765.2	0.000000	0.000000	6.370887	-0.000929	NaN	0.000000	0.001593	0.001740	28.081	0.070954	0.001868	37.9898	-162.256	-166.412	0.035195	0.369252	-0.711441	-0.712784	-0.000929	37.9898	-0.711423	-2.801985E+9	3.314628E-13	NaN
589	1.000000	0.378600	7.37081e+06	-47639.1	1005.82	-29765.2	0.000000	0.000000	6.378895	0.063741	NaN	0.000000	0.001666	0.001757	28.0809	0.078747	0.002033	38.7332	134.134	-164.453	0.014378	0.377269	-0.703436	-0.704767	0.063741	38.7332	-0.704670	-2.266205E+9	-2.812664E-11	NaN
589	1.000000	0.386611	7.37081e+06	-47639.1	1005.82	-29765.2	0.000000	0.000000	6.386905	0.057251	NaN	0.000000	0.001610	0.001747	28.0809	0.028326	0.002051	13.812	-99.2914	-163.958	0.010773	0.385302	-0.695425	-0.696734	0.057251	13.812	-0.698534	-1.868572E+9	-3.063896E-11	NaN
589	1.000000	0.394613	7.37081e+06	-47639.1	1005.82	-29765.2	0.000000	0.000000	6.394904	-0.022601	NaN	0.000000	0.001579	0.001724	28.0812	0.037434	0.002007	18.6538	45.9028	-166.038	0.026098	0.393283	-0.687423	-0.688753	-0.022601	18.6538	-0.686514	-1.280194E+9	1.765444E-11	NaN
589	1.000000	0.402581	7.37081e+06	-47639.1	1005.82	-29765.2	0.000000	0.000000	6.402870	-0.070085	NaN	0.000000	0.001610	0.001738	28.0797	0.064503	0.002064	31.249	41.4876	-162.866	-0.104853	0.401346	-0.679455	-0.680690	-0.070085	31.249	-0.677773	-9.721831E+8	7.209066E-11	NaN
589	1.000000	0.410611	7.37081e+06	-47639.1	1005.82	-29765.2	0.000000	0.000000	6.410906	0.072803	NaN	0.000000	0.001619	0.001762	28.0796	0.132464	0.002019	65.6153	-88.3292	-162.922	0.098669	0.409303	-0.671425	-0.672733	0.072803	65.6153	-0.672257	-8.171112E+8	-8.909788E-11	NaN
589	1.000000	0.418590	7.37081e+06	-47639.1	1005.82	-29765.2	0.000000	0.000000	6.418881	-0.029431	NaN	0.000000	0.001613	0.001808	28.0796	0.034398	0.001976	17.4071	-34.652	-166.853	-0.017884	0.417316	-0.663446	-0.664719	-0.029431	17.4071	-0.662178	-5.947019E+8	4.948813E-11	NaN
589	1.000000	0.426637	7.37081e+06	-47639.1	1005.82	-29765.2	0.000000	0.000000	6.426926	-0.073060	NaN	0.000000	0.001595	0.001784	28.0798	0.084178	0.001945	43.289	78.1575	-167.423	-0.026078	0.425289	-0.655399	-0.656746	-0.073060	43.289	-0.654133	-4.614083E+8	1.583420E-10	NaN
589	1.000000	0.434647	7.37081e+06	-47639.1	1005.82	-29765.2	0.000000	0.000000	6.434939	0.000924	NaN	0.000000	0.001615	0.001803	28.0798	0.016348	0.001969	8.302727	147.862	-168.084	-0.008141	0.433339	-0.647389	-0.648697	0.000924	8.302727	-0.647472	-3.739241E+8	-2.470252E-12	NaN
589	1.000000	0.442600	7.37081e+06	-47639.1	1005.82	-29765.2	0.000000	0.000000	6.442894	0.039587	NaN	0.000000	0.001607	0.001801	28.0798	0.057553	0.001929	29.8415	-101.29	-167.193	0.011050	0.441303	-0.639436	-0.640733	0.039587	29.8415	-0.640431	-2.993674E+8	-1.322352E-10	NaN
589	1.000000	0.450617	7.37081e+06	-47639.1	1005.82	-29765.2	0.000000	0.000000	6.450907	-0.055663	NaN	0.000000	0.001653	0.001733	28.0798	0.085550	0.002053	41.6775	-177.548	-167.482	-0.049512	0.449269	-0.631419	-0.632767	-0.055663	41.6775	-0.630417	-2.181470E+8	2.551624E-10	NaN
589	1.000000	0.458644	7.37081e+06	-47639.1	1005.82	-29765.2	0.000000	0.000000	6.458938	0.041251	NaN	0.000000	0.001680	0.001797	28.0796	0.034385	0.001949	17.6439	-130.548	-165.501	0.052855	0.457398	-0.623392	-0.624638	0.041251	17.6439	-0.625146	-1.846489E+8	-2.234021E-10	NaN
589	1.000000	0.466636	7.37081e+06	-47639.1	1005.82	-29765.2	0.000000	0.000000	6.466930	0.036878	NaN	0.000000	0.001620	0.001726	28.0797	0.088042	0.002087	42.1762	131.361	-165.392	-0.023191	0.465341	-0.615400	-0.616695	0.036878	42.1762	-0.616055	-1.384855E+8	-2.662975E-10	NaN
589	1.000000	0.474605	7.37081e+06	-47639.1	1005.82	-29765.2	0.000000	0.000000	6.474896	-0.032273	NaN	0.000000	0.001596	0.001742	28.0796	0.035472	0.002108	16.829	101.456	-169.6	0.082921	0.473317	-0.607431	-0.608719	-0.032273	16.829	-0.605993	-1.006867E+8	3.205255E-10	NaN
589	1.000000	0.482632	7.37081e+06	-47639.1	1005.82	-29765.2	0.000000	0.000000	6.482923	-0.046479	NaN	0.000000	0.001587	0.001756	28.0796	0.047313	0.002030	23.3105	-91.768	-168.005	-0.098277	0.481360	-0.599403	-0.600676	-0.046479	23.3105	-0.597908	-7.791940E+7	5.965021E-10	NaN
589	1.000000	0.490626	7.37081e+06	-47639.1	1005.82	-29765.2	0.000000	0.000000	6.490921	0.064085	NaN	0.000000	0.001597	0.001747	28.0795	0.094821	0.002140	44.3135	-119.896	-166.882	0.034853	0.489377	-0.591410	-0.592659	0.064085	44.3135	-0.592494	-6.562226E+7	-9.765698E-10	NaN
589	1.000000	0.498667	7.37081e+06	-47639.1	1005.82	-29765.2	0.000000	0.000000	6.498962	0.063394	NaN	0.000000	0.001595	0.001749	28.0795	0.063321	0.001967	32.1961	-13.9319	-164.914	0.007631	0.497334	-0.583369	-0.584702	0.063394	32.1961	-0.584846	-5.147363E+7	-1.231575E-9	NaN
589	1.000000	0.506633	7.37081e+06	-47639.1	1005.82	-29765.2	0.000000	0.000000	6.506926	0.024020	NaN	0.000000	0.001610	0.001728	28.0799	0.059684	0.001975	30.2213	-21.6742	-162.772	0.021424	0.505314	-0.575403	-0.576722	0.024020	30.2213	-0.575999	-3.885894E+7	-6.181258E-10	NaN
589	1.000000	0.514653	7.37081e+06	-47639.1	1005.82	-29765.2	0.000000	0.000000	6.514945	-0.009570	NaN	0.000000	0.001592	0.001747	28.0797	0.063626	0.001989	31.9845	4.562156	-164.48	-0.017357	0.513317	-0.567383	-0.568719	-0.009570	31.9845	-0.567158	-2.933319E+7	3.262437E-10	NaN
589	1.000000	0.522659	7.37081e+06	-47639.1	1005.82	-29765.2	0.000000	0.000000	6.522953	0.024824	NaN	0.000000	0.001586	0.001770	28.0798	0.141293	0.002025	69.7582	163.073	-163.191	0.026403	0.521347	-0.559377	-0.560688	0.024824	69.7582	-0.559643	-2.309118E+7	-1.075049E-9	NaN
589	1.000000	0.530688	7.37081e+06	-47639.1	1005.82	-29765.2	0.000000	0.000000	6.530983	0.071113	NaN	0.000000	0.001610	0.001732	28.0796	0.067879	0.001997	33.9841	-176.751	-163.615	0.045124	0.529349	-0.551348	-0.552686	0.071113	33.9841	-0.552917	-1.863622E+7	-3.815864E-9	NaN
589	1.000000	0.538682	7.37081e+06	-47639.1	1005.82	-29765.2	0.000000	0.000000	6.538977	0.061021	NaN	0.000000	0.001641	0.001754	28.0807	0.124225	0.002055	60.4381	84.1856	-166.879	0.060424	0.537370	-0.543354	-0.544666	0.061021	60.4381	-0.544111	-1.407212E+7	-4.336314E-9	NaN
589	1.000000	0.546674	7.37081e+06	-47639.1	1005.82	-29765.2	0.000000	0.000000	6.546964	-0.066812	NaN	0.000000	0.001568	0.001757	28.0808	0.087593	0.001993	43.9454	-126.524	-168.17	-0.009337	0.545316	-0.535361	-0.536720	-0.066812	43.9454	-0.534221	-1.026075E+7	6.511398E-9	NaN
589	1.000000	0.554675	7.37081e+06	-47639.1	1005.82	-29765.2	0.000000	0.000000	6.554967	-0.006418	NaN	0.000000	0.001572	0.001757	28.0806	0.077556	0.001950	39.7778	70.9748	-162.114	0.054314	0.553383	-0.527361	-0.528652	-0.006418	39.7778	-0.527240	-8.20799e+06	7.819417E-10	NaN
589	1.000000	0.562655	7.37081e+06	-47639.1	1005.82	-29765.2	0.000000	0.000000	6.562946	-0.035493	NaN	0.000000	0.001553	0.001770	28.081	0.082353	0.001925	42.7907	-64.0232	-164.377	-0.019954	0.561327	-0.519380	-0.520709	-0.035493	42.7907	-0.518758	-6.25643e+06	5.672983E-9	NaN
589	1.000000	0.570670	7.37081e+06	-47639.1	1005.82	-29765.2	0.000000	0.000000	6.570966	0.094187	NaN	0.000000	0.001563	0.001754	28.081	0.053018	0.002016	26.3052	145.726	-162.414	0.063176	0.569348	-0.511366	-0.512688	0.094187	26.3052	-0.514051	-5.38053e+06	-1.750524E-8	NaN
589	1.000000	0.578680	7.37081e+06	-47639.1	1005.82	-29765.2	0.000000	0.000000	6.578972	-0.010754	NaN	0.000000	0.001602	0.001767	28.0811	0.046536	0.002036	22.86	8.836746	-162.557	0.001194	0.577345	-0.503355	-0.504691	-0.010754	22.86	-0.503003	-3.77484e+06	2.848752E-9	NaN
589	1.000000	0.586674	7.37081e+06	-47639.1	1005.82	-29765.2	0.000000	0.000000	6.586964	-0.063481	NaN	0.000000	0.001588	0.001757	28.081	0.040026	0.002121	18.8671	54.9774	-163.73	-0.011723	0.585386	-0.495362	-0.496650	-0.063481	18.8671	-0.492838	-2.72299e+06	2.331294E-8	NaN
589	1.000000	0.594677	7.37081e+06	-47639.1	1005.82	-29765.2	0.000000	0.000000	6.594969	-0.008894	NaN	0.000000	0.001571	0.001769	28.0809	0.047262	0.001883	25.1035	8.800869	-161.525	-0.008321	0.593368	-0.487359	-0.488668	-0.008894	25.1035	-0.487093	-2.26338e+06	3.929672E-9	NaN
589	1.000000	0.602689	7.37081e+06	-47639.1	1005.82	-29765.2	0.000000	0.000000	6.602981	-0.011946	NaN	0.000000	0.001591	0.001753	28.0809	0.112464	0.002156	52.1539	-63.2589	-165.212	-0.010195	0.601389	-0.479347	-0.480647	-0.011946	52.1539	-0.479175	-1.75379e+06	6.811687E-9	NaN
589	1.000000	0.610722	7.37081e+06	-47639.1	1005.82	-29765.2	0.000000	0.000000	6.611012	-0.048338	NaN	0.000000	0.001572	0.001761	28.081	0.082465	0.001984	41.572	-106.942	-160.514	-0.025639	0.609407	-0.471314	-0.472629	-0.048338	41.572	-0.470442	-1.32314e+06	3.653273E-8	NaN
589	1.000000	0.618669	7.37081e+06	-47639.1	1005.82	-29765.2	0.000000	0.000000	6.618964	0.056811	NaN	0.000000	0.001560	0.001770	28.081	0.088457	0.001973	44.8282	107.169	-163.896	-0.008546	0.617420	-0.463367	-0.464616	0.056811	44.8282	-0.464317	-1.08559e+06	-5.233204E-8	NaN
589	1.000000	0.626695	7.37081e+06	-47639.1	1005.82	-29765.2	0.000000	0.000000	6.626989	0.032246	NaN	0.000000	0.001582	0.001759	28.0809	0.083343	0.002018	41.304	-74.1095	-166.76	0.023939	0.625392	-0.455341	-0.456644	0.032246	41.304	-0.455926	-827463	-3.896919E-8	NaN
589	1.000000	0.634703	7.37081e+06	-47639.1	1005.82	-29765.2	0.000000	0.000000	6.634997	0.036778	NaN	0.000000	0.001608	0.001740	28.081	0.062971	0.001965	32.0514	-159.954	-162.995	-0.037561	0.633324	-0.447333	-0.448712	0.036778	32.0514	-0.448194	-644024	-5.710640E-8	NaN
589	1.000000	0.642712	7.37081e+06	-47639.1	1005.82	-29765.2	0.000000	0.000000	6.643004	-0.003379	NaN	0.000000	0.001566	0.001767	28.0809	0.072176	0.002013	35.8628	-19.5429	-164.786	-0.045694	0.641412	-0.439324	-0.440624	-0.003379	35.8628	-0.439253	-481749	7.014039E-9	NaN
589	1.000000	0.650697	7.37081e+06	-47639.1	1005.82	-29765.2	0.000000	0.000000	6.650988	-0.033955	NaN	0.000000	0.001548	0.001731	28.0809	0.120968	0.001952	61.9817	6.694043	-165.243	0.108838	0.649380	-0.431339	-0.432655	-0.033955	61.9817	-0.430928	-367444	9.240984E-8	NaN
589	1.000000	0.658724	7.37081e+06	-47639.1	1005.82	-29765.2	0.000000	0.000000	6.659019	0.056891	NaN	0.000000	0.001556	0.001777	28.0809	0.056780	0.001931	29.4076	-36.2232	-158.709	0.097376	0.657348	-0.423311	-0.424688	0.056891	29.4076	-0.424762	-300549	-1.892888E-7	NaN
589	1.000000	0.666720	7.37081e+06	-47639.1	1005.82	-29765.2	0.000000	0.000000	6.667014	0.059054	NaN	0.000000	0.001589	0.001750	28.081	0.037649	0.002067	18.2109	-179.456	-162.584	0.028435	0.665365	-0.415316	-0.416671	0.059054	18.2109	-0.417748	-239040	-2.470482E-7	NaN
589	1.000000	0.674694	7.37081e+06	-47639.1	1005.82	-29765.2	0.000000	0.000000	6.674986	-0.003730	NaN	0.000000	0.001607	0.001753	28.0802	0.098167	0.002091	46.9441	-8.070487	-161.411	-0.049808	0.673408	-0.407342	-0.408628	-0.003730	46.9441	-0.407282	-169721	2.197977E-8	NaN
589	1.000000	0.682743	7.37081e+06	-47639.1	1005.82	-29765.2	0.000000	0.000000	6.683036	-0.003240	NaN	0.000000	0.001534	0.001751	28.0795	0.075140	0.002066	36.3621	108.786	-163.835	-0.017133	0.681414	-0.399292	-0.400622	-0.003240	36.3621	-0.399226	-130301	2.486822E-8	NaN
589	1.000000	0.690715	7.37081e+06	-47639.1	1005.82	-29765.2	0.000000	0.000000	6.691008	0.016526	NaN	0.000000	0.001579	0.001762	28.0797	0.092549	0.001958	47.2746	63.4004	-166.737	0.092635	0.689345	-0.391321	-0.392691	0.016526	47.2746	-0.391583	-101346	-1.630649E-7	NaN
589	1.000000	0.698708	7.37081e+06	-47639.1	1005.82	-29765.2	0.000000	0.000000	6.699001	0.012853	NaN	0.000000	0.001614	0.001760	28.0795	0.048158	0.002019	23.8545	129.925	-164.052	-0.042926	0.697455	-0.383328	-0.384581	0.012853	23.8545	-0.383732	-78237.5	-1.642798E-7	NaN
589	1.000000	0.706722	7.37081e+06	-47639.1	1005.82	-29765.2	0.000000	0.000000	6.707014	0.001220	NaN	0.000000	0.001605	0.001769	28.0798	0.101811	0.002058	49.4747	-95.8966	-164.626	-0.006580	0.705421	-0.375314	-0.376615	0.001220	49.4747	-0.375333	-59272.4	-2.057765E-8	NaN
589	1.000000	0.714729	7.37081e+06	-47639.1	1005.82	-29765.2	0.000000	0.000000	6.715021	-0.021870	NaN	0.000000	0.001579	0.001765	28.0799	0.064882	0.002051	31.6411	141.43	-164.222	-0.100134	0.713451	-0.367307	-0.368585	-0.021870	31.6411	-0.366788	-44652.4	4.897816E-7	NaN
589	1.000000	0.722747	7.37081e+06	-47639.1	1005.82	-29765.2	0.000000	0.000000	6.723039	-0.011829	NaN	0.000000	0.001587	0.001774	28.0797	0.018999	0.002077	9.146922	161.465	-165.691	0.015152	0.721429	-0.359289	-0.360607	-0.011829	9.146922	-0.358319	-33692.5	3.510996E-7	NaN
589	1.000000	0.730739	7.37081e+06	-47639.1	1005.82	-29765.2	0.000000	0.000000	6.731033	0.054949	NaN	0.000000	0.001583	0.001711	28.0798	0.028697	0.002010	14.275	-133.173	-164.252	0.060772	0.729402	-0.351297	-0.352633	0.054949	14.275	-0.354184	-29354.5	-1.871911E-6	NaN
589	1.000000	0.738738	7.37081e+06	-47639.1	1005.82	-29765.2	0.000000	0.000000	6.739032	0.048469	NaN	0.000000	0.001589	0.001759	28.0796	0.014607	0.002122	6.884064	124.562	-162.215	0.113788	0.737440	-0.343298	-0.344596	0.048469	6.884064	-0.348579	-24342.7	-1.991106E-6	NaN
589	1.000000	0.746745	7.37081e+06	-47639.1	1005.82	-29765.2	0.000000	0.000000	6.747037	0.002620	NaN	0.000000	0.001556	0.001692	28.0799	0.060666	0.002092	29.0059	-41.772	-162.245	-0.013403	0.745390	-0.335291	-0.336646	0.002620	29.0059	-0.335359	-15625.2	-1.677046E-7	NaN
589	1.000000	0.754753	7.37081e+06	-47639.1	1005.82	-29765.2	0.000000	0.000000	6.755048	0.046303	NaN	0.000000	0.001536	0.001706	28.0796	0.060245	0.002054	29.3277	-8.182847	-162.216	0.052657	0.753471	-0.327282	-0.328565	0.046303	29.3277	-0.328466	-12387.5	-3.737895E-6	NaN
589	1.000000	0.762771	7.37081e+06	-47639.1	1005.82	-29765.2	0.000000	0.000000	6.763063	-0.001547	NaN	0.000000	0.001530	0.001707	28.0797	0.092826	0.001888	49.172	-72.9804	-163.989	0.003542	0.761466	-0.319265	-0.320570	-0.001547	49.172	-0.319241	-9067.11	1.706647E-7	NaN
589	1.000000	0.770751	7.37081e+06	-47639.1	1005.82	-29765.2	0.000000	0.000000	6.771044	-0.003042	NaN	0.000000	0.001557	0.001701	28.0798	0.129166	0.002027	63.7219	-169.56	-165.525	-0.028332	0.769433	-0.311284	-0.312603	-0.003042	63.7219	-0.311249	-6910.8	4.401377E-7	NaN
589	1.000000	0.778792	7.37081e+06	-47639.1	1005.82	-29765.2	0.000000	0.000000	6.779085	0.019333	NaN	0.000000	0.001574	0.001709	28.0795	0.069034	0.001881	36.6914	145.884	-169.195	0.126706	0.777459	-0.303244	-0.304577	0.019333	36.6914	-0.303639	-5330.22	-3.627043E-6	NaN
589	1.000000	0.786807	7.37081e+06	-47639.1	1005.82	-29765.2	0.000000	0.000000	6.787099	-0.006808	NaN	0.000000	0.001592	0.001711	28.0799	0.044978	0.002046	21.9858	-86.3727	-163.561	-0.085808	0.785435	-0.295229	-0.296601	-0.006808	21.9858	-0.294996	-3963.09	1.717766E-6	NaN
589	1.000000	0.794756	7.37081e+06	-47639.1	1005.82	-29765.2	0.000000	0.000000	6.795049	0.021141	NaN	0.000000	0.001608	0.001712	28.0796	0.050380	0.001908	26.4064	51.0059	-165.354	-0.056553	0.793453	-0.287280	-0.288583	0.021141	26.4064	-0.287881	-3101.19	-6.817141E-6	NaN
589	1.000000	0.802771	7.37081e+06	-47639.1	1005.82	-29765.2	0.000000	0.000000	6.803064	0.009043	NaN	0.000000	0.001594	0.001706	28.0799	0.093649	0.002088	44.8574	90.2717	-163.453	0.010597	0.801470	-0.279264	-0.280566	0.009043	44.8574	-0.279416	-2312.87	-3.909993E-6	NaN
589	1.000000	0.810788	7.37081e+06	-47639.1	1005.82	-29765.2	0.000000	0.000000	6.811078	-0.063135	NaN	0.000000	0.001575	0.001723	28.0804	0.100259	0.002085	48.0968	-10.4468	-165.772	-0.047659	0.809501	-0.271248	-0.272535	-0.063135	48.0968	-0.270263	-1680.9	3.756041E-5	NaN
589	1.000000	0.818745	7.37081e+06	-47639.1	1005.82	-29765.2	0.000000	0.000000	6.819038	0.029143	NaN	0.000000	0.001587	0.001688	28.081	0.092171	0.002096	43.9813	23.3643	-168.096	0.028432	0.817520	-0.263291	-0.264516	0.029143	43.9813	-0.263788	-1339.31	-2.175959E-5	NaN
589	1.000000	0.826782	7.37081e+06	-47639.1	1005.82	-29765.2	0.000000	0.000000	6.827076	0.038468	NaN	0.000000	0.001601	0.001719	28.081	0.127158	0.001890	67.2814	118.062	-167.094	0.079440	0.825482	-0.255254	-0.256554	0.038468	67.2814	-0.255682	-1006.04	-3.823643E-5	NaN
589	1.000000	0.834790	7.37081e+06	-47639.1	1005.82	-29765.2	0.000000	0.000000	6.835085	0.058945	NaN	0.000000	0.001586	0.001709	28.0808	0.067064	0.001884	35.5921	13.2696	-165.944	-0.061672	0.833500	-0.247246	-0.248536	0.058945	35.5921	-0.248488	-779.049	-7.566314E-5	NaN
589	1.000000	0.842784	7.37081e+06	-47639.1	1005.82	-29765.2	0.000000	0.000000	6.843076	-0.000135	NaN	0.000000	0.001600	0.001700	28.0809	0.028496	0.002122	13.4311	64.5343	-163.242	0.025503	0.841407	-0.239252	-0.240628	-0.000135	13.4311	-0.239244	-559.428	2.407847E-7	NaN
589	1.000000	0.850817	7.37081e+06	-47639.1	1005.82	-29765.2	0.000000	0.000000	6.851111	0.021067	NaN	0.000000	0.001584	0.001754	28.0807	0.091469	0.001961	46.6519	-61.1151	-169.261	0.027510	0.849475	-0.231218	-0.232561	0.021067	46.6519	-0.231557	-423.723	-4.971766E-5	NaN
589	1.000000	0.858778	7.37081e+06	-47639.1	1005.82	-29765.2	0.000000	0.000000	6.859074	0.078411	NaN	0.000000	0.001597	0.001736	28.081	0.019708	0.001864	10.5717	-116.097	-165.295	0.072674	0.857474	-0.223258	-0.224561	0.078411	10.5717	-0.228821	-383.602	-0.000204	NaN
589	1.000000	0.866798	7.37081e+06	-47639.1	1005.82	-29765.2	0.000000	0.000000	6.867091	0.008490	NaN	0.000000	0.001596	0.001792	28.0812	0.086330	0.002055	42.0108	107.287	-165.033	-0.025922	0.865477	-0.215237	-0.216559	0.008490	42.0108	-0.215389	-234.298	-3.623617E-5	NaN
589	1.000000	0.874798	7.37081e+06	-47639.1	1005.82	-29765.2	0.000000	0.000000	6.875090	0.002930	NaN	0.000000	0.001583	0.001765	28.0809	0.071075	0.002047	34.7188	63.1965	-167.825	-0.027352	0.873511	-0.207238	-0.208525	0.002930	34.7188	-0.207301	-173.393	-1.690001E-5	NaN
589	1.000000	0.882829	7.37081e+06	-47639.1	1005.82	-29765.2	0.000000	0.000000	6.883123	0.045988	NaN	0.000000	0.001599	0.001787	28.0812	0.038979	0.001924	20.2614	170.515	-162.157	-0.013952	0.881487	-0.199207	-0.200549	0.045988	20.2614	-0.200910	-136.344	-0.000337	NaN
589	1.000000	0.890801	7.37081e+06	-47639.1	1005.82	-29765.2	0.000000	0.000000	6.891092	-0.033119	NaN	0.000000	0.001585	0.001725	28.0808	0.045178	0.002053	22.0089	-159.401	-164.698	0.041909	0.889484	-0.191235	-0.192552	-0.033119	22.0089	-0.190106	-90.324	0.000367	NaN
589	1.000000	0.898801	7.37081e+06	-47639.1	1005.82	-29765.2	0.000000	0.000000	6.899095	0.039230	NaN	0.000000	0.001616	0.001753	28.0809	0.087643	0.002010	43.6109	-168.484	-166.464	-0.007932	0.897483	-0.183235	-0.184553	0.039230	43.6109	-0.183909	-71.0772	-0.000552	NaN
589	1.000000	0.906829	7.37081e+06	-47639.1	1005.82	-29765.2	0.000000	0.000000	6.907121	-0.018206	NaN	0.000000	0.001635	0.001764	28.0808	0.035493	0.002000	17.7459	146.393	-167.814	0.096851	0.905519	-0.175207	-0.176516	-0.018206	17.7459	-0.174437	-49.0126	0.000371	NaN
589	1.000000	0.914809	7.37081e+06	-47639.1	1005.82	-29765.2	0.000000	0.000000	6.915100	-0.031587	NaN	0.000000	0.001623	0.001712	28.0808	0.019675	0.001976	9.956695	-29.7604	-167.512	0.024454	0.913543	-0.167227	-0.168493	-0.031587	9.956695	-0.164847	-33.3905	0.000946	NaN
589	1.000000	0.922806	7.37081e+06	-47639.1	1005.82	-29765.2	0.000000	0.000000	6.923099	0.003576	NaN	0.000000	0.001581	0.001742	28.081	0.025974	0.002017	12.8752	159.15	-164.266	-0.021924	0.921496	-0.159229	-0.160540	0.003576	12.8752	-0.159438	-26.791	-0.000133	NaN
589	1.000000	0.930836	7.37081e+06	-47639.1	1005.82	-29765.2	0.000000	0.000000	6.931130	0.037309	NaN	0.000000	0.001584	0.001752	28.0809	0.044550	0.001969	22.6271	165.805	-161.677	-0.009424	0.929461	-0.151200	-0.152575	0.037309	22.6271	-0.152436	-20.0581	-0.001860	NaN
589	1.000000	0.938830	7.37081e+06	-47639.1	1005.82	-29765.2	0.000000	0.000000	6.939121	-0.016805	NaN	0.000000	0.001615	0.001771	28.0811	0.080902	0.001959	41.2953	-99.4864	-166.456	0.055356	0.937497	-0.143206	-0.144539	-0.016805	41.2953	-0.142901	-13.4033	0.001254	NaN
589	1.000000	0.946825	7.37081e+06	-47639.1	1005.82	-29765.2	0.000000	0.000000	6.947118	0.011416	NaN	0.000000	0.001616	0.001732	28.0802	0.061454	0.002050	29.9779	124.654	-163.785	-0.021921	0.945509	-0.135211	-0.136527	0.011416	29.9779	-0.135496	-9.722000	-0.001174	NaN
589	1.000000	0.954814	7.37081e+06	-47639.1	1005.82	-29765.2	0.000000	0.000000	6.955107	0.016827	NaN	0.000000	0.001612	0.001741	28.0796	0.086096	0.002094	41.1154	90.8404	-163.891	-0.008381	0.953512	-0.127221	-0.128523	0.016827	41.1154	-0.127528	-6.820015	-0.002467	NaN
589	1.000000	0.962843	7.37081e+06	-47639.1	1005.82	-29765.2	0.000000	0.000000	6.963135	-0.017642	NaN	0.000000	0.001568	0.001755	28.0796	0.081950	0.001909	42.926	102.578	-166.368	0.013347	0.961500	-0.119193	-0.120536	-0.017642	42.926	-0.118884	-4.586856	0.003846	NaN
589	1.000000	0.970849	7.37081e+06	-47639.1	1005.82	-29765.2	0.000000	0.000000	6.971141	-0.021592	NaN	0.000000	0.001581	0.001767	28.0795	0.026622	0.002006	13.27	-116.08	-163.774	-0.005431	0.969524	-0.111187	-0.112512	-0.021592	13.27	-0.109966	-3.000264	0.007197	NaN
589	1.000000	0.978851	7.37081e+06	-47639.1	1005.82	-29765.2	0.000000	0.000000	6.979144	0.011037	NaN	0.000000	0.001626	0.001752	28.0801	0.012565	0.001911	6.573608	138.377	-165.417	0.006526	0.977558	-0.103185	-0.104478	0.011037	6.573608	-0.104444	-2.286391	-0.004827	NaN
589	1.000000	0.986891	7.37081e+06	-47639.1	1005.82	-29765.2	0.000000	0.000000	6.987182	-0.021364	NaN	0.000000	0.001600	0.001769	28.0794	0.037490	0.002023	18.5274	1.486932	-164.51	-0.033530	0.985501	-0.095145	-0.096535	-0.021364	18.5274	-0.094280	-1.358254	0.015729	NaN
589	1.000000	0.994856	7.37081e+06	-47639.1	1005.82	-29765.2	0.000000	0.000000	6.995151	0.063975	NaN	0.000000	0.001616	0.001780	28.0797	0.024923	0.002063	12.0782	-66.9335	-162.581	0.038993	0.993547	-0.087180	-0.088489	0.063975	12.0782	-0.091153	-1.150180	-0.055621	NaN
589	1.000000	1.002820	7.37081e+06	-47639.1	1005.82	-29765.2	0.000000	0.000000	7.003113	0.013106	NaN	0.000000	0.001619	0.001784	28.0795	0.098837	0.002000	49.4251	108.183	-165.786	0.083270	1.001571	-0.079216	-0.080465	0.013106	49.4251	-0.079414	-0.598430	-0.021901	NaN
589	1.000000	1.010831	7.37081e+06	-47639.1	1005.82	-29765.2	0.000000	0.000000	7.011123	0.012119	NaN	0.000000	0.001622	0.001755	28.0796	0.034238	0.002027	16.8882	19.0019	-164.397	-0.091443	1.009537	-0.071205	-0.072498	0.012119	16.8882	-0.071743	-0.379586	-0.031926	NaN
589	1.000000	1.018850	7.37081e+06	-47639.1	1005.82	-29765.2	0.000000	0.000000	7.019144	0.047062	NaN	0.000000	0.001645	0.001779	28.0798	0.056955	0.002139	26.6307	-52.9019	-164.938	0.015311	1.017555	-0.063186	-0.064480	0.047062	26.6307	-0.064511	-0.241546	-0.194837	NaN
589	1.000000	1.026841	7.37081e+06	-47639.1	1005.82	-29765.2	0.000000	0.000000	7.027135	0.038175	NaN	0.000000	0.001627	0.001767	28.0796	0.061328	0.001840	33.3342	157.672	-168.209	0.050237	1.025563	-0.055195	-0.056473	0.038175	33.3342	-0.056054	-0.138324	-0.275982	NaN
589	1.000000	1.034879	7.37081e+06	-47639.1	1005.82	-29765.2	0.000000	0.000000	7.035171	-0.010367	NaN	0.000000	0.001608	0.001717	28.0799	0.077137	0.001806	42.7139	-17.4774	-165.578	0.022605	1.033548	-0.047157	-0.048488	-0.010367	42.7139	-0.046975	-0.073844	0.140389	NaN
589	1.000000	1.042895	7.37081e+06	-47639.1	1005.82	-29765.2	0.000000	0.000000	7.043189	0.034631	NaN	0.000000	0.001589	0.001759	28.0795	0.009952	0.002208	4.507963	-100.308	-164.879	-0.062271	1.041544	-0.039141	-0.040492	0.034631	4.507963	-0.044902	-0.063828	-0.542572	NaN
589	1.000000	1.050870	7.37081e+06	-47639.1	1005.82	-29765.2	0.000000	0.000000	7.051163	0.016767	NaN	0.000000	0.001579	0.001756	28.0796	0.086187	0.002074	41.5596	175.793	-164.541	-0.128236	1.049572	-0.031166	-0.032464	0.016767	41.5596	-0.031468	-0.025309	-0.662486	NaN
589	1.000000	1.058872	7.37081e+06	-47639.1	1005.82	-29765.2	0.000000	0.000000	7.059164	-0.007220	NaN	0.000000	0.001617	0.001735	28.0797	0.035199	0.001906	18.4697	-116.068	-164.785	-0.014447	1.057541	-0.023163	-0.024495	-0.007220	18.4697	-0.022870	-0.014862	0.485789	NaN
589	1.000000	1.066886	7.37081e+06	-47639.1	1005.82	-29765.2	0.000000	0.000000	7.067178	-0.023349	NaN	0.000000	0.001589	0.001775	28.0796	0.067274	0.002143	31.3921	113.07	-164.864	0.037670	1.065591	-0.015150	-0.016445	-0.023349	31.3921	-0.014592	-0.009032	2.585118	NaN
589	1.000000	1.074881	7.37081e+06	-47639.1	1005.82	-29765.2	0.000000	0.000000	7.075173	-0.000281	NaN	0.000000	0.001592	0.001773	28.08	0.046591	0.002002	23.2699	-26.7064	-166.326	-0.025365	1.073559	-0.007155	-0.008476	-0.000281	23.2699	-0.007146	-0.004727	0.059508	NaN
589	1.000000	1.082880	7.37081e+06	-47639.1	1005.82	-29765.2	0.000000	0.000000	7.083317	3.504304	NaN	0.000000	0.001581	0.001768	28.0797	4.159766	0.001745	2384.15	8.097217	-166.854	2.279083	1.081514	0.000845	-0.000522	3.504304	2384.15	-0.000258	-0.000192	-18278.1	NaN
589	2.000000	1.088466	7.37081e+06	-47639.1	1005.82	-29765.2	0.000000	0.000000	7.089151	9.546157	NaN	0.000000	0.001591	0.001779	28.0808	9.295920	0.001657	5608.49	3.802996	-169.088	8.583221	1.088141	0.006430	0.006105	9.546157	5608.49	0.005154	0.004274	2233.39	78376.8
589	2.000000	1.090402	7.37081e+06	-47639.1	1005.82	-29765.2	0.000000	0.000000	7.091241	13.2917	NaN	0.000000	0.001572	0.001750	28.081	12.3492	0.001839	6715.04	8.964973	-174.126	12.3248	1.090162	0.008366	0.008127	13.2917	6715.04	0.006882	0.005917	2246.23	79755.1
589	2.000000	1.092480	7.37081e+06	-47639.1	1005.82	-29765.2	0.000000	0.000000	7.093434	16.0835	NaN	0.000000	0.001570	0.001781	28.081	14.3545	0.001801	7971.57	9.109191	-175.784	16.5431	1.092107	0.010444	0.010071	16.0835	7971.57	0.008931	0.008018	2005.97	81337.2
589	2.000000	1.094436	7.37081e+06	-47639.1	1005.82	-29765.2	0.000000	0.000000	7.095502	18.829	NaN	0.000000	0.001609	0.001796	28.0811	16.0437	0.001725	9300.48	6.694263	-174.788	19.1691	1.094188	0.012400	0.012153	18.829	9300.48	0.010882	0.010178	1849.98	84226.4
589	2.000000	1.096414	7.37081e+06	-47639.1	1005.82	-29765.2	0.000000	0.000000	7.097711	24.4429	NaN	0.000000	0.001570	0.001784	28.0809	18.9098	0.001818	10402	2.592991	-173.038	23.2863	1.096107	0.014378	0.014071	24.4429	10402	0.012616	0.012236	1997.64	85915.8
589	2.000000	1.098420	7.37081e+06	-47639.1	1005.82	-29765.2	0.000000	0.000000	7.099913	29.2074	NaN	0.000000	0.001613	0.001766	28.0812	20.4084	0.001708	11951.3	2.657693	-174.147	28.5978	1.098065	0.016384	0.016029	29.2074	11951.3	0.014551	0.014692	1988.01	90084.5
589	2.000000	1.100430	7.37081e+06	-47639.1	1005.82	-29765.2	0.000000	0.000000	7.102041	32.059	NaN	0.000000	0.001552	0.001775	28.0812	23.455	0.001944	12066.6	7.941094	-179.304	32.1531	1.100105	0.018395	0.018069	32.059	12066.6	0.016402	0.017201	1863.82	84059
589	2.000000	1.102384	7.37081e+06	-47639.1	1005.82	-29765.2	0.000000	0.000000	7.104276	38.9058	NaN	0.000000	0.001575	0.001758	28.0812	24.3034	0.001748	13904.5	3.737146	-176.316	37.7729	1.102130	0.020348	0.020094	38.9058	13904.5	0.018250	0.019866	1958.39	90130.5
589	2.000000	1.104393	7.37081e+06	-47639.1	1005.82	-29765.2	0.000000	0.000000	7.106487	43.8163	NaN	0.000000	0.001548	0.001719	28.0811	26.3428	0.001785	14755.2	6.836452	-179.466	43.3161	1.104112	0.022357	0.022076	43.8163	14755.2	0.020130	0.022747	1926.26	89383.5
589	2.000000	1.106349	7.37081e+06	-47639.1	1005.82	-29765.2	0.000000	0.000000	7.108665	49.2195	NaN	0.000000	0.001537	0.001766	28.0808	29.5634	0.001816	16275.6	7.175841	178.448	48.6305	1.106157	0.024313	0.024122	49.2195	16275.6	0.022045	0.025858	1903.44	92472.2
589	2.000000	1.108357	7.37081e+06	-47639.1	1005.82	-29765.2	0.000000	0.000000	7.111046	58.2976	NaN	0.000000	0.001542	0.001735	28.0811	29.7736	0.001707	17447.1	1.959624	-176.075	56.8282	1.108131	0.026321	0.026095	58.2976	17447.1	0.023815	0.028895	2017.59	93775.3
589	2.000000	1.110306	7.37081e+06	-47639.1	1005.82	-29765.2	0.000000	0.000000	7.113316	66.1103	NaN	0.000000	0.001547	0.001740	28.081	32.4612	0.001756	18482.5	3.963906	-178.733	64.123	1.110057	0.028270	0.028021	66.1103	18482.5	0.025587	0.032093	2059.99	94260.9
589	2.000000	1.112430	7.37081e+06	-47639.1	1005.82	-29765.2	0.000000	0.000000	7.115715	72.787	NaN	0.000000	0.001582	0.001777	28.0812	34.5274	0.001760	19612.6	4.937137	-179.007	73.1136	1.112098	0.030394	0.030062	72.787	19612.6	0.027611	0.035937	2025.39	94522.8
589	2.000000	1.114336	7.37081e+06	-47639.1	1005.82	-29765.2	0.000000	0.000000	7.117892	79.3795	NaN	0.000000	0.001593	0.001806	28.0815	35.7424	0.001721	20770.9	-0.057999	-175.299	78.4271	1.114067	0.032300	0.032031	79.3795	20770.9	0.029434	0.039579	2005.59	95388.2
589	2.000000	1.116349	7.37081e+06	-47639.1	1005.82	-29765.2	0.000000	0.000000	7.120226	87.1902	NaN	0.000000	0.001588	0.001856	28.0811	38.6319	0.001869	20667.2	2.775947	-179.056	84.9575	1.116087	0.034314	0.034051	87.1902	20667.2	0.031149	0.043160	2020.17	90889.7
589	2.000000	1.118331	7.37081e+06	-47639.1	1005.82	-29765.2	0.000000	0.000000	7.122588	96.4318	NaN	0.000000	0.001603	0.001807	28.0811	39.6844	0.001769	22430	3.635751	-179.386	95.4316	1.118002	0.036296	0.035967	96.4318	22430	0.033071	0.047350	2036.57	94176.3
589	2.000000	1.120362	7.37081e+06	-47639.1	1005.82	-29765.2	0.000000	0.000000	7.124908	103.474	NaN	0.000000	0.001559	0.001798	28.0809	42.4789	0.001863	22799.2	4.312633	179.672	102.544	1.120020	0.038326	0.037985	103.474	22799.2	0.034922	0.051565	2006.67	91730.6
589	2.000000	1.122375	7.37081e+06	-47639.1	1005.82	-29765.2	0.000000	0.000000	7.127296	112.582	NaN	0.000000	0.001587	0.001793	28.0798	45.116	0.001756	25695.6	8.248070	174.182	113.536	1.122066	0.040340	0.040030	112.582	25695.6	0.037053	0.056635	1987.83	98648.1
589	2.000000	1.124346	7.37081e+06	-47639.1	1005.82	-29765.2	0.000000	0.000000	7.129599	120.664	NaN	0.000000	0.001599	0.001791	28.0798	46.4846	0.001791	25956.3	7.473723	174.883	121.176	1.124043	0.042310	0.042007	120.664	25956.3	0.038824	0.061023	1977.34	95999.2
589	2.000000	1.126317	7.37081e+06	-47639.1	1005.82	-29765.2	0.000000	0.000000	7.132086	133.204	NaN	0.000000	0.001597	0.001779	28.08	48.0394	0.001794	26772.6	2.097487	179.782	131.313	1.126038	0.044281	0.044002	133.204	26772.6	0.040550	0.065457	2034.98	95606.1
589	2.000000	1.128374	7.37081e+06	-47639.1	1005.82	-29765.2	0.000000	0.000000	7.134470	141.157	NaN	0.000000	0.001596	0.001770	28.0797	49.5362	0.001829	27080.1	5.093997	177.254	142.551	1.128011	0.046338	0.045975	141.157	27080.1	0.042429	0.070456	2003.47	93210.4
589	2.000000	1.130304	7.37081e+06	-47639.1	1005.82	-29765.2	0.000000	0.000000	7.136624	146.607	NaN	0.000000	0.001589	0.001785	28.0797	52.5907	0.001877	28014.5	5.573432	175.81	144.477	1.130123	0.048268	0.048088	146.607	28014.5	0.044343	0.075734	1935.81	93005.9
589	2.000000	1.132306	7.37082e+06	-47639.1	1005.82	-29765.2	0.000000	0.000000	7.139382	165.004	NaN	0.000000	0.001527	0.001742	28.0797	53.7144	0.001705	31510.2	5.687009	176.065	162.797	1.131958	0.050270	0.049923	165.004	31510.2	0.046342	0.081444	2025.98	100878
589	2.000000	1.134408	7.37082e+06	-47639.1	1005.82	-29765.2	0.000000	0.000000	7.141699	170.23	NaN	0.000000	0.001584	0.001788	28.0797	55.4039	0.001743	31787.4	3.706184	177.247	174.945	1.134059	0.052372	0.052023	170.23	31787.4	0.048356	0.087399	1947.75	98237.2
589	2.000000	1.136277	7.37082e+06	-47639.1	1005.82	-29765.2	0.000000	0.000000	7.144308	188.229	NaN	0.000000	0.001556	0.001759	28.08	57.3839	0.001755	32705.1	2.817861	177.439	185.454	1.136006	0.054241	0.053970	188.229	32705.1	0.049925	0.092180	2041.97	98416.8
589	2.000000	1.138409	7.37082e+06	-47639.1	1005.82	-29765.2	0.000000	0.000000	7.146708	194.757	NaN	0.000000	0.001556	0.001762	28.0799	58.4763	0.001668	35048.9	2.797536	177.462	199.478	1.137990	0.056373	0.055954	194.757	35048.9	0.052205	0.099352	1960.28	101592
589	2.000000	1.140264	7.37082e+06	-47639.1	1005.82	-29765.2	0.000000	0.000000	7.149088	207.53	NaN	0.000000	0.001588	0.001739	28.0801	62.2608	0.001787	34847.6	3.688552	175.838	203.689	1.140084	0.058228	0.058048	207.53	34847.6	0.053761	0.104393	1987.97	98539.6
589	2.000000	1.142318	7.37082e+06	-47639.1	1005.82	-29765.2	0.000000	0.000000	7.151830	224.256	NaN	0.000000	0.001612	0.001739	28.0799	63.5275	0.001803	35241.4	-0.234609	-179.691	220.893	1.141987	0.060282	0.059951	224.256	35241.4	0.055510	0.110201	2034.98	96991.6
589	2.000000	1.144225	7.37082e+06	-47639.1	1005.82	-29765.2	0.000000	0.000000	7.154265	237.094	NaN	0.000000	0.001597	0.001736	28.0799	64.5238	0.001753	36814.8	1.898057	177.611	231.624	1.143940	0.062189	0.061904	237.094	36814.8	0.057359	0.116509	2034.98	98540.7
589	2.000000	1.146282	7.37082e+06	-47639.1	1005.82	-29765.2	0.000000	0.000000	7.156748	247.464	NaN	0.000000	0.001626	0.001741	28.08	67.79	0.001780	38088.7	2.700030	176.742	247.506	1.146043	0.064246	0.064007	247.464	38088.7	0.059373	0.123570	2002.62	98995
589	2.000000	1.148260	7.37082e+06	-47639.1	1005.82	-29765.2	0.000000	0.000000	7.159311	261.699	NaN	0.000000	0.001611	0.001745	28.0799	69.4159	0.001788	38816.6	6.379092	172.94	258.718	1.147988	0.066224	0.065952	261.699	38816.6	0.061167	0.130028	2012.63	98349.4
589	2.000000	1.150256	7.37082e+06	-47639.1	1005.82	-29765.2	0.000000	0.000000	7.161846	274.79	NaN	0.000000	0.001568	0.001738	28.0797	72.7083	0.001817	40018.1	5.123508	173.66	271.948	1.150034	0.068220	0.067999	274.79	40018.1	0.063070	0.137047	2005.07	98763
589	2.000000	1.152357	7.37082e+06	-47639.1	1005.82	-29765.2	0.000000	0.000000	7.164283	282.947	NaN	0.000000	0.001588	0.001777	28.0798	75.1829	0.001875	40099.3	3.803657	175.825	281.137	1.151982	0.070321	0.069946	282.947	40099.3	0.065029	0.144458	1958.68	96391.7
589	2.000000	1.154274	7.37082e+06	-47639.1	1005.82	-29765.2	0.000000	0.000000	7.166909	300.221	NaN	0.000000	0.001573	0.001782	28.0798	76.9358	0.001905	40380.1	5.236013	173.591	296.625	1.154046	0.072238	0.072010	300.221	40380.1	0.066662	0.150773	1991.21	95012
589	2.000000	1.156287	7.37082e+06	-47639.1	1005.82	-29765.2	0.000000	0.000000	7.169491	314.061	NaN	0.000000	0.001578	0.001773	28.0811	79.1595	0.001811	43703.5	5.143627	172.513	310.854	1.156012	0.074251	0.073976	314.061	43703.5	0.068861	0.159487	1969.19	99983.2
589	2.000000	1.158313	7.37082e+06	-47639.1	1005.82	-29765.2	0.000000	0.000000	7.172243	331.726	NaN	0.000000	0.001642	0.001769	28.0813	79.3441	0.001787	44404.5	2.657399	175.557	332.304	1.158025	0.076277	0.075989	331.726	44404.5	0.070674	0.166840	1988.28	99322.9
589	2.000000	1.160234	7.37082e+06	-47639.1	1005.82	-29765.2	0.000000	0.000000	7.174992	351.828	NaN	0.000000	0.001650	0.001783	28.081	81.6057	0.001742	46844.3	4.387742	173.349	348.525	1.159896	0.078199	0.077860	351.828	46844.3	0.072566	0.174681	2014.11	102402
589	2.000000	1.162294	7.37082e+06	-47639.1	1005.82	-29765.2	0.000000	0.000000	7.177619	365.63	NaN	0.000000	0.001600	0.001790	28.0813	84.1217	0.001803	46662.5	4.430568	173.566	363.547	1.162030	0.080258	0.079995	365.63	46662.5	0.074382	0.182368	2004.91	99831.4
589	2.000000	1.164173	7.37082e+06	-47639.1	1005.82	-29765.2	0.000000	0.000000	7.180172	382.029	NaN	0.000000	0.001592	0.001779	28.0809	85.7603	0.001903	45069.7	4.876859	173.64	374.393	1.163832	0.082137	0.081796	382.029	45069.7	0.075780	0.188391	2027.85	94869.8
589	2.000000	1.166278	7.37082e+06	-47639.1	1005.82	-29765.2	0.000000	0.000000	7.182905	397.328	NaN	0.000000	0.001586	0.001776	28.0809	86.9695	0.001877	46330.1	2.528992	175.766	395.682	1.165957	0.084242	0.083921	397.328	46330.1	0.077810	0.197300	2013.83	95295.5
589	2.000000	1.168168	7.37082e+06	-47639.1	1005.82	-29765.2	0.000000	0.000000	7.185462	413.524	NaN	0.000000	0.001560	0.001786	28.0809	87.249	0.001705	51174.7	3.152175	174.285	405.296	1.167891	0.086132	0.085855	413.524	51174.7	0.080072	0.207455	1993.32	102652
589	2.000000	1.170293	7.37082e+06	-47639.1	1005.82	-29765.2	0.000000	0.000000	7.188302	430.942	NaN	0.000000	0.001590	0.001785	28.0811	90.9695	0.001812	50199.2	3.868017	173.247	431.235	1.169932	0.088257	0.087896	430.942	50199.2	0.081818	0.215458	2000.12	98807.1
589	2.000000	1.172252	7.37082e+06	-47639.1	1005.82	-29765.2	0.000000	0.000000	7.191045	449.97	NaN	0.000000	0.001582	0.001784	28.081	92.2893	0.001763	52357.8	4.214171	173.053	446.931	1.172057	0.090217	0.090021	449.97	52357.8	0.083771	0.224574	2003.66	100943
589	2.000000	1.174219	7.37082e+06	-47639.1	1005.82	-29765.2	0.000000	0.000000	7.193718	467.155	NaN	0.000000	0.001599	0.001817	28.0811	93.5791	0.001800	51980.9	5.726139	171.89	464.225	1.173838	0.092184	0.091802	467.155	51980.9	0.085443	0.232521	2009.09	98488.6
589	2.000000	1.176251	7.37082e+06	-47639.1	1005.82	-29765.2	0.000000	0.000000	7.196107	475.839	NaN	0.000000	0.001604	0.001804	28.0809	95.2674	0.001739	54796.8	1.562701	175.136	473.616	1.176054	0.094215	0.094019	475.839	54796.8	0.087702	0.243462	1954.47	101464
589	2.000000	1.178216	7.37082e+06	-47639.1	1005.82	-29765.2	0.000000	0.000000	7.199143	501.892	NaN	0.000000	0.001564	0.001822	28.0815	96.1372	0.001777	54095.8	3.106847	174.366	495.567	1.177768	0.096181	0.095732	501.892	54095.8	0.089222	0.250954	1999.94	98659.7
589	2.000000	1.180270	7.37082e+06	-47639.1	1005.82	-29765.2	0.000000	0.000000	7.201768	515.783	NaN	0.000000	0.001567	0.001787	28.0809	99.6175	0.001733	57473.5	4.651307	171.552	514.303	1.179907	0.098234	0.097872	515.783	57473.5	0.091503	0.262398	1965.65	102509
589	2.000000	1.182234	7.37082e+06	-47639.1	1005.82	-29765.2	0.000000	0.000000	7.204334	530.417	NaN	0.000000	0.001600	0.001820	28.0809	101.86	0.001872	54422.8	3.308021	173.55	525.028	1.181972	0.100199	0.099936	530.417	54422.8	0.092889	0.269467	1968.39	95785.9
589	2.000000	1.184324	7.37082e+06	-47639.1	1005.82	-29765.2	0.000000	0.000000	7.207118	547.302	NaN	0.000000	0.001545	0.001789	28.081	103.882	0.001849	56188	5.787317	170.677	548.714	1.183896	0.102288	0.101860	547.302	56188	0.094983	0.280315	1952.46	96960.2
589	2.000000	1.186209	7.37082e+06	-47639.1	1005.82	-29765.2	0.000000	0.000000	7.209787	566.364	NaN	0.000000	0.001601	0.001788	28.0807	106.443	0.001803	59045.7	6.790988	169.074	562.319	1.185997	0.104173	0.103961	566.364	59045.7	0.096979	0.290844	1947.31	100030