File: remote_trans/data/nanoindenter/0828-1/data/Data_2025-08-06,11h17m57s/2025-07-22_16-23-58_1_1100.txt
2025-07-22, 16:23:58, 1
Index	Phase	Displacement	Time	Pos X	Pos Y	Pos Z	Rot A	Rot B	Piezo Z	Force A	Force B	Gripper	Voltage A	Voltage B	Temperature	Amplitude force	Amplitude pos	Stiffness	Phase shift	Phase excitation	Force A raw	Displacement raw	HMax	HMax raw	Real Force	Real Stiffness	Contact Depth	Area	Hardness	Reduced Mod.
[#]	[#]	[um]	[s]	[um]	[um]	[um]	[m°]	[m°]	[um]	[uN]	[uN]	[V]	[V]	[V]	[°C]	[uN]	[um]	[N/m]	[°]	[°]	[uN]	[um]	[um]	[um]	[uN]	[N/m]	[um]	[um^2]	[MPa]	[MPa]
1100	1.000000	0.002285	7.37581e+06	-55139.1	1055.82	-29742.2	0.000000	0.000000	6.002823	-0.010196	NaN	0.000000	0.001749	0.001745	28.0844	0.055025	0.000980	56.1586	80.6701	-165.229	0.015160	0.000962	-1.002667	-1.003989	-0.010196	56.1586	-1.002530	-2.453775E+13	4.155389E-16	NaN
1100	1.000000	0.010225	7.37581e+06	-55139.1	1055.82	-29742.2	0.000000	0.000000	6.010761	-0.041218	NaN	0.000000	0.001748	0.001758	28.0828	0.092544	0.000997	92.7896	-114.065	-167.337	0.084015	0.008905	-0.994727	-0.996046	-0.041218	92.7896	-0.994394	-1.906692E+13	2.161746E-15	NaN
1100	1.000000	0.018214	7.37581e+06	-55139.1	1055.82	-29742.2	0.000000	0.000000	6.018751	-0.002995	NaN	0.000000	0.001681	0.001770	28.083	0.071076	0.001616	43.9779	63.3409	-160.489	-0.005554	0.016892	-0.986738	-0.988060	-0.002995	43.9779	-0.986687	-1.501384E+13	1.994678E-16	NaN
1100	1.000000	0.026252	7.37581e+06	-55139.1	1055.82	-29742.2	0.000000	0.000000	6.026790	-0.013304	NaN	0.000000	0.001716	0.001793	28.083	0.048142	0.001858	25.9048	118.605	-164.011	0.003011	0.024907	-0.978699	-0.980045	-0.013304	25.9048	-0.978314	-1.157971E+13	1.148904E-15	NaN
1100	1.000000	0.034234	7.37581e+06	-55139.1	1055.82	-29742.2	0.000000	0.000000	6.034770	-0.050293	NaN	0.000000	0.001752	0.001773	28.0829	0.035724	0.001992	17.9333	167.705	-164.004	-0.011993	0.032867	-0.970718	-0.972085	-0.050293	17.9333	-0.968615	-8.570208E+12	5.868331E-15	NaN
1100	1.000000	0.042209	7.37581e+06	-55139.1	1055.82	-29742.2	0.000000	0.000000	6.042749	0.064459	NaN	0.000000	0.001788	0.001773	28.0831	0.016838	0.002011	8.373555	134.34	-164.287	0.075351	0.040896	-0.962743	-0.964055	0.064459	8.373555	-0.968516	-8.544133E+12	-7.544287E-15	NaN
1100	1.000000	0.050204	7.37581e+06	-55139.1	1055.82	-29742.2	0.000000	0.000000	6.050741	-0.016027	NaN	0.000000	0.001754	0.001789	28.083	0.047367	0.001989	23.8122	22.5679	-166.255	-0.012446	0.048912	-0.954748	-0.956040	-0.016027	23.8122	-0.954243	-5.485919E+12	2.921414E-15	NaN
1100	1.000000	0.058224	7.37581e+06	-55139.1	1055.82	-29742.2	0.000000	0.000000	6.058760	-0.050928	NaN	0.000000	0.001733	0.001754	28.0831	0.008941	0.002034	4.395473	-25.4499	-161	-0.005571	0.056891	-0.946728	-0.948060	-0.050928	4.395473	-0.938038	-3.316381E+12	1.535650E-14	NaN
1100	1.000000	0.066210	7.37581e+06	-55139.1	1055.82	-29742.2	0.000000	0.000000	6.066746	-0.020021	NaN	0.000000	0.001689	0.001777	28.083	0.117159	0.002100	55.7942	-147.581	-163.184	-0.081546	0.064893	-0.938742	-0.940059	-0.020021	55.7942	-0.938473	-3.361530E+12	5.956043E-15	NaN
1100	1.000000	0.074223	7.37581e+06	-55139.1	1055.82	-29742.2	0.000000	0.000000	6.074760	-0.024359	NaN	0.000000	0.001680	0.001770	28.0831	0.018233	0.001908	9.554012	70.1766	-164.97	0.024349	0.072944	-0.930729	-0.932008	-0.024359	9.554012	-0.928816	-2.490130E+12	9.782157E-15	NaN
1100	1.000000	0.082220	7.37581e+06	-55139.1	1055.82	-29742.2	0.000000	0.000000	6.082757	-0.017548	NaN	0.000000	0.001721	0.001762	28.0829	0.062641	0.002031	30.8355	160.365	-165.401	-0.012283	0.080901	-0.922732	-0.924050	-0.017548	30.8355	-0.922305	-2.033899E+12	8.627590E-15	NaN
1100	1.000000	0.090205	7.37581e+06	-55139.1	1055.82	-29742.2	0.000000	0.000000	6.090744	0.049557	NaN	0.000000	0.001704	0.001746	28.0829	0.036624	0.001961	18.6802	-160.369	-166.281	0.036049	0.088967	-0.914747	-0.915985	0.049557	18.6802	-0.916737	-1.710587E+12	-2.897066E-14	NaN
1100	1.000000	0.098222	7.37581e+06	-55139.1	1055.82	-29742.2	0.000000	0.000000	6.098759	-0.034650	NaN	0.000000	0.001692	0.001738	28.0828	0.013803	0.002021	6.828610	-97.7497	-163.099	-0.006760	0.096909	-0.906729	-0.908043	-0.034650	6.828610	-0.902924	-1.113195E+12	3.112644E-14	NaN
1100	1.000000	0.106272	7.37581e+06	-55139.1	1055.82	-29742.2	0.000000	0.000000	6.106806	-0.092057	NaN	0.000000	0.001656	0.001744	28.0827	0.085126	0.002062	41.2859	43.765	-163.908	-0.034705	0.104935	-0.898680	-0.900017	-0.092057	41.2859	-0.897008	-9.260494E+11	9.940810E-14	NaN
1100	1.000000	0.114259	7.37581e+06	-55139.1	1055.82	-29742.2	0.000000	0.000000	6.114791	-0.119680	NaN	0.000000	0.001673	0.001758	28.083	0.057096	0.002002	28.5216	141.243	-165.605	-0.034927	0.112948	-0.890693	-0.892004	-0.119680	28.5216	-0.887546	-6.898291E+11	1.734928E-13	NaN
1100	1.000000	0.122243	7.37581e+06	-55139.1	1055.82	-29742.2	0.000000	0.000000	6.122779	-0.060243	NaN	0.000000	0.001668	0.001761	28.083	0.014522	0.001773	8.190539	143.198	-161.388	-0.115239	0.120906	-0.882708	-0.884046	-0.060243	8.190539	-0.877192	-4.997272E+11	1.205521E-13	NaN
1100	1.000000	0.130242	7.37581e+06	-55139.1	1055.82	-29742.2	0.000000	0.000000	6.130781	0.040213	NaN	0.000000	0.001686	0.001741	28.0832	0.074217	0.001851	40.0971	-78.0196	-164.042	0.005370	0.128946	-0.874710	-0.876006	0.040213	40.0971	-0.875462	-4.735145E+11	-8.492560E-14	NaN
1100	1.000000	0.138243	7.37581e+06	-55139.1	1055.82	-29742.2	0.000000	0.000000	6.138778	-0.062197	NaN	0.000000	0.001691	0.001719	28.0831	0.136561	0.002043	66.8371	-83.5098	-164.127	0.037639	0.136906	-0.866709	-0.868046	-0.062197	66.8371	-0.866011	-3.527507E+11	1.763199E-13	NaN
1100	1.000000	0.146261	7.37581e+06	-55139.1	1055.82	-29742.2	0.000000	0.000000	6.146795	-0.091480	NaN	0.000000	0.001691	0.001759	28.0847	0.089721	0.002034	44.1116	-91.8641	-164.66	-0.006460	0.144910	-0.858691	-0.860042	-0.091480	44.1116	-0.857136	-2.675171E+11	3.419601E-13	NaN
1100	1.000000	0.154250	7.37581e+06	-55139.1	1055.82	-29742.2	0.000000	0.000000	6.154786	-0.047047	NaN	0.000000	0.001703	0.001678	28.0845	0.104320	0.002093	49.8398	78.8085	-162.272	-0.008212	0.152926	-0.850702	-0.852026	-0.047047	49.8398	-0.849994	-2.141173E+11	2.197240E-13	NaN
1100	1.000000	0.162253	7.37581e+06	-55139.1	1055.82	-29742.2	0.000000	0.000000	6.162790	-0.029608	NaN	0.000000	0.001702	0.001714	28.0845	0.130592	0.001992	65.5689	100.011	-164.606	0.015521	0.160944	-0.842699	-0.844008	-0.029608	65.5689	-0.842360	-1.687571E+11	1.754455E-13	NaN
1100	1.000000	0.170266	7.37581e+06	-55139.1	1055.82	-29742.2	0.000000	0.000000	6.170803	-0.026454	NaN	0.000000	0.001699	0.001746	28.0846	0.050834	0.001982	25.6513	-119.723	-164.361	0.034284	0.168944	-0.834686	-0.836008	-0.026454	25.6513	-0.833912	-1.296599E+11	2.040256E-13	NaN
1100	1.000000	0.178253	7.37581e+06	-55139.1	1055.82	-29742.2	0.000000	0.000000	6.178792	0.013371	NaN	0.000000	0.001706	0.001739	28.0846	0.012407	0.002050	6.052089	21.2366	-164.397	0.045000	0.176960	-0.826698	-0.827991	0.013371	6.052089	-0.828356	-1.090171E+11	-1.226549E-13	NaN
1100	1.000000	0.186248	7.37581e+06	-55139.1	1055.82	-29742.2	0.000000	0.000000	6.186785	-0.013980	NaN	0.000000	0.001694	0.001716	28.0847	0.095941	0.002029	47.2804	2.492393	-167.857	0.032395	0.184979	-0.818704	-0.819973	-0.013980	47.2804	-0.818482	-8.009839E+10	1.745298E-13	NaN
1100	1.000000	0.194271	7.37581e+06	-55139.1	1055.82	-29742.2	0.000000	0.000000	6.194808	-0.027465	NaN	0.000000	0.001691	0.001738	28.0847	0.033387	0.001915	17.4317	75.5251	-163.028	-0.040273	0.192976	-0.810681	-0.811975	-0.027465	17.4317	-0.809499	-6.050294E+10	4.539398E-13	NaN
1100	1.000000	0.202261	7.37581e+06	-55139.1	1055.82	-29742.2	0.000000	0.000000	6.202800	0.012520	NaN	0.000000	0.001666	0.001752	28.0846	0.087088	0.001975	44.0993	-93.3786	-164.233	0.019237	0.201033	-0.802690	-0.803919	0.012520	44.0993	-0.802903	-4.923474E+10	-2.542824E-13	NaN
1100	1.000000	0.210280	7.37581e+06	-55139.1	1055.82	-29742.2	0.000000	0.000000	6.210815	-0.072482	NaN	0.000000	0.001687	0.001760	28.0848	0.034952	0.001905	18.3444	74.5055	-165.637	-0.050562	0.208991	-0.794672	-0.795961	-0.072482	18.3444	-0.791709	-3.469668E+10	2.089026E-12	NaN
1100	1.000000	0.218286	7.37581e+06	-55139.1	1055.82	-29742.2	0.000000	0.000000	6.218825	0.025079	NaN	0.000000	0.001758	0.001767	28.085	0.127404	0.001997	63.7951	-167.574	-166.578	-0.036886	0.217018	-0.786666	-0.787933	0.025079	63.7951	-0.786960	-2.990881E+10	-8.385252E-13	NaN
1100	1.000000	0.226306	7.37581e+06	-55139.1	1055.82	-29742.2	0.000000	0.000000	6.226846	0.052690	NaN	0.000000	0.001737	0.001771	28.0849	0.072707	0.001949	37.3061	-119.806	-164.13	0.035664	0.225008	-0.778646	-0.779944	0.052690	37.3061	-0.779705	-2.383536E+10	-2.210563E-12	NaN
1100	1.000000	0.234302	7.37581e+06	-55139.1	1055.82	-29742.2	0.000000	0.000000	6.234840	-0.009233	NaN	0.000000	0.001764	0.001732	28.0851	0.137016	0.002053	66.7554	-22.2233	-164.508	-0.006596	0.232970	-0.770650	-0.771981	-0.009233	66.7554	-0.770546	-1.789484E+10	5.159386E-13	NaN
1100	1.000000	0.242292	7.37581e+06	-55139.1	1055.82	-29742.2	0.000000	0.000000	6.242831	0.034778	NaN	0.000000	0.001755	0.001804	28.0846	0.082258	0.001863	44.1514	3.503970	-171.671	-0.020249	0.240974	-0.762660	-0.763978	0.034778	44.1514	-0.763251	-1.424043E+10	-2.442186E-12	NaN
1100	1.000000	0.250331	7.37581e+06	-55139.1	1055.82	-29742.2	0.000000	0.000000	6.250868	-0.021659	NaN	0.000000	0.001742	0.001789	28.0846	0.121171	0.002049	59.1262	-0.841305	-165.399	0.047206	0.248996	-0.754621	-0.755956	-0.021659	59.1262	-0.754346	-1.077394E+10	2.010308E-12	NaN
1100	1.000000	0.258295	7.37581e+06	-55139.1	1055.82	-29742.2	0.000000	0.000000	6.258831	-0.044228	NaN	0.000000	0.001770	0.001786	28.0846	0.101624	0.002113	48.0936	-95.9414	-168.325	-0.010402	0.257025	-0.746657	-0.747927	-0.044228	48.0936	-0.745967	-8.285527E+9	5.337966E-12	NaN
1100	1.000000	0.266261	7.37581e+06	-55139.1	1055.82	-29742.2	0.000000	0.000000	6.266800	0.046598	NaN	0.000000	0.001674	0.001773	28.0847	0.047702	0.001952	24.4397	20.3334	-167.627	0.039886	0.265019	-0.738691	-0.739932	0.046598	24.4397	-0.740121	-6.897700E+9	-6.755641E-12	NaN
1100	1.000000	0.274300	7.37581e+06	-55139.1	1055.82	-29742.2	0.000000	0.000000	6.274836	-0.032879	NaN	0.000000	0.001691	0.001797	28.085	0.008965	0.001984	4.519618	40.5768	-162.656	-0.024458	0.273075	-0.730652	-0.731877	-0.032879	4.519618	-0.725196	-4.318423E+9	7.613650E-12	NaN
1100	1.000000	0.282350	7.37581e+06	-55139.1	1055.82	-29742.2	0.000000	0.000000	6.282887	-0.018511	NaN	0.000000	0.001695	0.001772	28.0835	0.101250	0.001849	54.7716	-135.163	-163.665	0.055643	0.280973	-0.722602	-0.723979	-0.018511	54.7716	-0.722349	-3.949139E+9	4.687432E-12	NaN
1100	1.000000	0.290311	7.37581e+06	-55139.1	1055.82	-29742.2	0.000000	0.000000	6.290848	-0.037018	NaN	0.000000	0.001741	0.001757	28.0835	0.077101	0.001953	39.4771	151.499	-163.306	-0.039003	0.288975	-0.714640	-0.715977	-0.037018	39.4771	-0.713937	-3.032299E+9	1.220785E-11	NaN
1100	1.000000	0.298318	7.37581e+06	-55139.1	1055.82	-29742.2	0.000000	0.000000	6.298855	-0.026203	NaN	0.000000	0.001759	0.001763	28.0832	0.051555	0.001968	26.1957	-45.2297	-162.613	-0.073363	0.297035	-0.706634	-0.707917	-0.026203	26.1957	-0.705883	-2.354295E+9	1.112995E-11	NaN
1100	1.000000	0.306313	7.37581e+06	-55139.1	1055.82	-29742.2	0.000000	0.000000	6.306850	-0.019793	NaN	0.000000	0.001742	0.001776	28.0835	0.056608	0.001869	30.2957	-176.076	-162.857	-0.029076	0.305055	-0.698638	-0.699897	-0.019793	30.2957	-0.698148	-1.846050E+9	1.072167E-11	NaN
1100	1.000000	0.314337	7.37581e+06	-55139.1	1055.82	-29742.2	0.000000	0.000000	6.314874	-0.013629	NaN	0.000000	0.001699	0.001765	28.0835	0.029428	0.001910	15.4034	77.2229	-163.463	0.004662	0.313032	-0.690615	-0.691919	-0.013629	15.4034	-0.689952	-1.426453E+9	9.554236E-12	NaN
1100	1.000000	0.322341	7.37581e+06	-55139.1	1055.82	-29742.2	0.000000	0.000000	6.322877	-0.051748	NaN	0.000000	0.001708	0.001742	28.0835	0.053909	0.001998	26.9881	-74.3165	-165.782	-0.114608	0.320978	-0.682611	-0.683973	-0.051748	26.9881	-0.681173	-1.082039E+9	4.782438E-11	NaN
1100	1.000000	0.330337	7.37581e+06	-55139.1	1055.82	-29742.2	0.000000	0.000000	6.330870	-0.095722	NaN	0.000000	0.001726	0.001745	28.084	0.055219	0.001893	29.1716	-130.206	-163.926	-0.121010	0.329025	-0.674615	-0.675927	-0.095722	29.1716	-0.672154	-8.144645E+8	1.175278E-10	NaN
1100	1.000000	0.338328	7.37581e+06	-55139.1	1055.82	-29742.2	0.000000	0.000000	6.338864	-0.041091	NaN	0.000000	0.001739	0.001731	28.0836	0.036181	0.001936	18.6839	17.8765	-162.109	-0.042647	0.337003	-0.666624	-0.667949	-0.041091	18.6839	-0.664974	-6.495176E+8	6.326334E-11	NaN
1100	1.000000	0.346319	7.37581e+06	-55139.1	1055.82	-29742.2	0.000000	0.000000	6.346857	-0.003155	NaN	0.000000	0.001712	0.001746	28.0836	0.069423	0.002023	34.3183	152.245	-166.489	-0.005771	0.345028	-0.658632	-0.659924	-0.003155	34.3183	-0.658564	-5.306293E+8	5.946628E-12	NaN
1100	1.000000	0.354346	7.37582e+06	-55139.1	1055.82	-29742.2	0.000000	0.000000	6.354884	0.015048	NaN	0.000000	0.001683	0.001730	28.0836	0.030521	0.002048	14.9052	16.9733	-166.393	0.005463	0.353033	-0.650606	-0.651919	0.015048	14.9052	-0.651363	-4.227888E+8	-3.559153E-11	NaN
1100	1.000000	0.362313	7.37582e+06	-55139.1	1055.82	-29742.2	0.000000	0.000000	6.362851	0.002800	NaN	0.000000	0.001695	0.001744	28.0837	0.074263	0.001935	38.3744	-10.0329	-166.202	-0.065984	0.361082	-0.642639	-0.643869	0.002800	38.3744	-0.642694	-3.215473E+8	-8.707025E-12	NaN
1100	1.000000	0.370336	7.37582e+06	-55139.1	1055.82	-29742.2	0.000000	0.000000	6.370872	-0.042541	NaN	0.000000	0.001688	0.001735	28.0839	0.014430	0.001966	7.340834	116.796	-165.992	-0.081267	0.369032	-0.634616	-0.635920	-0.042541	7.340834	-0.630270	-2.171352E+8	1.959190E-10	NaN
1100	1.000000	0.378325	7.37582e+06	-55139.1	1055.82	-29742.2	0.000000	0.000000	6.378862	-0.029075	NaN	0.000000	0.001724	0.001737	28.0836	0.074530	0.001870	39.8652	144.688	-164.2	0.020219	0.377072	-0.626627	-0.627880	-0.029075	39.8652	-0.626080	-1.901846E+8	1.528756E-10	NaN
1100	1.000000	0.386342	7.37582e+06	-55139.1	1055.82	-29742.2	0.000000	0.000000	6.386880	-0.003731	NaN	0.000000	0.001677	0.001746	28.0834	0.033671	0.001860	18.1029	-1.254590	-162.715	-0.050534	0.385006	-0.618610	-0.619946	-0.003731	18.1029	-0.618455	-1.494164E+8	2.497327E-11	NaN
1100	1.000000	0.394358	7.37582e+06	-55139.1	1055.82	-29742.2	0.000000	0.000000	6.394895	-0.019371	NaN	0.000000	0.001714	0.001713	28.0831	0.126310	0.002048	61.6891	-124.521	-165.479	-0.060139	0.393093	-0.610594	-0.611858	-0.019371	61.6891	-0.610359	-1.156243E+8	1.675349E-10	NaN
1100	1.000000	0.402361	7.37582e+06	-55139.1	1055.82	-29742.2	0.000000	0.000000	6.402896	-0.047438	NaN	0.000000	0.001670	0.001745	28.083	0.061326	0.001992	30.7838	179.888	-166.781	-0.030033	0.401057	-0.602591	-0.603895	-0.047438	30.7838	-0.601435	-8.714230E+7	5.443739E-10	NaN
1100	1.000000	0.410340	7.37582e+06	-55139.1	1055.82	-29742.2	0.000000	0.000000	6.410876	-0.027071	NaN	0.000000	0.001680	0.001733	28.0832	0.083364	0.002103	39.6486	-125.769	-165.26	-0.042541	0.409072	-0.594612	-0.595880	-0.027071	39.6486	-0.594100	-6.905221E+7	3.920411E-10	NaN
1100	1.000000	0.418363	7.37582e+06	-55139.1	1055.82	-29742.2	0.000000	0.000000	6.418900	-0.011564	NaN	0.000000	0.001665	0.001706	28.0845	0.044860	0.002024	22.1694	113.333	-163.651	-0.020860	0.417012	-0.586589	-0.587939	-0.011564	22.1694	-0.586198	-5.373245E+7	2.152174E-10	NaN
1100	1.000000	0.426376	7.37582e+06	-55139.1	1055.82	-29742.2	0.000000	0.000000	6.426913	-0.021622	NaN	0.000000	0.001706	0.001762	28.0845	0.029217	0.001922	15.2022	-83.9986	-165.889	-0.023365	0.425015	-0.578576	-0.579937	-0.021622	15.2022	-0.577509	-4.077007E+7	5.303423E-10	NaN
1100	1.000000	0.434350	7.37582e+06	-55139.1	1055.82	-29742.2	0.000000	0.000000	6.434886	-0.036882	NaN	0.000000	0.001705	0.001699	28.0846	0.034433	0.001934	17.8014	137.299	-162.87	0.061823	0.433043	-0.570602	-0.571909	-0.036882	17.8014	-0.569048	-3.115120E+7	1.183970E-9	NaN
1100	1.000000	0.442342	7.37582e+06	-55139.1	1055.82	-29742.2	0.000000	0.000000	6.442878	-0.030971	NaN	0.000000	0.001752	0.001712	28.0847	0.123780	0.001930	64.1238	-88.4757	-164.59	-0.060153	0.441026	-0.562610	-0.563925	-0.030971	64.1238	-0.562248	-2.508830E+7	1.234496E-9	NaN
1100	1.000000	0.450382	7.37582e+06	-55139.1	1055.82	-29742.2	0.000000	0.000000	6.450920	-0.000759	NaN	0.000000	0.001763	0.001762	28.0846	0.046149	0.001895	24.3486	50.8077	-166.995	0.006004	0.449087	-0.554570	-0.555865	-0.000759	24.3486	-0.554547	-1.962960E+7	3.866243E-11	NaN
1100	1.000000	0.458384	7.37582e+06	-55139.1	1055.82	-29742.2	0.000000	0.000000	6.458922	0.006879	NaN	0.000000	0.001678	0.001775	28.0845	0.083816	0.002082	40.2554	146.231	-161.994	0.091713	0.457062	-0.546568	-0.547890	0.006879	40.2554	-0.546696	-1.528230E+7	-4.501363E-10	NaN
1100	1.000000	0.466377	7.37582e+06	-55139.1	1055.82	-29742.2	0.000000	0.000000	6.466915	0.019090	NaN	0.000000	0.001672	0.001764	28.0846	0.100996	0.002026	49.8454	-3.523563	-164.357	0.030980	0.465061	-0.538575	-0.539890	0.019090	49.8454	-0.538862	-1.190092E+7	-1.604062E-9	NaN
1100	1.000000	0.474403	7.37582e+06	-55139.1	1055.82	-29742.2	0.000000	0.000000	6.474942	0.019166	NaN	0.000000	0.001651	0.001751	28.0846	0.092293	0.002026	45.5447	-59.6718	-164.919	-0.030272	0.473167	-0.530549	-0.531785	0.019166	45.5447	-0.530864	-9.21679e+06	-2.079476E-9	NaN
1100	1.000000	0.482391	7.37582e+06	-55139.1	1055.82	-29742.2	0.000000	0.000000	6.482928	-0.002026	NaN	0.000000	0.001618	0.001777	28.0844	0.060047	0.002055	29.2158	-36.8532	-163.44	-0.104552	0.481087	-0.522561	-0.523865	-0.002026	29.2158	-0.522509	-7.05485e+06	2.871699E-10	NaN
1100	1.000000	0.490386	7.37582e+06	-55139.1	1055.82	-29742.2	0.000000	0.000000	6.490922	-0.039636	NaN	0.000000	0.001603	0.001765	28.0845	0.122749	0.002004	61.2388	-15.0311	-165.696	-0.039686	0.489126	-0.514566	-0.515826	-0.039636	61.2388	-0.514081	-5.38566e+06	7.359491E-9	NaN
1100	1.000000	0.498403	7.37582e+06	-55139.1	1055.82	-29742.2	0.000000	0.000000	6.498938	-0.070165	NaN	0.000000	0.001653	0.001746	28.0843	0.077224	0.002050	37.6649	147.937	-165.758	-0.054419	0.497070	-0.506549	-0.507882	-0.070165	37.6649	-0.505152	-4.04448e+06	1.734828E-8	NaN
1100	1.000000	0.506378	7.37582e+06	-55139.1	1055.82	-29742.2	0.000000	0.000000	6.506912	-0.078331	NaN	0.000000	0.001644	0.001769	28.0841	0.138363	0.001928	71.7768	-4.873292	-163.834	0.013577	0.505099	-0.498574	-0.499853	-0.078331	71.7768	-0.497755	-3.18932e+06	2.456030E-8	NaN
1100	1.000000	0.514423	7.37582e+06	-55139.1	1055.82	-29742.2	0.000000	0.000000	6.514961	0.001625	NaN	0.000000	0.001669	0.001734	28.0844	0.029789	0.002059	14.4675	95.0814	-165.917	0.027172	0.513042	-0.490529	-0.491909	0.001625	14.4675	-0.490613	-2.53491e+06	-6.408553E-10	NaN
1100	1.000000	0.522412	7.37582e+06	-55139.1	1055.82	-29742.2	0.000000	0.000000	6.522949	-0.021846	NaN	0.000000	0.001673	0.001767	28.0841	0.060963	0.001900	32.0886	154.41	-165.766	-0.018588	0.521072	-0.482540	-0.483880	-0.021846	32.0886	-0.482029	-1.92279e+06	1.136176E-8	NaN
1100	1.000000	0.530393	7.37582e+06	-55139.1	1055.82	-29742.2	0.000000	0.000000	6.530930	-0.015234	NaN	0.000000	0.001656	0.001720	28.0846	0.084867	0.001879	45.1618	-121.148	-161.904	0.062998	0.529057	-0.474559	-0.475895	-0.015234	45.1618	-0.474306	-1.49891e+06	1.016344E-8	NaN
1100	1.000000	0.538422	7.37582e+06	-55139.1	1055.82	-29742.2	0.000000	0.000000	6.538958	-0.051610	NaN	0.000000	0.001659	0.001765	28.0843	0.011199	0.002031	5.514894	65.4382	-163.336	-0.079209	0.537092	-0.466530	-0.467860	-0.051610	5.514894	-0.459511	-929285	5.553695E-8	NaN
1100	1.000000	0.546418	7.37582e+06	-55139.1	1055.82	-29742.2	0.000000	0.000000	6.546953	-0.057112	NaN	0.000000	0.001694	0.001751	28.0842	0.097288	0.001952	49.8509	65.139	-166.135	-0.122131	0.545142	-0.458534	-0.459810	-0.057112	49.8509	-0.457675	-875659	6.522180E-8	NaN
1100	1.000000	0.554460	7.37582e+06	-55139.1	1055.82	-29742.2	0.000000	0.000000	6.554995	-0.063087	NaN	0.000000	0.001658	0.001734	28.0831	0.112770	0.002021	55.79	-94.9126	-166.661	-0.022348	0.553163	-0.450492	-0.451789	-0.063087	55.79	-0.449644	-675034	9.345700E-8	NaN
1100	1.000000	0.562405	7.37582e+06	-55139.1	1055.82	-29742.2	0.000000	0.000000	6.562941	-0.033810	NaN	0.000000	0.001670	0.001719	28.0832	0.075265	0.001959	38.4277	-93.7395	-165.749	-0.059888	0.561122	-0.442547	-0.443830	-0.033810	38.4277	-0.441887	-524798	6.442555E-8	NaN
1100	1.000000	0.570403	7.37582e+06	-55139.1	1055.82	-29742.2	0.000000	0.000000	6.570940	-0.031747	NaN	0.000000	0.001660	0.001709	28.0833	0.047171	0.001960	24.0678	-139.53	-163.76	-0.088148	0.569124	-0.434549	-0.435828	-0.031747	24.0678	-0.433559	-400308	7.930641E-8	NaN
1100	1.000000	0.578434	7.37582e+06	-55139.1	1055.82	-29742.2	0.000000	0.000000	6.578970	-0.050645	NaN	0.000000	0.001660	0.001747	28.0832	0.028053	0.001911	14.6805	56.1736	-163.523	-0.069694	0.577165	-0.426518	-0.427787	-0.050645	14.6805	-0.423930	-292504	1.731448E-7	NaN
1100	1.000000	0.586443	7.37582e+06	-55139.1	1055.82	-29742.2	0.000000	0.000000	6.586979	-0.033791	NaN	0.000000	0.001630	0.001739	28.0831	0.044790	0.002131	21.0211	-43.874	-164.555	-0.076552	0.585095	-0.418509	-0.419857	-0.033791	21.0211	-0.417303	-235589	1.434322E-7	NaN
1100	1.000000	0.594434	7.37582e+06	-55139.1	1055.82	-29742.2	0.000000	0.000000	6.594972	0.011679	NaN	0.000000	0.001660	0.001759	28.0837	0.033409	0.002006	16.6568	152.014	-161.282	0.012338	0.593116	-0.410518	-0.411836	0.011679	16.6568	-0.411044	-191972	-6.083905E-8	NaN
1100	1.000000	0.602463	7.37582e+06	-55139.1	1055.82	-29742.2	0.000000	0.000000	6.603000	-0.012110	NaN	0.000000	0.001645	0.001758	28.0834	0.037470	0.001983	18.8928	37.8566	-164.838	0.048333	0.601072	-0.402489	-0.403880	-0.012110	18.8928	-0.402009	-142768	8.482384E-8	NaN
1100	1.000000	0.610440	7.37582e+06	-55139.1	1055.82	-29742.2	0.000000	0.000000	6.610973	-0.123453	NaN	0.000000	0.001646	0.001752	28.0834	0.107788	0.001981	54.418	-47.4763	-163.191	-0.088446	0.609110	-0.394512	-0.395842	-0.123453	54.418	-0.392810	-105523	1.169916E-6	NaN
1100	1.000000	0.618428	7.37582e+06	-55139.1	1055.82	-29742.2	0.000000	0.000000	6.618965	-0.009552	NaN	0.000000	0.001666	0.001723	28.0834	0.007045	0.002010	3.505107	-134.979	-165.693	0.009833	0.617108	-0.386524	-0.387844	-0.009552	3.505107	-0.384480	-80193.5	1.191123E-7	NaN
1100	1.000000	0.626456	7.37582e+06	-55139.1	1055.82	-29742.2	0.000000	0.000000	6.626993	-0.025380	NaN	0.000000	0.001665	0.001717	28.0832	0.087761	0.001935	45.352	92.215	-163.333	-0.027642	0.625139	-0.378496	-0.379813	-0.025380	45.352	-0.378076	-64903.3	3.910415E-7	NaN
1100	1.000000	0.634454	7.37582e+06	-55139.1	1055.82	-29742.2	0.000000	0.000000	6.634992	-0.013821	NaN	0.000000	0.001681	0.001741	28.0833	0.122912	0.002000	61.4701	-173.452	-166.134	0.042305	0.633171	-0.370497	-0.371781	-0.013821	61.4701	-0.370329	-50218.2	2.752122E-7	NaN
1100	1.000000	0.642461	7.37582e+06	-55139.1	1055.82	-29742.2	0.000000	0.000000	6.642998	-0.032427	NaN	0.000000	0.001704	0.001754	28.0832	0.021030	0.001960	10.7306	-9.020980	-163.887	-0.074168	0.641141	-0.362491	-0.363810	-0.032427	10.7306	-0.360224	-35899.3	9.032789E-7	NaN
1100	1.000000	0.650466	7.37582e+06	-55139.1	1055.82	-29742.2	0.000000	0.000000	6.651002	-0.052488	NaN	0.000000	0.001693	0.001731	28.0833	0.066380	0.001907	34.8093	-147.334	-168.117	-0.018890	0.649159	-0.354485	-0.355793	-0.052488	34.8093	-0.353355	-28553.3	1.838260E-6	NaN
1100	1.000000	0.658520	7.37582e+06	-55139.1	1055.82	-29742.2	0.000000	0.000000	6.659054	-0.090941	NaN	0.000000	0.001660	0.001757	28.0834	0.085074	0.002051	41.4868	165.754	-164.249	-0.069333	0.657182	-0.346432	-0.347770	-0.090941	41.4868	-0.344788	-21442.3	4.241185E-6	NaN
1100	1.000000	0.666464	7.37582e+06	-55139.1	1055.82	-29742.2	0.000000	0.000000	6.666995	-0.179857	NaN	0.000000	0.001689	0.001744	28.0833	0.070380	0.001971	35.7123	63.231	-162.125	-0.097250	0.665177	-0.338487	-0.339775	-0.179857	35.7123	-0.334710	-15288.1	1.176450E-5	NaN
1100	1.000000	0.674481	7.37582e+06	-55139.1	1055.82	-29742.2	0.000000	0.000000	6.675018	-0.012849	NaN	0.000000	0.001644	0.001738	28.0834	0.121385	0.001948	62.3087	-136.309	-162.774	-0.021267	0.673181	-0.330471	-0.331771	-0.012849	62.3087	-0.330316	-13185	9.745489E-7	NaN
1100	1.000000	0.682458	7.37582e+06	-55139.1	1055.82	-29742.2	0.000000	0.000000	6.682991	-0.116437	NaN	0.000000	0.001642	0.001718	28.0833	0.048018	0.001905	25.2012	70.7773	-161.588	0.022009	0.681240	-0.322494	-0.323712	-0.116437	25.2012	-0.319028	-9001.88	1.293471E-5	NaN
1100	1.000000	0.690480	7.37582e+06	-55139.1	1055.82	-29742.2	0.000000	0.000000	6.691016	-0.039649	NaN	0.000000	0.001692	0.001700	28.0846	0.105624	0.001972	53.5629	-175.599	-167.246	-0.036375	0.689185	-0.314472	-0.315767	-0.039649	53.5629	-0.313917	-7567.59	5.239249E-6	NaN
1100	1.000000	0.698477	7.37582e+06	-55139.1	1055.82	-29742.2	0.000000	0.000000	6.699013	-0.042913	NaN	0.000000	0.001650	0.001757	28.0849	0.039300	0.001900	20.6835	167.896	-167.251	-0.046878	0.697176	-0.306475	-0.307776	-0.042913	20.6835	-0.304919	-5568.69	7.706054E-6	NaN
1100	1.000000	0.706464	7.37582e+06	-55139.1	1055.82	-29742.2	0.000000	0.000000	6.706999	-0.056337	NaN	0.000000	0.001668	0.001771	28.0849	0.075291	0.001938	38.8536	-19.4898	-166.733	-0.007456	0.705217	-0.298488	-0.299735	-0.056337	38.8536	-0.297400	-4304.32	1.308852E-5	NaN
1100	1.000000	0.714501	7.37582e+06	-55139.1	1055.82	-29742.2	0.000000	0.000000	6.715039	0.008751	NaN	0.000000	0.001662	0.001739	28.0845	0.100620	0.002010	50.0636	27.3965	-165.438	-0.038184	0.713226	-0.290451	-0.291726	0.008751	50.0636	-0.290582	-3404.2	-2.570625E-6	NaN
1100	1.000000	0.722497	7.37582e+06	-55139.1	1055.82	-29742.2	0.000000	0.000000	6.723034	-0.006583	NaN	0.000000	0.001648	0.001749	28.0845	0.065893	0.002001	32.9334	118.372	-164.955	-0.021343	0.721182	-0.282455	-0.283769	-0.006583	32.9334	-0.282305	-2556.92	2.574508E-6	NaN
1100	1.000000	0.730513	7.37582e+06	-55139.1	1055.82	-29742.2	0.000000	0.000000	6.731049	-0.042949	NaN	0.000000	0.001643	0.001757	28.0848	0.092333	0.002090	44.169	-17.7749	-163.874	-0.027382	0.729217	-0.274438	-0.275734	-0.042949	44.169	-0.273709	-1896.02	2.265228E-5	NaN
1100	1.000000	0.738504	7.37582e+06	-55139.1	1055.82	-29742.2	0.000000	0.000000	6.739040	-0.047401	NaN	0.000000	0.001676	0.001729	28.0852	0.063814	0.002045	31.1988	3.430913	-165.436	-0.036723	0.737188	-0.266447	-0.267764	-0.047401	31.1988	-0.265308	-1412.82	3.355036E-5	NaN
1100	1.000000	0.746497	7.37582e+06	-55139.1	1055.82	-29742.2	0.000000	0.000000	6.747035	0.014535	NaN	0.000000	0.001692	0.001726	28.0843	0.076686	0.001925	39.8394	-85.0735	-165.397	-0.084242	0.745161	-0.258455	-0.259791	0.014535	39.8394	-0.258728	-1120.51	-1.297160E-5	NaN
1100	1.000000	0.754504	7.37582e+06	-55139.1	1055.82	-29742.2	0.000000	0.000000	6.755042	0.010308	NaN	0.000000	0.001661	0.001741	28.0844	0.105102	0.002071	50.7592	-119.071	-163.984	-0.067975	0.753258	-0.250448	-0.251693	0.010308	50.7592	-0.250600	-839.942	-1.227241E-5	NaN
1100	1.000000	0.762508	7.37582e+06	-55139.1	1055.82	-29742.2	0.000000	0.000000	6.763044	-0.055696	NaN	0.000000	0.001676	0.001773	28.0844	0.120840	0.001910	63.2713	-36.2866	-162.467	-0.017352	0.761177	-0.242443	-0.243775	-0.055696	63.2713	-0.241783	-612.886	9.087518E-5	NaN
1100	1.000000	0.770536	7.37582e+06	-55139.1	1055.82	-29742.2	0.000000	0.000000	6.771072	-0.049264	NaN	0.000000	0.001692	0.001740	28.0845	0.097119	0.002048	47.4163	59.5202	-165.157	-0.105612	0.769194	-0.234416	-0.235758	-0.049264	47.4163	-0.233637	-456.902	0.000108	NaN
1100	1.000000	0.778497	7.37582e+06	-55139.1	1055.82	-29742.2	0.000000	0.000000	6.779031	-0.087766	NaN	0.000000	0.001707	0.001758	28.0847	0.014104	0.002062	6.841078	69.3845	-164.613	-0.035868	0.777218	-0.226454	-0.227734	-0.087766	6.841078	-0.216833	-247.147	0.000355	NaN
1100	1.000000	0.786546	7.37582e+06	-55139.1	1055.82	-29742.2	0.000000	0.000000	6.787080	-0.083191	NaN	0.000000	0.001702	0.001730	28.0845	0.066460	0.001860	35.7336	-4.127077	-162.841	-0.017916	0.785213	-0.218406	-0.219738	-0.083191	35.7336	-0.216660	-245.572	0.000339	NaN
1100	1.000000	0.794527	7.37582e+06	-55139.1	1055.82	-29742.2	0.000000	0.000000	6.795063	-0.049513	NaN	0.000000	0.001680	0.001742	28.0846	0.099984	0.001891	52.8694	156.934	-166.035	-0.080641	0.793175	-0.210425	-0.211777	-0.049513	52.8694	-0.209722	-189.81	0.000261	NaN
1100	1.000000	0.802509	7.37582e+06	-55139.1	1055.82	-29742.2	0.000000	0.000000	6.803046	-0.009584	NaN	0.000000	0.001689	0.001785	28.0846	0.041558	0.001866	22.2769	136.945	-166.471	0.055159	0.801237	-0.202443	-0.203714	-0.009584	22.2769	-0.202120	-142.721	6.715082E-5	NaN
1100	1.000000	0.810534	7.37582e+06	-55139.1	1055.82	-29742.2	0.000000	0.000000	6.811069	-0.047387	NaN	0.000000	0.001654	0.001749	28.0845	0.036753	0.001977	18.5908	37.9638	-165.441	-0.012509	0.809233	-0.194418	-0.195719	-0.047387	18.5908	-0.192506	-99.0396	0.000478	NaN
1100	1.000000	0.818538	7.37582e+06	-55139.1	1055.82	-29742.2	0.000000	0.000000	6.819075	-0.011189	NaN	0.000000	0.001665	0.001744	28.0845	0.048591	0.002136	22.7474	26.1881	-168.516	0.040401	0.817223	-0.186414	-0.187729	-0.011189	22.7474	-0.186045	-77.2206	0.000145	NaN
1100	1.000000	0.826481	7.37582e+06	-55139.1	1055.82	-29742.2	0.000000	0.000000	6.827016	-0.063283	NaN	0.000000	0.001674	0.001727	28.0833	0.136599	0.001997	68.4004	153.771	-165.462	-0.103114	0.825177	-0.178471	-0.179775	-0.063283	68.4004	-0.177777	-55.9194	0.001132	NaN
1100	1.000000	0.834538	7.37582e+06	-55139.1	1055.82	-29742.2	0.000000	0.000000	6.835074	-0.039356	NaN	0.000000	0.001672	0.001749	28.0837	0.032734	0.001869	17.5155	11.8537	-164.177	-0.024522	0.833189	-0.170414	-0.171763	-0.039356	17.5155	-0.168728	-39.0393	0.001008	NaN
1100	1.000000	0.842570	7.37582e+06	-55139.1	1055.82	-29742.2	0.000000	0.000000	6.843107	-0.030149	NaN	0.000000	0.001701	0.001737	28.0838	0.104514	0.001962	53.2592	-138.285	-164.991	0.059536	0.841255	-0.162381	-0.163697	-0.030149	53.2592	-0.161957	-29.6946	0.001015	NaN
1100	1.000000	0.850536	7.37582e+06	-55139.1	1055.82	-29742.2	0.000000	0.000000	6.851072	-0.042091	NaN	0.000000	0.001656	0.001705	28.0834	0.005066	0.002155	2.350916	-4.373505	-165.635	-0.077893	0.849207	-0.154416	-0.155745	-0.042091	2.350916	-0.140988	-12.3451	0.003410	NaN
1100	1.000000	0.858543	7.37582e+06	-55139.1	1055.82	-29742.2	0.000000	0.000000	6.859084	0.063619	NaN	0.000000	0.001664	0.001753	28.0834	0.146849	0.001885	77.8951	-105.323	-165.398	-0.029579	0.857231	-0.146408	-0.147721	0.063619	77.8951	-0.147021	-15.9752	-0.003982	NaN
1100	1.000000	0.866579	7.37582e+06	-55139.1	1055.82	-29742.2	0.000000	0.000000	6.867115	-0.043882	NaN	0.000000	0.001656	0.001738	28.0834	0.058404	0.002072	28.1891	-37.881	-162.883	-0.023505	0.865263	-0.138373	-0.139689	-0.043882	28.1891	-0.137205	-10.4769	0.004188	NaN
1100	1.000000	0.874583	7.37582e+06	-55139.1	1055.82	-29742.2	0.000000	0.000000	6.875117	-0.074708	NaN	0.000000	0.001679	0.001772	28.0837	0.150151	0.002032	73.8803	172.877	-162.89	-0.047874	0.873252	-0.130369	-0.131699	-0.074708	73.8803	-0.129611	-7.489357	0.009975	NaN
1100	1.000000	0.882534	7.37582e+06	-55139.1	1055.82	-29742.2	0.000000	0.000000	6.883070	-0.036220	NaN	0.000000	0.001692	0.001748	28.0836	0.137055	0.001944	70.5113	42.5948	-164.847	0.039172	0.881258	-0.122418	-0.123694	-0.036220	70.5113	-0.122032	-5.308016	0.006824	NaN
1100	1.000000	0.890591	7.37582e+06	-55139.1	1055.82	-29742.2	0.000000	0.000000	6.891123	-0.129842	NaN	0.000000	0.001722	0.001761	28.0836	0.040301	0.002079	19.3842	-82.1	-163.912	-0.029843	0.889249	-0.114361	-0.115703	-0.129842	19.3842	-0.109337	-2.909918	0.044621	NaN
1100	1.000000	0.898568	7.37582e+06	-55139.1	1055.82	-29742.2	0.000000	0.000000	6.899104	-0.025445	NaN	0.000000	0.001675	0.001771	28.0834	0.064501	0.001991	32.3981	139.443	-165.588	-0.048093	0.897258	-0.106384	-0.107694	-0.025445	32.3981	-0.105795	-2.445221	0.010406	NaN
1100	1.000000	0.906557	7.37582e+06	-55139.1	1055.82	-29742.2	0.000000	0.000000	6.907094	-0.029496	NaN	0.000000	0.001696	0.001731	28.0835	0.082656	0.002078	39.7713	105.813	-167.016	-0.071035	0.905254	-0.098394	-0.099698	-0.029496	39.7713	-0.097838	-1.635200	0.018038	NaN
1100	1.000000	0.914573	7.37582e+06	-55139.1	1055.82	-29742.2	0.000000	0.000000	6.915106	-0.110997	NaN	0.000000	0.001659	0.001740	28.0835	0.017170	0.001993	8.613907	-23.0104	-163.783	-0.203355	0.913248	-0.090379	-0.091704	-0.110997	8.613907	-0.080714	-0.644922	0.172108	NaN
1100	1.000000	0.922584	7.37582e+06	-55139.1	1055.82	-29742.2	0.000000	0.000000	6.923120	-0.043594	NaN	0.000000	0.001700	0.001749	28.0835	0.015364	0.002037	7.540790	-101.031	-163.859	-0.080541	0.921274	-0.082368	-0.083678	-0.043594	7.540790	-0.078032	-0.552267	0.078936	NaN
1100	1.000000	0.930589	7.37582e+06	-55139.1	1055.82	-29742.2	0.000000	0.000000	6.931126	-0.028900	NaN	0.000000	0.001689	0.001714	28.084	0.085238	0.001958	43.5403	37.5502	-165.287	-0.073617	0.929312	-0.074363	-0.075640	-0.028900	43.5403	-0.073865	-0.431554	0.066968	NaN
1100	1.000000	0.938601	7.37582e+06	-55139.1	1055.82	-29742.2	0.000000	0.000000	6.939139	0.000598	NaN	0.000000	0.001714	0.001696	28.0833	0.053309	0.002143	24.8727	-172.426	-166.235	0.058472	0.937274	-0.066351	-0.067678	0.000598	24.8727	-0.066369	-0.271877	-0.002201	NaN
1100	1.000000	0.946593	7.37582e+06	-55139.1	1055.82	-29742.2	0.000000	0.000000	6.947134	0.079174	NaN	0.000000	0.001681	0.001742	28.083	0.042395	0.002027	20.9203	-155.293	-167.773	0.029592	0.945274	-0.058359	-0.059678	0.079174	20.9203	-0.061197	-0.194852	-0.406327	NaN
1100	1.000000	0.954608	7.37582e+06	-55139.1	1055.82	-29742.2	0.000000	0.000000	6.955144	-0.041473	NaN	0.000000	0.001738	0.001752	28.0834	0.047391	0.001908	24.8371	-123.919	-163.616	0.033512	0.953269	-0.050343	-0.051683	-0.041473	24.8371	-0.049091	-0.085646	0.484236	NaN
1100	1.000000	0.962610	7.37582e+06	-55139.1	1055.82	-29742.2	0.000000	0.000000	6.963149	0.019489	NaN	0.000000	0.001705	0.001785	28.0846	0.102559	0.002085	49.1859	177.56	-164.498	0.018332	0.961287	-0.042341	-0.043665	0.019489	49.1859	-0.042639	-0.054423	-0.358097	NaN
1100	1.000000	0.970590	7.37582e+06	-55139.1	1055.82	-29742.2	0.000000	0.000000	6.971127	-0.000247	NaN	0.000000	0.001677	0.001755	28.0849	0.035031	0.002031	17.2521	-21.9999	-165.436	-0.014837	0.969289	-0.034362	-0.035663	-0.000247	17.2521	-0.034352	-0.030651	0.008073	NaN
1100	1.000000	0.978610	7.37582e+06	-55139.1	1055.82	-29742.2	0.000000	0.000000	6.979148	0.005912	NaN	0.000000	0.001703	0.001738	28.0849	0.070039	0.002007	34.8997	120.587	-166.152	-0.015706	0.977300	-0.026342	-0.027652	0.005912	34.8997	-0.026469	-0.018443	-0.320562	NaN
1100	1.000000	0.986612	7.37582e+06	-55139.1	1055.82	-29742.2	0.000000	0.000000	6.987181	0.773499	NaN	0.000000	0.001712	0.001742	28.0849	0.771641	0.001986	388.575	20.6399	-163.119	0.803568	0.985291	-0.018340	-0.019661	0.773499	388.575	-0.019833	-0.012439	-62.1855	NaN
1100	1.000000	0.994572	7.37582e+06	-55139.1	1055.82	-29742.2	0.000000	0.000000	6.995113	0.064694	NaN	0.000000	0.001699	0.001752	28.0845	0.326663	0.002019	161.79	63.2493	-164.737	0.054361	0.993309	-0.010379	-0.011643	0.064694	161.79	-0.010679	-0.006775	-9.548519	NaN
1100	1.000000	1.002594	7.37582e+06	-55139.1	1055.82	-29742.2	0.000000	0.000000	7.003191	1.432277	NaN	0.000000	0.001678	0.001773	28.0846	2.196145	0.001830	1200.12	10.8562	-164.452	0.549714	1.001298	-0.002357	-0.003654	1.432277	1200.12	-0.003252	-0.002289	-625.779	NaN
1100	2.000000	1.008152	7.37582e+06	-55139.1	1055.82	-29742.2	0.000000	0.000000	7.009278	14.3	NaN	0.000000	0.001711	0.001762	28.0848	10.5073	0.001557	6748.66	4.563909	-171.201	13.4262	1.007861	0.003200	0.002909	14.3	6748.66	0.001611	0.001243	11507.9	174912
1100	2.000000	1.010115	7.37582e+06	-55139.1	1055.82	-29742.2	0.000000	0.000000	7.011656	24.4045	NaN	0.000000	0.001730	0.001743	28.0852	14.0244	0.001567	8949.1	4.433054	-174.633	22.9162	1.009786	0.005163	0.004834	24.4045	8949.1	0.003118	0.002479	9843.89	164210
1100	2.000000	1.012121	7.37582e+06	-55139.1	1055.82	-29742.2	0.000000	0.000000	7.014268	39.1276	NaN	0.000000	0.001691	0.001728	28.0852	17.3298	0.001699	10198.1	2.355370	-172.153	36.4674	1.011769	0.007169	0.006817	39.1276	10198.1	0.004292	0.003496	11192.1	157582
1100	2.000000	1.014080	7.37582e+06	-55139.1	1055.82	-29742.2	0.000000	0.000000	7.016778	52.5254	NaN	0.000000	0.001714	0.001739	28.0846	20.6589	0.001556	13278.2	7.606639	178.288	51.0928	1.013770	0.009128	0.008818	52.5254	13278.2	0.006161	0.005218	10066.1	167942
1100	2.000000	1.016050	7.37582e+06	-55139.1	1055.82	-29742.2	0.000000	0.000000	7.019314	66.2771	NaN	0.000000	0.001705	0.001789	28.0846	24.2286	0.001847	13119.7	7.213169	-178.917	63.2991	1.015782	0.011098	0.010830	66.2771	13119.7	0.007310	0.006342	10450.8	150519
1100	2.000000	1.018071	7.37582e+06	-55139.1	1055.82	-29742.2	0.000000	0.000000	7.021903	80.0729	NaN	0.000000	0.001683	0.001764	28.0846	25.448	0.001727	14736.4	6.697322	179.728	78.4708	1.017697	0.013119	0.012745	80.0729	14736.4	0.009044	0.008138	9838.83	149243
1100	2.000000	1.020031	7.37582e+06	-55139.1	1055.82	-29742.2	0.000000	0.000000	7.024533	96.3797	NaN	0.000000	0.001729	0.001771	28.0846	27.4594	0.001743	15756.2	0.275496	-174.671	93.5894	1.019765	0.015079	0.014813	96.3797	15756.2	0.010491	0.009732	9903.06	145920
1100	2.000000	1.022052	7.37582e+06	-55139.1	1055.82	-29742.2	0.000000	0.000000	7.027341	115.505	NaN	0.000000	0.001695	0.001753	28.0849	30.253	0.001757	17222.7	3.377766	-178.254	112.751	1.021678	0.017100	0.016726	115.505	17222.7	0.012070	0.011574	9979.87	146264
1100	2.000000	1.024021	7.37582e+06	-55139.1	1055.82	-29742.2	0.000000	0.000000	7.029763	126.524	NaN	0.000000	0.001672	0.001720	28.0848	31.9551	0.001696	18843.2	3.888064	179.9	124.944	1.023829	0.019069	0.018877	126.524	18843.2	0.014033	0.014017	9026.16	145409
1100	2.000000	1.026019	7.37582e+06	-55139.1	1055.82	-29742.2	0.000000	0.000000	7.032744	150.422	NaN	0.000000	0.001662	0.001807	28.0846	35.079	0.001906	18400.1	5.159191	179.921	147.374	1.025633	0.021067	0.020681	150.422	18400.1	0.014936	0.015199	9896.54	136357
1100	2.000000	1.027980	7.37582e+06	-55139.1	1055.82	-29742.2	0.000000	0.000000	7.035453	168.581	NaN	0.000000	0.001651	0.001738	28.0841	35.1713	0.001753	20065.6	1.561747	-177.677	164.173	1.027644	0.023028	0.022692	168.581	20065.6	0.016727	0.017658	9546.99	137960
1100	2.000000	1.030056	7.37582e+06	-55139.1	1055.82	-29742.2	0.000000	0.000000	7.038185	184.548	NaN	0.000000	0.001635	0.001768	28.0837	38.6982	0.001708	22659.7	8.268618	174.997	183.863	1.029649	0.025104	0.024697	184.548	22659.7	0.018996	0.020989	8792.52	142900
1100	2.000000	1.031977	7.37582e+06	-55139.1	1055.82	-29742.2	0.000000	0.000000	7.040280	188.76	NaN	0.000000	0.001693	0.001766	28.0832	40.5328	0.001804	22462.6	3.335407	179.173	181.516	1.031618	0.027025	0.026666	188.76	22462.6	0.020723	0.023691	7967.5	133334
1100	2.000000	1.034018	7.37582e+06	-55139.1	1055.82	-29742.2	0.000000	0.000000	7.043158	209.125	NaN	0.000000	0.001698	0.001757	28.0833	42.0028	0.001793	23427.5	2.587568	179.618	206.312	1.033689	0.029066	0.028737	209.125	23427.5	0.022371	0.026406	7919.73	131720
1100	2.000000	1.035936	7.37582e+06	-55139.1	1055.82	-29742.2	0.000000	0.000000	7.046017	231.969	NaN	0.000000	0.001687	0.001732	28.0835	45.4398	0.001915	23734.2	4.828631	177.622	226.113	1.035647	0.030985	0.030695	231.969	23734.2	0.023654	0.028613	8107.11	128193
1100	2.000000	1.038003	7.37582e+06	-55139.1	1055.82	-29742.2	0.000000	0.000000	7.048829	250.117	NaN	0.000000	0.001687	0.001724	28.0839	46.0545	0.001755	26235.1	0.503864	-179.35	247.241	1.037648	0.033051	0.032696	250.117	26235.1	0.025901	0.032675	7654.79	132602
1100	2.000000	1.040012	7.37582e+06	-55139.1	1055.82	-29742.2	0.000000	0.000000	7.051665	270.204	NaN	0.000000	0.001678	0.001738	28.0839	49.0243	0.001649	29727.4	3.769263	177.087	271.133	1.039696	0.035060	0.034744	270.204	29727.4	0.028243	0.037181	7267.26	140854
1100	2.000000	1.041922	7.37582e+06	-55139.1	1055.82	-29742.2	0.000000	0.000000	7.054655	296.47	NaN	0.000000	0.001734	0.001748	28.0834	51.8494	0.001968	26347.1	5.930654	176.92	288.795	1.041620	0.036970	0.036668	296.47	26347.1	0.028531	0.037754	7852.75	123887
1100	2.000000	1.043928	7.37582e+06	-55139.1	1055.82	-29742.2	0.000000	0.000000	7.056670	296.673	NaN	0.000000	0.001681	0.001742	28.0833	53.7212	0.001841	29176.5	5.218776	175.435	290.388	1.043592	0.038977	0.038640	296.673	29176.5	0.031350	0.043589	6806.12	127678
1100	2.000000	1.046033	7.37582e+06	-55139.1	1055.82	-29742.2	0.000000	0.000000	7.059407	312.036	NaN	0.000000	0.001657	0.001732	28.0833	55.326	0.001844	30001.8	0.382011	179.891	310.195	1.045852	0.041081	0.040900	312.036	30001.8	0.033281	0.047819	6525.41	125350
1100	2.000000	1.048031	7.37582e+06	-55139.1	1055.82	-29742.2	0.000000	0.000000	7.063036	351.68	NaN	0.000000	0.001675	0.001746	28.0833	56.8978	0.001856	30649.9	4.041860	177.361	352.156	1.047634	0.043079	0.042682	351.68	30649.9	0.034474	0.050528	6960.12	124577
1100	2.000000	1.049931	7.37582e+06	-55139.1	1055.82	-29742.2	0.000000	0.000000	7.064896	350.728	NaN	0.000000	0.001685	0.001739	28.0833	58.7556	0.001880	31252.2	2.467763	177.062	345.322	1.049743	0.044979	0.044791	350.728	31252.2	0.036562	0.055445	6325.65	121261
1100	2.000000	1.052211	7.37582e+06	-55139.1	1055.82	-29742.2	0.000000	0.000000	7.068374	379.831	NaN	0.000000	0.001642	0.001766	28.0831	59.6467	0.002024	29465	8.425423	175.503	387.953	1.051621	0.047259	0.046669	379.831	29465	0.037591	0.057951	6554.37	111828
1100	2.000000	1.053845	7.37582e+06	-55139.1	1055.82	-29742.2	0.000000	0.000000	7.070772	398.407	NaN	0.000000	0.001677	0.001769	28.0837	61.8207	0.001754	35244.4	5.393272	173.134	389.282	1.053520	0.048893	0.048569	398.407	35244.4	0.040415	0.065106	6119.35	126198
1100	2.000000	1.055912	7.37582e+06	-55139.1	1055.82	-29742.2	0.000000	0.000000	7.073192	407.012	NaN	0.000000	0.001694	0.001781	28.0833	63.5993	0.001710	37183.8	1.117673	177.711	401.276	1.055749	0.050960	0.050797	407.012	37183.8	0.042750	0.071329	5706.1	127202
1100	2.000000	1.057913	7.37582e+06	-55139.1	1055.82	-29742.2	0.000000	0.000000	7.077273	457.558	NaN	0.000000	0.001661	0.001746	28.0832	64.1973	0.001756	36549	2.335675	177.261	451.884	1.057580	0.052961	0.052628	457.558	36549	0.043572	0.073585	6218.11	123099
1100	2.000000	1.059881	7.37582e+06	-55139.1	1055.82	-29742.2	0.000000	0.000000	7.079597	466.222	NaN	0.000000	0.001658	0.001722	28.0834	67.311	0.001840	36573.5	1.171592	178.593	459.819	1.059591	0.054929	0.054639	466.222	36573.5	0.045368	0.078637	5928.82	119159
1100	2.000000	1.061958	7.37582e+06	-55139.1	1055.82	-29742.2	0.000000	0.000000	7.082702	491.193	NaN	0.000000	0.001670	0.001728	28.0828	69.957	0.001928	36293.5	2.487081	177.116	486.548	1.061614	0.057006	0.056662	491.193	36293.5	0.046856	0.082944	5922.02	115136
1100	2.000000	1.064020	7.37582e+06	-55139.1	1055.82	-29742.2	0.000000	0.000000	7.085133	500.181	NaN	0.000000	0.001671	0.001721	28.0846	71.2932	0.001775	40160.2	2.637332	175.933	498.059	1.063865	0.059068	0.058913	500.181	40160.2	0.049727	0.091571	5462.2	121252
1100	2.000000	1.066048	7.37582e+06	-55139.1	1055.82	-29742.2	0.000000	0.000000	7.088593	534.991	NaN	0.000000	0.001680	0.001765	28.0843	74.7775	0.001873	39933.2	5.775764	173.932	537.157	1.065617	0.061096	0.060665	534.991	39933.2	0.051048	0.095681	5591.42	117949
1100	2.000000	1.067897	7.37582e+06	-55139.1	1055.82	-29742.2	0.000000	0.000000	7.091395	558.155	NaN	0.000000	0.001696	0.001731	28.0844	74.1428	0.001797	41253.8	2.082093	176.304	553.167	1.067608	0.062945	0.062656	558.155	41253.8	0.052798	0.101257	5512.29	118448
1100	2.000000	1.069869	7.37582e+06	-55139.1	1055.82	-29742.2	0.000000	0.000000	7.093750	567.442	NaN	0.000000	0.001689	0.001713	28.0843	74.6248	0.001825	40897.5	-1.078048	179.482	559.54	1.069484	0.064918	0.064532	567.442	40897.5	0.054512	0.106866	5309.82	114301
1100	2.000000	1.072030	7.37582e+06	-55139.1	1055.82	-29742.2	0.000000	0.000000	7.097629	609.243	NaN	0.000000	0.001718	0.001756	28.0842	79.083	0.001866	42379.4	7.723676	171.534	608.808	1.071635	0.067078	0.066683	609.243	42379.4	0.056296	0.112861	5398.15	115254
1100	2.000000	1.073870	7.37582e+06	-55139.1	1055.82	-29742.2	0.000000	0.000000	7.100653	638.011	NaN	0.000000	0.001727	0.001710	28.085	78.3262	0.001824	42947	3.810660	174.355	631.99	1.073514	0.068918	0.068562	638.011	42947	0.057776	0.117956	5408.89	114247
1100	2.000000	1.075814	7.37582e+06	-55139.1	1055.82	-29742.2	0.000000	0.000000	7.102172	627.67	NaN	0.000000	0.001693	0.001730	28.0844	80.1483	0.001849	43338.1	1.240686	176.553	616.502	1.075471	0.070862	0.070520	627.67	43338.1	0.059999	0.125806	4989.18	111633
1100	2.000000	1.077913	7.37582e+06	-55139.1	1055.82	-29742.2	0.000000	0.000000	7.105769	664.091	NaN	0.000000	0.001720	0.001722	28.0845	80.0354	0.001860	43034.1	1.460192	177.039	659.243	1.077710	0.072961	0.072758	664.091	43034.1	0.061387	0.130830	5075.97	108700
1100	2.000000	1.079923	7.37582e+06	-55139.1	1055.82	-29742.2	0.000000	0.000000	7.108873	690.696	NaN	0.000000	0.001691	0.001687	28.0843	83.9827	0.001817	46210.1	1.906185	175.864	685.216	1.079543	0.074971	0.074591	690.696	46210.1	0.063761	0.139638	4946.33	112982
1100	2.000000	1.081969	7.37582e+06	-55139.1	1055.82	-29742.2	0.000000	0.000000	7.110231	673.973	NaN	0.000000	0.001700	0.001733	28.0843	85.7021	0.001753	48884.4	4.128220	172.605	669.509	1.081841	0.077017	0.076889	673.973	48884.4	0.066676	0.150831	4468.39	115000
1100	2.000000	1.083866	7.37582e+06	-55139.1	1055.82	-29742.2	0.000000	0.000000	7.114626	734.674	NaN	0.000000	0.001713	0.001698	28.086	87.1863	0.001707	51067.7	4.762895	172.27	729.124	1.083584	0.078914	0.078633	734.674	51067.7	0.068125	0.156543	4693.12	117924
1100	2.000000	1.085935	7.37582e+06	-55139.1	1055.82	-29742.2	0.000000	0.000000	7.117309	749.604	NaN	0.000000	0.001696	0.001691	28.0842	89.5155	0.001810	49454.7	2.368518	174.608	745.473	1.085668	0.080983	0.080716	749.604	49454.7	0.069615	0.162526	4612.22	112078
1100	2.000000	1.087962	7.37582e+06	-55139.1	1055.82	-29742.2	0.000000	0.000000	7.120812	785.482	NaN	0.000000	0.001721	0.001725	28.0845	90.7894	0.001803	50362.7	5.768818	171.689	783.442	1.087543	0.083010	0.082592	785.482	50362.7	0.071313	0.169468	4634.97	111773
1100	2.000000	1.089956	7.37582e+06	-55139.1	1055.82	-29742.2	0.000000	0.000000	7.123607	804.946	NaN	0.000000	0.001693	0.001745	28.0842	94.3424	0.001885	50047.4	9.422801	168.89	803.197	1.089444	0.085004	0.084492	804.946	50047.4	0.072942	0.176260	4566.82	108913
1100	2.000000	1.092009	7.37582e+06	-55139.1	1055.82	-29742.2	0.000000	0.000000	7.126269	819.762	NaN	0.000000	0.001689	0.001731	28.0843	95.9016	0.001872	51238.3	5.765234	171.823	821.184	1.091576	0.087057	0.086624	819.762	51238.3	0.075058	0.185268	4424.72	108759
1100	2.000000	1.093890	7.37582e+06	-55139.1	1055.82	-29742.2	0.000000	0.000000	7.128882	837.559	NaN	0.000000	0.001704	0.001685	28.0845	95.516	0.001832	52139.7	2.097779	175.109	833.897	1.093613	0.088938	0.088661	837.559	52139.7	0.076890	0.193240	4334.29	108366
1100	2.000000	1.095879	7.37582e+06	-55139.1	1055.82	-29742.2	0.000000	0.000000	7.132197	869.791	NaN	0.000000	0.001708	0.001713	28.0843	97.2606	0.001790	54337.4	-0.291143	177.122	864.763	1.095600	0.090927	0.090648	869.791	54337.4	0.078921	0.202261	4300.35	110387
1100	2.000000	1.097893	7.37582e+06	-55139.1	1055.82	-29742.2	0.000000	0.000000	7.134964	888.107	NaN	0.000000	0.001717	0.001758	28.0838	98.1742	0.001859	52798.1	3.951688	173.015	882.343	1.097533	0.092941	0.092581	888.107	52798.1	0.080325	0.208608	4257.31	105615
1100	2.000000	1.100084	7.37582e+06	-55139.1	1055.82	-29742.2	0.000000	0.000000	7.136825	880.079	NaN	0.000000	0.001670	0.001711	28.0831	100.979	0.001810	55777.6	0.386780	175.838	884.582	1.100012	0.095132	0.095060	880.079	55777.6	0.083298	0.222350	3958.07	108072
1100	2.000000	1.101895	7.37582e+06	-55139.1	1055.82	-29742.2	0.000000	0.000000	7.140466	924.553	NaN	0.000000	0.001696	0.001731	28.0831	103.143	0.001881	54837.5	5.744581	172.034	920.634	1.101443	0.096943	0.096491	924.553	54837.5	0.084298	0.227065	4071.76	105142
1100	2.000000	1.103744	7.37582e+06	-55139.1	1055.82	-29742.2	0.000000	0.000000	7.143233	946.877	NaN	0.000000	0.001686	0.001747	28.0837	105.026	0.001791	58647.2	6.966818	168.951	936.321	1.103390	0.098792	0.098438	946.877	58647.2	0.086683	0.238496	3970.21	109719
1100	2.000000	1.105889	7.37582e+06	-55139.1	1055.82	-29742.2	0.000000	0.000000	7.146199	966.822	NaN	0.000000	0.001692	0.001742	28.0831	107.66	0.001894	56829.4	5.406561	170.969	962.14	1.105564	0.100938	0.100612	966.822	56829.4	0.088178	0.245795	3933.45	104727