File: remote_trans/data/nanoindenter/0828-1/data/Data_2025-08-06,11h17m57s/2025-07-22_16-23-58_1_170.txt
2025-07-22, 16:23:58, 1
Index	Phase	Displacement	Time	Pos X	Pos Y	Pos Z	Rot A	Rot B	Piezo Z	Force A	Force B	Gripper	Voltage A	Voltage B	Temperature	Amplitude force	Amplitude pos	Stiffness	Phase shift	Phase excitation	Force A raw	Displacement raw	HMax	HMax raw	Real Force	Real Stiffness	Contact Depth	Area	Hardness	Reduced Mod.
[#]	[#]	[um]	[s]	[um]	[um]	[um]	[m°]	[m°]	[um]	[uN]	[uN]	[V]	[V]	[V]	[°C]	[uN]	[um]	[N/m]	[°]	[°]	[uN]	[um]	[um]	[um]	[uN]	[N/m]	[um]	[um^2]	[MPa]	[MPa]
170	1.000000	0.002480	7.3667e+06	-47139.1	955.818	-29767.3	0.000000	0.000000	6.002785	0.034266	NaN	0.000000	0.001674	0.001669	28.0972	0.051350	0.001044	49.1724	81.6606	-162.587	0.008016	0.001240	-1.079461	-1.080702	0.034266	49.1724	-1.079984	-2.699627E+14	-1.269278E-16	NaN
170	1.000000	0.010435	7.3667e+06	-47139.1	955.819	-29767.3	0.000000	0.000000	6.010740	0.024093	NaN	0.000000	0.001702	0.001667	28.0955	0.163218	0.001090	149.75	81.3592	-166.272	0.022390	0.009107	-1.071506	-1.072835	0.024093	149.75	-1.071627	-2.084721E+14	-1.155697E-16	NaN
170	1.000000	0.018468	7.3667e+06	-47139.1	955.819	-29767.3	0.000000	0.000000	6.018775	0.077130	NaN	0.000000	0.001632	0.001683	28.0949	0.103272	0.001727	59.8152	116.416	-166.924	0.059929	0.017142	-1.063474	-1.064799	0.077130	59.8152	-1.064441	-1.669151E+14	-4.620930E-16	NaN
170	1.000000	0.026465	7.3667e+06	-47139.1	955.818	-29767.3	0.000000	0.000000	6.026768	-0.015660	NaN	0.000000	0.001635	0.001635	28.0952	0.039556	0.001914	20.6629	-50.558	-166.067	0.012728	0.025215	-1.055477	-1.056726	-0.015660	20.6629	-1.054909	-1.242782E+14	1.260110E-16	NaN
170	1.000000	0.034498	7.3667e+06	-47139.1	955.819	-29767.3	0.000000	0.000000	6.034799	-0.046441	NaN	0.000000	0.001594	0.001663	28.0939	0.043938	0.001853	23.7094	73.2252	-166.889	-0.055793	0.033095	-1.047444	-1.048847	-0.046441	23.7094	-1.045975	-9.425443E+13	4.927152E-16	NaN
170	1.000000	0.042436	7.3667e+06	-47139.1	955.819	-29767.3	0.000000	0.000000	6.042741	0.026885	NaN	0.000000	0.001637	0.001657	28.0944	0.118800	0.001976	60.1098	-83.2531	-163.845	-0.016537	0.041142	-1.039505	-1.040800	0.026885	60.1098	-1.039841	-7.795187E+13	-3.448880E-16	NaN
170	1.000000	0.050443	7.3667e+06	-47139.1	955.818	-29767.3	0.000000	0.000000	6.050749	0.066683	NaN	0.000000	0.001640	0.001723	28.0953	0.022572	0.002007	11.2453	104.914	-165.487	0.053666	0.049180	-1.031499	-1.032762	0.066683	11.2453	-1.035947	-6.909708E+13	-9.650675E-16	NaN
170	1.000000	0.058453	7.3667e+06	-47139.1	955.818	-29767.3	0.000000	0.000000	6.058758	0.038289	NaN	0.000000	0.001660	0.001673	28.096	0.115776	0.001878	61.6546	-23.4282	-166.716	0.029468	0.057124	-1.023488	-1.024817	0.038289	61.6546	-1.023954	-4.765985E+13	-8.033726E-16	NaN
170	1.000000	0.066466	7.3667e+06	-47139.1	955.819	-29767.3	0.000000	0.000000	6.066770	0.016440	NaN	0.000000	0.001615	0.001647	28.0963	0.043535	0.002041	21.332	137.578	-164.257	0.110867	0.065149	-1.015476	-1.016793	0.016440	21.332	-1.016054	-3.731280E+13	-4.405947E-16	NaN
170	1.000000	0.074455	7.3667e+06	-47139.1	955.818	-29767.3	0.000000	0.000000	6.074758	-0.015951	NaN	0.000000	0.001660	0.001628	28.0961	0.089990	0.002070	43.4642	139.339	-162.228	0.023983	0.073167	-1.007487	-1.008774	-0.015951	43.4642	-1.007212	-2.836965E+13	5.622653E-16	NaN
170	1.000000	0.082442	7.3667e+06	-47139.1	955.818	-29767.3	0.000000	0.000000	6.082747	0.039783	NaN	0.000000	0.001645	0.001628	28.0957	0.027671	0.001945	14.2301	-51.9829	-162.918	0.059492	0.081179	-0.999500	-1.000762	0.039783	14.2301	-1.001597	-2.383792E+13	-1.668914E-15	NaN
170	1.000000	0.090470	7.3667e+06	-47139.1	955.819	-29767.3	0.000000	0.000000	6.090776	0.045375	NaN	0.000000	0.001689	0.001601	28.0958	0.061021	0.002023	30.1688	-144.158	-163.202	0.027869	0.089153	-0.991472	-0.992789	0.045375	30.1688	-0.992600	-1.803521E+13	-2.515915E-15	NaN
170	1.000000	0.098444	7.3667e+06	-47139.1	955.819	-29767.3	0.000000	0.000000	6.098749	0.030132	NaN	0.000000	0.001655	0.001667	28.095	0.036203	0.002040	17.7465	53.751	-166.246	0.017847	0.097177	-0.983498	-0.984765	0.030132	17.7465	-0.984771	-1.414772E+13	-2.129788E-15	NaN
170	1.000000	0.106447	7.3667e+06	-47139.1	955.82	-29767.3	0.000000	0.000000	6.106755	0.114135	NaN	0.000000	0.001658	0.001656	28.095	0.084947	0.001902	44.6683	-87.0827	-165.145	0.093736	0.105154	-0.975495	-0.976788	0.114135	44.6683	-0.977411	-1.125979E+13	-1.013650E-14	NaN
170	1.000000	0.114485	7.3667e+06	-47139.1	955.818	-29767.3	0.000000	0.000000	6.114793	0.108971	NaN	0.000000	0.001684	0.001675	28.0954	0.009384	0.002075	4.522714	-48.3739	-164.638	0.045881	0.113168	-0.967457	-0.968773	0.108971	4.522714	-0.985528	-1.448349E+13	-7.523799E-15	NaN
170	1.000000	0.122470	7.3667e+06	-47139.1	955.819	-29767.3	0.000000	0.000000	6.122773	-0.006179	NaN	0.000000	0.001617	0.001664	28.0944	0.065968	0.002093	31.5207	-119.344	-167.735	0.051633	0.121107	-0.959472	-0.960835	-0.006179	31.5207	-0.959325	-6.423363E+12	9.619438E-16	NaN
170	1.000000	0.130496	7.3667e+06	-47139.1	955.817	-29767.3	0.000000	0.000000	6.130802	0.063440	NaN	0.000000	0.001609	0.001634	28.0955	0.084103	0.002033	41.3716	172.96	-165.75	0.090632	0.129187	-0.951446	-0.952755	0.063440	41.3716	-0.952596	-5.212361E+12	-1.217111E-14	NaN
170	1.000000	0.138460	7.3667e+06	-47139.1	955.819	-29767.3	0.000000	0.000000	6.138763	-0.014405	NaN	0.000000	0.001610	0.001655	28.0963	0.064998	0.002016	32.2462	124.677	-163.551	-0.056584	0.137202	-0.943481	-0.944740	-0.014405	32.2462	-0.943146	-3.886719E+12	3.706084E-15	NaN
170	1.000000	0.146486	7.3667e+06	-47139.1	955.818	-29767.3	0.000000	0.000000	6.146791	0.054339	NaN	0.000000	0.001609	0.001653	28.0978	0.097481	0.001881	51.8324	-176.931	-166.193	-0.039585	0.145162	-0.935456	-0.936780	0.054339	51.8324	-0.936242	-3.136453E+12	-1.732512E-14	NaN
170	1.000000	0.154504	7.3667e+06	-47139.1	955.819	-29767.3	0.000000	0.000000	6.154810	0.048270	NaN	0.000000	0.001624	0.001621	28.0976	0.016541	0.002048	8.078300	-105.626	-165.588	-0.057032	0.153227	-0.927437	-0.928715	0.048270	8.078300	-0.931919	-2.742167E+12	-1.760283E-14	NaN
170	1.000000	0.162467	7.3667e+06	-47139.1	955.818	-29767.3	0.000000	0.000000	6.162770	0.008247	NaN	0.000000	0.001597	0.001634	28.0981	0.059308	0.002043	29.0357	-19.6474	-165.96	0.033318	0.161205	-0.919475	-0.920737	0.008247	29.0357	-0.919688	-1.874980E+12	-4.398250E-15	NaN
170	1.000000	0.170481	7.3667e+06	-47139.1	955.819	-29767.3	0.000000	0.000000	6.170784	-0.015151	NaN	0.000000	0.001630	0.001634	28.0982	0.097640	0.001985	49.199	-90.3078	-165.985	-0.079390	0.169221	-0.911461	-0.912720	-0.015151	49.199	-0.911230	-1.441363E+12	1.051185E-14	NaN
170	1.000000	0.178502	7.3667e+06	-47139.1	955.819	-29767.3	0.000000	0.000000	6.178806	0.014646	NaN	0.000000	0.001606	0.001670	28.0961	0.043584	0.001980	22.0156	-94.9406	-168.11	-0.041732	0.177224	-0.903440	-0.904717	0.014646	22.0156	-0.903939	-1.148897E+12	-1.274768E-14	NaN
170	1.000000	0.186488	7.3667e+06	-47139.1	955.819	-29767.3	0.000000	0.000000	6.186794	0.059459	NaN	0.000000	0.001615	0.001667	28.0962	0.062067	0.001968	31.5337	-126.991	-166.087	0.070458	0.185201	-0.895453	-0.896741	0.059459	31.5337	-0.896868	-9.220142E+11	-6.448790E-14	NaN
170	1.000000	0.194492	7.3667e+06	-47139.1	955.819	-29767.3	0.000000	0.000000	6.194796	0.013341	NaN	0.000000	0.001637	0.001660	28.0973	0.072857	0.001966	37.0498	-97.5729	-165.645	-0.005465	0.193176	-0.887450	-0.888766	0.013341	37.0498	-0.887720	-6.935792E+11	-1.923490E-14	NaN
170	1.000000	0.202500	7.3667e+06	-47139.1	955.818	-29767.3	0.000000	0.000000	6.202806	0.046174	NaN	0.000000	0.001596	0.001642	28.0966	0.027580	0.001905	14.4767	-97.9732	-161.692	0.064545	0.201180	-0.879441	-0.880761	0.046174	14.4767	-0.881833	-5.774328E+11	-7.996379E-14	NaN
170	1.000000	0.210520	7.3667e+06	-47139.1	955.818	-29767.3	0.000000	0.000000	6.210821	-0.044632	NaN	0.000000	0.001621	0.001655	28.0972	0.119335	0.001835	65.0503	-33.1042	-164.008	5.969077E-5	0.209173	-0.871422	-0.872769	-0.044632	65.0503	-0.870907	-4.108849E+11	1.086247E-13	NaN
170	1.000000	0.218536	7.3667e+06	-47139.1	955.819	-29767.3	0.000000	0.000000	6.218840	-0.002338	NaN	0.000000	0.001662	0.001640	28.0974	0.046264	0.001984	23.3241	5.825733	-162.869	0.105392	0.217210	-0.863405	-0.864732	-0.002338	23.3241	-0.863330	-3.244846E+11	7.206697E-15	NaN
170	1.000000	0.226554	7.3667e+06	-47139.1	955.819	-29767.3	0.000000	0.000000	6.226856	-0.038496	NaN	0.000000	0.001635	0.001644	28.0983	0.061894	0.001980	31.2669	-19.8694	-164.529	0.000665	0.225260	-0.855388	-0.856682	-0.038496	31.2669	-0.854464	-2.461404E+11	1.563974E-13	NaN
170	1.000000	0.234523	7.3667e+06	-47139.1	955.818	-29767.3	0.000000	0.000000	6.234826	-0.009906	NaN	0.000000	0.001636	0.001643	28.0988	0.048810	0.002038	23.9447	-79.598	-162.966	0.051995	0.233215	-0.847418	-0.848727	-0.009906	23.9447	-0.847108	-1.956929E+11	5.062050E-14	NaN
170	1.000000	0.242519	7.3667e+06	-47139.1	955.819	-29767.3	0.000000	0.000000	6.242822	-0.003967	NaN	0.000000	0.001653	0.001601	28.0983	0.051162	0.001951	26.2259	115.761	-166.77	-0.041898	0.241171	-0.839423	-0.840770	-0.003967	26.2259	-0.839310	-1.534409E+11	2.585257E-14	NaN
170	1.000000	0.250549	7.3667e+06	-47139.1	955.818	-29767.3	0.000000	0.000000	6.250851	-0.024919	NaN	0.000000	0.001651	0.001647	28.0977	0.027203	0.001921	14.1611	168.042	-164.072	0.022364	0.249220	-0.831393	-0.832722	-0.024919	14.1611	-0.830073	-1.150215E+11	2.166470E-13	NaN
170	1.000000	0.258499	7.3667e+06	-47139.1	955.819	-29767.3	0.000000	0.000000	6.258806	0.084934	NaN	0.000000	0.001655	0.001630	28.0964	0.076007	0.001990	38.1993	135.143	-162.974	0.076406	0.257249	-0.823443	-0.824692	0.084934	38.1993	-0.825111	-9.851608E+10	-8.621369E-13	NaN
170	1.000000	0.266543	7.3667e+06	-47139.1	955.819	-29767.3	0.000000	0.000000	6.266847	0.019657	NaN	0.000000	0.001662	0.001651	28.0972	0.042619	0.002075	20.5377	-106.5	-163.904	-0.001102	0.265193	-0.815399	-0.816749	0.019657	20.5377	-0.816117	-7.439554E+10	-2.642277E-13	NaN
170	1.000000	0.274538	7.3667e+06	-47139.1	955.819	-29767.3	0.000000	0.000000	6.274842	0.017508	NaN	0.000000	0.001638	0.001684	28.0972	0.075784	0.002066	36.6872	76.385	-165.9	0.028527	0.273232	-0.807404	-0.808710	0.017508	36.6872	-0.807762	-5.730640E+10	-3.055224E-13	NaN
170	1.000000	0.282524	7.3667e+06	-47139.1	955.818	-29767.3	0.000000	0.000000	6.282829	0.039335	NaN	0.000000	0.001626	0.001675	28.0963	0.040914	0.002046	19.9965	-1.667318	-166.275	0.058062	0.281246	-0.799418	-0.800696	0.039335	19.9965	-0.800893	-4.623617E+10	-8.507373E-13	NaN
170	1.000000	0.290528	7.3667e+06	-47139.1	955.818	-29767.3	0.000000	0.000000	6.290832	0.024771	NaN	0.000000	0.001631	0.001663	28.0968	0.157286	0.002013	78.1208	-105.411	-166.599	0.054750	0.289243	-0.791414	-0.792699	0.024771	78.1208	-0.791652	-3.463527E+10	-7.152056E-13	NaN
170	1.000000	0.298560	7.3667e+06	-47139.1	955.819	-29767.3	0.000000	0.000000	6.298865	0.030504	NaN	0.000000	0.001624	0.001660	28.0971	0.177320	0.001979	89.599	-155.782	-165.333	0.053802	0.297244	-0.783382	-0.784698	0.030504	89.599	-0.783637	-2.695552E+10	-1.131638E-12	NaN
170	1.000000	0.306534	7.3667e+06	-47139.1	955.819	-29767.3	0.000000	0.000000	6.306839	0.045521	NaN	0.000000	0.001670	0.001682	28.097	0.023383	0.001910	12.2432	-49.1687	-164.591	0.017354	0.305206	-0.775408	-0.776736	0.045521	12.2432	-0.778197	-2.273667E+10	-2.002097E-12	NaN
170	1.000000	0.314576	7.3667e+06	-47139.1	955.818	-29767.3	0.000000	0.000000	6.314879	-0.012577	NaN	0.000000	0.001646	0.001640	28.0982	0.158006	0.002163	73.0576	-34.5187	-167.892	-0.067591	0.313286	-0.767366	-0.768655	-0.012577	73.0576	-0.767237	-1.613367E+10	7.795563E-13	NaN
170	1.000000	0.322581	7.3667e+06	-47139.1	955.818	-29767.3	0.000000	0.000000	6.322885	0.012287	NaN	0.000000	0.001654	0.001686	28.0975	0.045234	0.001965	23.0141	-128.064	-164.568	0.002938	0.321211	-0.759361	-0.760731	0.012287	23.0141	-0.759762	-1.276612E+10	-9.624916E-13	NaN
170	1.000000	0.330569	7.3667e+06	-47139.1	955.818	-29767.3	0.000000	0.000000	6.330874	0.027947	NaN	0.000000	0.001656	0.001684	28.0973	0.072119	0.001998	36.0997	-48.9496	-163.196	-0.024831	0.329253	-0.751372	-0.752689	0.027947	36.0997	-0.751953	-9.995451E+9	-2.796016E-12	NaN
170	1.000000	0.338579	7.3667e+06	-47139.1	955.818	-29767.3	0.000000	0.000000	6.338883	-0.008552	NaN	0.000000	0.001669	0.001652	28.0964	0.148412	0.001991	74.5346	-0.347484	-165.423	-0.017910	0.337270	-0.743362	-0.744672	-0.008552	74.5346	-0.743276	-7.615108E+9	1.123049E-12	NaN
170	1.000000	0.346564	7.3667e+06	-47139.1	955.818	-29767.3	0.000000	0.000000	6.346865	-0.079432	NaN	0.000000	0.001657	0.001689	28.0962	0.087767	0.001881	46.6486	63.2827	-161.653	-0.090036	0.345252	-0.735377	-0.736690	-0.079432	46.6486	-0.734100	-5.710611E+9	1.390954E-11	NaN
170	1.000000	0.354586	7.3667e+06	-47139.1	955.818	-29767.3	0.000000	0.000000	6.354890	0.013465	NaN	0.000000	0.001621	0.001665	28.0964	0.049752	0.001968	25.2759	106.593	-164.622	0.097967	0.353248	-0.727356	-0.728694	0.013465	25.2759	-0.727755	-4.679617E+9	-2.877463E-12	NaN
170	1.000000	0.362590	7.3667e+06	-47139.1	955.819	-29767.3	0.000000	0.000000	6.362894	0.004240	NaN	0.000000	0.001654	0.001630	28.0965	0.117539	0.002022	58.1195	33.3987	-165.674	-0.013107	0.361304	-0.719352	-0.720638	0.004240	58.1195	-0.719406	-3.600615E+9	-1.177448E-12	NaN
170	1.000000	0.370574	7.3667e+06	-47139.1	955.819	-29767.3	0.000000	0.000000	6.370880	0.072274	NaN	0.000000	0.001652	0.001664	28.0967	0.079017	0.002013	39.2581	-162.46	-169.094	0.057827	0.369303	-0.711368	-0.712639	0.072274	39.2581	-0.712749	-2.921174E+9	-2.474149E-11	NaN
170	1.000000	0.378567	7.3667e+06	-47139.1	955.819	-29767.3	0.000000	0.000000	6.378871	0.005017	NaN	0.000000	0.001647	0.001615	28.0974	0.061072	0.001978	30.8811	-43.8739	-166.19	-0.024106	0.377291	-0.703375	-0.704650	0.005017	30.8811	-0.703496	-2.184110E+9	-2.296860E-12	NaN
170	1.000000	0.386579	7.3667e+06	-47139.1	955.819	-29767.3	0.000000	0.000000	6.386885	0.050613	NaN	0.000000	0.001655	0.001633	28.0973	0.112612	0.002062	54.6124	-29.6171	-166.183	-0.055090	0.385229	-0.695362	-0.696713	0.050613	54.6124	-0.696057	-1.728548E+9	-2.928072E-11	NaN
170	1.000000	0.394604	7.3667e+06	-47139.1	955.818	-29767.3	0.000000	0.000000	6.394909	0.047464	NaN	0.000000	0.001632	0.001669	28.0981	0.035597	0.002120	16.7934	134.512	-167.544	0.117869	0.393344	-0.687338	-0.688598	0.047464	16.7934	-0.689458	-1.404447E+9	-3.379572E-11	NaN
170	1.000000	0.402589	7.3667e+06	-47139.1	955.819	-29767.3	0.000000	0.000000	6.402893	0.026021	NaN	0.000000	0.001622	0.001632	28.0983	0.043505	0.001956	22.2467	129.793	-167.27	0.031557	0.401217	-0.679353	-0.680725	0.026021	22.2467	-0.680230	-1.050398E+9	-2.477280E-11	NaN
170	1.000000	0.410593	7.3667e+06	-47139.1	955.819	-29767.3	0.000000	0.000000	6.410896	-0.011101	NaN	0.000000	0.001620	0.001646	28.0973	0.062823	0.001919	32.7342	120.953	-164.816	-0.091394	0.409277	-0.671349	-0.672665	-0.011101	32.7342	-0.671094	-7.877154E+8	1.409264E-11	NaN
170	1.000000	0.418604	7.3667e+06	-47139.1	955.819	-29767.3	0.000000	0.000000	6.418906	-0.025251	NaN	0.000000	0.001609	0.001673	28.0986	0.132315	0.002131	62.0921	79.3188	-165.328	-0.004409	0.417293	-0.663338	-0.664649	-0.025251	62.0921	-0.663033	-6.109491E+8	4.133087E-11	NaN
170	1.000000	0.426558	7.3667e+06	-47139.1	955.819	-29767.3	0.000000	0.000000	6.426862	-0.003258	NaN	0.000000	0.001635	0.001654	28.0975	0.028763	0.001964	14.646	125.962	-164.275	-0.017876	0.425310	-0.655383	-0.656631	-0.003258	14.646	-0.655217	-4.774575E+8	6.823177E-12	NaN
170	1.000000	0.434623	7.3667e+06	-47139.1	955.818	-29767.3	0.000000	0.000000	6.434928	0.035935	NaN	0.000000	0.001619	0.001643	28.0978	0.024095	0.002011	11.983	140.929	-164.22	0.072532	0.433282	-0.647319	-0.648659	0.035935	11.983	-0.649568	-3.995018E+8	-8.995046E-11	NaN
170	1.000000	0.442590	7.3667e+06	-47139.1	955.818	-29767.3	0.000000	0.000000	6.442894	0.021287	NaN	0.000000	0.001636	0.001669	28.0987	0.067399	0.002023	33.3188	82.8409	-166.117	-0.025754	0.441329	-0.639352	-0.640613	0.021287	33.3188	-0.639831	-2.937454E+8	-7.246781E-11	NaN
170	1.000000	0.450596	7.3667e+06	-47139.1	955.818	-29767.3	0.000000	0.000000	6.450898	-0.035768	NaN	0.000000	0.001675	0.001673	28.0982	0.140974	0.001978	71.268	-126.161	-163.984	0.005650	0.449335	-0.631346	-0.632606	-0.035768	71.268	-0.630969	-2.219896E+8	1.611239E-10	NaN
170	1.000000	0.458633	7.3667e+06	-47139.1	955.817	-29767.3	0.000000	0.000000	6.458937	0.022238	NaN	0.000000	0.001679	0.001692	28.0991	0.069827	0.001994	35.0138	156.974	-164.907	-0.002675	0.457338	-0.623309	-0.624603	0.022238	35.0138	-0.623785	-1.768707E+8	-1.257306E-10	NaN
170	1.000000	0.466605	7.3667e+06	-47139.1	955.819	-29767.3	0.000000	0.000000	6.466907	-0.043789	NaN	0.000000	0.001675	0.001676	28.0993	0.046644	0.002018	23.1155	26.8831	-161.551	-0.050213	0.465232	-0.615336	-0.616710	-0.043789	23.1155	-0.613916	-1.294129E+8	3.383664E-10	NaN
170	1.000000	0.474625	7.3667e+06	-47139.1	955.819	-29767.3	0.000000	0.000000	6.474931	0.065567	NaN	0.000000	0.001653	0.001695	28.099	0.025926	0.002011	12.8929	132.622	-168.614	0.120992	0.473320	-0.607317	-0.608622	0.065567	12.8929	-0.611131	-1.184884E+8	-5.533588E-10	NaN
170	1.000000	0.482632	7.3667e+06	-47139.1	955.819	-29767.3	0.000000	0.000000	6.482934	-0.023441	NaN	0.000000	0.001633	0.001631	28.0988	0.053957	0.001870	28.8587	24.7654	-163.938	0.002108	0.481315	-0.599310	-0.600627	-0.023441	28.8587	-0.598701	-7.990354E+7	2.933670E-10	NaN
170	1.000000	0.490605	7.3667e+06	-47139.1	955.819	-29767.3	0.000000	0.000000	6.490911	0.073665	NaN	0.000000	0.001635	0.001677	28.0991	0.123135	0.001876	65.6285	-157.624	-166.382	0.048519	0.489361	-0.591337	-0.592581	0.073665	65.6285	-0.592179	-6.496862E+7	-1.133857E-9	NaN
170	1.000000	0.498650	7.3667e+06	-47139.1	955.818	-29767.3	0.000000	0.000000	6.498955	0.038529	NaN	0.000000	0.001651	0.001613	28.0979	0.029499	0.001942	15.1897	-75.7297	-167.337	-0.010868	0.497350	-0.583292	-0.584592	0.038529	15.1897	-0.585194	-5.204710E+7	-7.402642E-10	NaN
170	1.000000	0.506657	7.3667e+06	-47139.1	955.819	-29767.3	0.000000	0.000000	6.506961	0.008330	NaN	0.000000	0.001692	0.001664	28.0989	0.105745	0.002047	51.662	-104.449	-162.254	0.040105	0.505256	-0.575285	-0.576685	0.008330	51.662	-0.575406	-3.813303E+7	-2.184405E-10	NaN
170	1.000000	0.514666	7.3667e+06	-47139.1	955.818	-29767.3	0.000000	0.000000	6.514967	-0.041055	NaN	0.000000	0.001638	0.001666	28.0988	0.079969	0.002047	39.0708	-170.332	-168.11	0.036366	0.513316	-0.567276	-0.568626	-0.041055	39.0708	-0.566488	-2.871428E+7	1.429765E-9	NaN
170	1.000000	0.522652	7.3667e+06	-47139.1	955.818	-29767.3	0.000000	0.000000	6.522955	-0.011427	NaN	0.000000	0.001644	0.001617	28.0985	0.079942	0.002137	37.4037	-62.3617	-163.055	-0.028846	0.521315	-0.559290	-0.560626	-0.011427	37.4037	-0.559061	-2.266654E+7	5.041175E-10	NaN
170	1.000000	0.530668	7.3667e+06	-47139.1	955.819	-29767.3	0.000000	0.000000	6.530976	0.097038	NaN	0.000000	0.001645	0.001626	28.0983	0.031799	0.001957	16.2467	-47.4343	-163.431	0.044982	0.529320	-0.551274	-0.552621	0.097038	16.2467	-0.555753	-2.039927E+7	-4.756934E-9	NaN
170	1.000000	0.538631	7.3667e+06	-47139.1	955.818	-29767.3	0.000000	0.000000	6.538937	0.054543	NaN	0.000000	0.001648	0.001636	28.099	0.036927	0.001840	20.0674	-121.978	-165.072	0.116771	0.537389	-0.543311	-0.544552	0.054543	20.0674	-0.545349	-1.463921E+7	-3.725848E-9	NaN
170	1.000000	0.546690	7.3667e+06	-47139.1	955.818	-29767.3	0.000000	0.000000	6.546992	-0.039325	NaN	0.000000	0.001675	0.001689	28.0999	0.018407	0.002055	8.957618	179.282	-168.006	0.004588	0.545344	-0.535252	-0.536598	-0.039325	8.957618	-0.531960	-9.5452e+06	4.119885E-9	NaN
170	1.000000	0.554658	7.3667e+06	-47139.1	955.819	-29767.3	0.000000	0.000000	6.554965	0.081128	NaN	0.000000	0.001654	0.001682	28.0982	0.034182	0.002111	16.1918	-102.449	-166.032	0.081414	0.553395	-0.527284	-0.528546	0.081128	16.1918	-0.531042	-9.26917e+06	-8.752482E-9	NaN
170	1.000000	0.562661	7.3667e+06	-47139.1	955.818	-29767.3	0.000000	0.000000	6.562966	0.015889	NaN	0.000000	0.001667	0.001703	28.0989	0.024666	0.001917	12.8639	-82.9315	-163.228	0.014163	0.561308	-0.519280	-0.520634	0.015889	12.8639	-0.520207	-6.55347e+06	-2.424527E-9	NaN
170	1.000000	0.570671	7.3667e+06	-47139.1	955.819	-29767.3	0.000000	0.000000	6.570975	-0.001084	NaN	0.000000	0.001675	0.001654	28.0987	0.031121	0.001989	15.6435	-7.744017	-166.257	0.015014	0.569400	-0.511271	-0.512541	-0.001084	15.6435	-0.511219	-4.91347e+06	2.205968E-10	NaN
170	1.000000	0.578658	7.3667e+06	-47139.1	955.819	-29767.3	0.000000	0.000000	6.578960	-0.025080	NaN	0.000000	0.001693	0.001667	28.0979	0.060417	0.002100	28.768	-117.24	-165.048	-0.013138	0.577371	-0.503284	-0.504571	-0.025080	28.768	-0.502630	-3.72994e+06	6.723962E-9	NaN
170	1.000000	0.586654	7.3667e+06	-47139.1	955.818	-29767.3	0.000000	0.000000	6.586959	0.040336	NaN	0.000000	0.001687	0.001678	28.0987	0.036031	0.001980	18.1956	21.1422	-166.642	0.014836	0.585389	-0.495287	-0.496553	0.040336	18.1956	-0.496950	-3.10784e+06	-1.297868E-8	NaN
170	1.000000	0.594684	7.3667e+06	-47139.1	955.819	-29767.3	0.000000	0.000000	6.594988	0.024230	NaN	0.000000	0.001661	0.001663	28.0977	0.005229	0.001946	2.686865	21.2998	-163.963	-0.048897	0.593357	-0.487258	-0.488585	0.024230	2.686865	-0.494021	-2.82859e+06	-8.566157E-9	NaN
170	1.000000	0.602652	7.3667e+06	-47139.1	955.819	-29767.3	0.000000	0.000000	6.602958	0.070471	NaN	0.000000	0.001665	0.001686	28.0971	0.067169	0.001944	34.5503	-56.0488	-166.771	0.022124	0.601385	-0.479290	-0.480557	0.070471	34.5503	-0.480820	-1.84927e+06	-3.810765E-8	NaN
170	1.000000	0.610707	7.3667e+06	-47139.1	955.819	-29767.3	0.000000	0.000000	6.611010	-0.002706	NaN	0.000000	0.001636	0.001662	28.0972	0.063563	0.001995	31.862	-54.235	-166.534	0.050182	0.609415	-0.471235	-0.472527	-0.002706	31.862	-0.471171	-1.35467e+06	1.997463E-9	NaN
170	1.000000	0.618689	7.3667e+06	-47139.1	955.819	-29767.3	0.000000	0.000000	6.618994	0.034771	NaN	0.000000	0.001663	0.001718	28.0978	0.111021	0.002053	54.0675	-29.421	-165.209	0.073854	0.617420	-0.463253	-0.464522	0.034771	54.0675	-0.463735	-1.06534e+06	-3.263811E-8	NaN
170	1.000000	0.626702	7.3667e+06	-47139.1	955.819	-29767.3	0.000000	0.000000	6.627006	0.010735	NaN	0.000000	0.001646	0.001701	28.0987	0.105074	0.001904	55.1757	-127.394	-167.996	0.033640	0.625333	-0.455240	-0.456608	0.010735	55.1757	-0.455386	-813096	-1.320256E-8	NaN
170	1.000000	0.634679	7.3667e+06	-47139.1	955.819	-29767.3	0.000000	0.000000	6.634985	0.053342	NaN	0.000000	0.001610	0.001678	28.0983	0.065046	0.001884	34.521	172.557	-166.491	0.055458	0.633403	-0.447263	-0.448539	0.053342	34.521	-0.448422	-648803	-8.221561E-8	NaN
170	1.000000	0.642701	7.3667e+06	-47139.1	955.818	-29767.3	0.000000	0.000000	6.643007	0.051237	NaN	0.000000	0.001576	0.001650	28.0985	0.057976	0.001980	29.2809	-15.33	-164.649	0.084883	0.641375	-0.439241	-0.440567	0.051237	29.2809	-0.440553	-502539	-1.019556E-7	NaN
170	1.000000	0.650660	7.3667e+06	-47139.1	955.819	-29767.3	0.000000	0.000000	6.650965	0.022302	NaN	0.000000	0.001598	0.001677	28.0985	0.069357	0.001941	35.7294	128.336	-165.222	0.016983	0.649344	-0.431281	-0.432597	0.022302	35.7294	-0.431750	-377405	-5.909186E-8	NaN
170	1.000000	0.658710	7.3667e+06	-47139.1	955.819	-29767.3	0.000000	0.000000	6.659014	0.012473	NaN	0.000000	0.001617	0.001676	28.0972	0.041288	0.001926	21.4331	53.022	-163.679	0.044148	0.657351	-0.423232	-0.424590	0.012473	21.4331	-0.423668	-290013	-4.300780E-8	NaN
170	1.000000	0.666690	7.3667e+06	-47139.1	955.819	-29767.3	0.000000	0.000000	6.666993	-0.013211	NaN	0.000000	0.001655	0.001600	28.0978	0.076590	0.002013	38.047	-65.7956	-165.273	-0.003170	0.665417	-0.415251	-0.416524	-0.013211	38.047	-0.414991	-218436	6.048050E-8	NaN
170	1.000000	0.674731	7.3667e+06	-47139.1	955.819	-29767.3	0.000000	0.000000	6.675037	0.050650	NaN	0.000000	0.001683	0.001675	28.0977	0.039890	0.002070	19.2703	-109.241	-166.634	0.119780	0.673440	-0.407211	-0.408502	0.050650	19.2703	-0.409182	-180621	-2.804244E-7	NaN
170	1.000000	0.682709	7.3667e+06	-47139.1	955.819	-29767.3	0.000000	0.000000	6.683012	-0.010167	NaN	0.000000	0.001749	0.001664	28.0984	0.081358	0.002028	40.1226	7.356237	-167.86	-0.050917	0.681469	-0.399232	-0.400473	-0.010167	40.1226	-0.399042	-129519	7.849720E-8	NaN
170	1.000000	0.690719	7.3667e+06	-47139.1	955.818	-29767.3	0.000000	0.000000	6.691023	0.020769	NaN	0.000000	0.001711	0.001639	28.0991	0.025685	0.002042	12.5766	-42.7667	-164.892	0.026498	0.689434	-0.391223	-0.392507	0.020769	12.5766	-0.392462	-104320	-1.990923E-7	NaN
170	1.000000	0.698728	7.3667e+06	-47139.1	955.818	-29767.3	0.000000	0.000000	6.699031	-0.007293	NaN	0.000000	0.001713	0.001653	28.1	0.108313	0.002037	53.1722	-103.942	-167.28	0.074141	0.697477	-0.383213	-0.384464	-0.007293	53.1722	-0.383111	-76649.2	9.514295E-8	NaN
170	1.000000	0.706735	7.3667e+06	-47139.1	955.819	-29767.3	0.000000	0.000000	6.707042	0.072711	NaN	0.000000	0.001690	0.001656	28.0998	0.063781	0.001982	32.1762	-117.558	-164.879	0.071336	0.705388	-0.375207	-0.376554	0.072711	32.1762	-0.376902	-62430.9	-1.164666E-6	NaN
170	1.000000	0.714709	7.3667e+06	-47139.1	955.818	-29767.3	0.000000	0.000000	6.715014	0.019097	NaN	0.000000	0.001721	0.001666	28.1004	0.070154	0.002034	34.4893	-86.3746	-164.261	0.091869	0.713429	-0.367232	-0.368513	0.019097	34.4893	-0.367648	-45944.8	-4.156536E-7	NaN
170	1.000000	0.722747	7.3667e+06	-47139.1	955.819	-29767.3	0.000000	0.000000	6.723052	0.037197	NaN	0.000000	0.001729	0.001663	28.0997	0.077428	0.002012	38.4886	108.55	-167.129	0.000107	0.721399	-0.359195	-0.360543	0.037197	38.4886	-0.359920	-35537.3	-1.046704E-6	NaN
170	1.000000	0.730750	7.3667e+06	-47139.1	955.818	-29767.3	0.000000	0.000000	6.731053	-0.011343	NaN	0.000000	0.001714	0.001663	28.1006	0.094979	0.001853	51.2543	-24.1558	-164.798	0.004447	0.729361	-0.351192	-0.352581	-0.011343	51.2543	-0.351026	-26417.2	4.293877E-7	NaN
170	1.000000	0.738713	7.3667e+06	-47139.1	955.82	-29767.3	0.000000	0.000000	6.739016	-0.024024	NaN	0.000000	0.001721	0.001638	28.0991	0.051516	0.002040	25.258	102.351	-168.418	0.040667	0.737428	-0.343228	-0.344514	-0.024024	25.258	-0.342515	-19869.9	1.209057E-6	NaN
170	1.000000	0.746733	7.3667e+06	-47139.1	955.819	-29767.3	0.000000	0.000000	6.747039	0.049778	NaN	0.000000	0.001699	0.001642	28.0988	0.130441	0.002050	63.6355	-151.892	-163.673	-0.010156	0.745492	-0.335208	-0.336450	0.049778	63.6355	-0.335795	-15856.3	-3.139324E-6	NaN
170	1.000000	0.754738	7.3667e+06	-47139.1	955.819	-29767.3	0.000000	0.000000	6.755042	0.015133	NaN	0.000000	0.001676	0.001626	28.0996	0.108395	0.001939	55.9142	-44.3203	-164.6	0.072073	0.753415	-0.327204	-0.328527	0.015133	55.9142	-0.327407	-11952.3	-1.266091E-6	NaN
170	1.000000	0.762717	7.3667e+06	-47139.1	955.818	-29767.3	0.000000	0.000000	6.763022	0.038592	NaN	0.000000	0.001719	0.001625	28.1002	0.074044	0.001860	39.8058	-10.9303	-165.39	-0.016622	0.761463	-0.319225	-0.320479	0.038592	39.8058	-0.319952	-9288.1	-4.154985E-6	NaN
170	1.000000	0.770750	7.3667e+06	-47139.1	955.818	-29767.3	0.000000	0.000000	6.771054	0.014455	NaN	0.000000	0.001716	0.001639	28.0998	0.068359	0.001993	34.2937	95.9697	-165.863	0.009485	0.769426	-0.311192	-0.312516	0.014455	34.2937	-0.311508	-6972.06	-2.073242E-6	NaN
170	1.000000	0.778720	7.3667e+06	-47139.1	955.819	-29767.3	0.000000	0.000000	6.779022	-0.032486	NaN	0.000000	0.001710	0.001640	28.1004	0.021071	0.002031	10.3761	-13.5663	-166.133	-0.025473	0.777440	-0.303222	-0.304502	-0.032486	10.3761	-0.300874	-4848.91	6.699645E-6	NaN
170	1.000000	0.786744	7.3667e+06	-47139.1	955.818	-29767.3	0.000000	0.000000	6.787045	-0.060395	NaN	0.000000	0.001709	0.001649	28.1011	0.009753	0.001981	4.923116	68.4418	-166.146	-0.066691	0.785413	-0.295198	-0.296529	-0.060395	4.923116	-0.285997	-2905.68	2.078504E-5	NaN
170	1.000000	0.794766	7.3667e+06	-47139.1	955.82	-29767.3	0.000000	0.000000	6.795074	0.088517	NaN	0.000000	0.001711	0.001613	28.1007	0.066992	0.001945	34.4345	-92.6591	-164.929	0.077317	0.793487	-0.287175	-0.288455	0.088517	34.4345	-0.289103	-3234.92	-2.736282E-5	NaN
170	1.000000	0.802745	7.3667e+06	-47139.1	955.818	-29767.3	0.000000	0.000000	6.803046	-0.066560	NaN	0.000000	0.001746	0.001678	28.1006	0.051719	0.001995	25.9287	-70.1573	-165.32	-0.067777	0.801500	-0.279197	-0.280441	-0.066560	25.9287	-0.277272	-2146.68	3.100581E-5	NaN
170	1.000000	0.810747	7.3667e+06	-47139.1	955.818	-29767.3	0.000000	0.000000	6.811053	0.081072	NaN	0.000000	0.001723	0.001705	28.1005	0.024307	0.001969	12.3479	157.666	-165.678	-0.009099	0.809471	-0.271195	-0.272470	0.081072	12.3479	-0.276119	-2062.26	-3.931205E-5	NaN
170	1.000000	0.818788	7.3667e+06	-47139.1	955.819	-29767.3	0.000000	0.000000	6.819090	-0.029024	NaN	0.000000	0.001652	0.001709	28.0998	0.039856	0.002014	19.7847	88.4516	-164.362	0.055588	0.817443	-0.263154	-0.264499	-0.029024	19.7847	-0.262053	-1259.97	2.303577E-5	NaN
170	1.000000	0.826757	7.3667e+06	-47139.1	955.818	-29767.3	0.000000	0.000000	6.827064	0.089877	NaN	0.000000	0.001630	0.001731	28.0981	0.113562	0.002090	54.3284	124.779	-163.617	0.117289	0.825478	-0.255185	-0.256463	0.089877	54.3284	-0.256425	-1032.87	-8.701650E-5	NaN
170	1.000000	0.834762	7.3667e+06	-47139.1	955.819	-29767.3	0.000000	0.000000	6.835066	0.006292	NaN	0.000000	0.001660	0.001718	28.0986	0.085696	0.002040	42.0012	86.9938	-165.371	0.067184	0.833452	-0.247180	-0.248490	0.006292	42.0012	-0.247292	-746.501	-8.428113E-6	NaN
170	1.000000	0.842790	7.3667e+06	-47139.1	955.818	-29767.3	0.000000	0.000000	6.843095	0.034265	NaN	0.000000	0.001681	0.001708	28.099	0.026376	0.001936	13.6259	-26.8358	-169.241	0.001507	0.841453	-0.239151	-0.240489	0.034265	13.6259	-0.241037	-596.689	-5.742490E-5	NaN
170	1.000000	0.850758	7.3667e+06	-47139.1	955.818	-29767.3	0.000000	0.000000	6.851062	-0.006705	NaN	0.000000	0.001672	0.001704	28.098	0.030247	0.001946	15.5459	31.0619	-166.194	-0.014441	0.849494	-0.231183	-0.232447	-0.006705	15.5459	-0.230860	-413.13	1.623070E-5	NaN
170	1.000000	0.858780	7.3667e+06	-47139.1	955.82	-29767.3	0.000000	0.000000	6.859085	0.038861	NaN	0.000000	0.001674	0.001664	28.0993	0.121504	0.002053	59.1719	74.4821	-163.377	0.035575	0.857493	-0.223162	-0.224449	0.038861	59.1719	-0.223655	-317.649	-0.000122	NaN
170	1.000000	0.866766	7.3667e+06	-47139.1	955.818	-29767.3	0.000000	0.000000	6.867070	0.018530	NaN	0.000000	0.001674	0.001686	28.0994	0.054589	0.002068	26.3927	-25.216	-167.061	0.046815	0.865470	-0.215176	-0.216472	0.018530	26.3927	-0.215702	-237.033	-7.817442E-5	NaN
170	1.000000	0.874790	7.3667e+06	-47139.1	955.818	-29767.3	0.000000	0.000000	6.875092	-0.033413	NaN	0.000000	0.001644	0.001709	28.1008	0.074061	0.001894	39.1133	-132.05	-164.004	-0.028224	0.873471	-0.207152	-0.208471	-0.033413	39.1133	-0.206511	-168.339	0.000198	NaN
170	1.000000	0.882766	7.3667e+06	-47139.1	955.819	-29767.3	0.000000	0.000000	6.883070	0.015085	NaN	0.000000	0.001675	0.001719	28.0997	0.063546	0.001934	32.8554	-71.2126	-169.487	-0.032254	0.881486	-0.199176	-0.200456	0.015085	32.8554	-0.199520	-129.363	-0.000117	NaN
170	1.000000	0.890804	7.3667e+06	-47139.1	955.818	-29767.3	0.000000	0.000000	6.891112	0.095279	NaN	0.000000	0.001657	0.001717	28.0996	0.051328	0.001953	26.277	-133.902	-166.089	0.104458	0.889459	-0.191138	-0.192483	0.095279	26.277	-0.193857	-104.292	-0.000914	NaN
170	1.000000	0.898823	7.3667e+06	-47139.1	955.819	-29767.3	0.000000	0.000000	6.899126	-0.005746	NaN	0.000000	0.001629	0.001720	28.0991	0.039202	0.002059	19.035	42.7767	-163.842	-0.002076	0.897534	-0.183119	-0.184408	-0.005746	19.035	-0.182892	-68.319	8.410349E-5	NaN
170	1.000000	0.906829	7.3667e+06	-47139.1	955.819	-29767.3	0.000000	0.000000	6.907132	-0.014415	NaN	0.000000	0.001628	0.001693	28.0989	0.101655	0.001971	51.5736	43.5438	-164.306	0.004480	0.905526	-0.175113	-0.176415	-0.014415	51.5736	-0.174903	-49.9248	0.000289	NaN
170	1.000000	0.914834	7.3667e+06	-47139.1	955.818	-29767.3	0.000000	0.000000	6.915142	0.100017	NaN	0.000000	0.001642	0.001689	28.0991	0.088333	0.001988	44.4244	-2.895842	-166.339	0.051819	0.913470	-0.167108	-0.168472	0.100017	44.4244	-0.168796	-39.1457	-0.002555	NaN
170	1.000000	0.922806	7.3667e+06	-47139.1	955.818	-29767.3	0.000000	0.000000	6.923110	0.006459	NaN	0.000000	0.001683	0.001685	28.0991	0.156352	0.002062	75.8394	175.955	-166.434	-0.011088	0.921479	-0.159135	-0.160463	0.006459	75.8394	-0.159199	-26.5304	-0.000243	NaN
170	1.000000	0.930824	7.3667e+06	-47139.1	955.819	-29767.3	0.000000	0.000000	6.931129	0.036870	NaN	0.000000	0.001673	0.001672	28.0991	0.144063	0.002074	69.4502	-57.5617	-164.929	0.051473	0.929512	-0.151118	-0.152430	0.036870	69.4502	-0.151516	-19.3021	-0.001910	NaN
170	1.000000	0.938829	7.3667e+06	-47139.1	955.819	-29767.3	0.000000	0.000000	6.939131	-0.037852	NaN	0.000000	0.001682	0.001689	28.1002	0.017788	0.002054	8.660454	-173.745	-165.161	-0.070043	0.937511	-0.143113	-0.144431	-0.037852	8.660454	-0.139835	-11.7452	0.003223	NaN
170	1.000000	0.946818	7.3667e+06	-47139.1	955.82	-29767.3	0.000000	0.000000	6.947123	0.043693	NaN	0.000000	0.001719	0.001703	28.0994	0.029035	0.001959	14.8213	104.78	-169.357	0.001516	0.945502	-0.135124	-0.136440	0.043693	14.8213	-0.137335	-10.5364	-0.004147	NaN
170	1.000000	0.954827	7.3667e+06	-47139.1	955.818	-29767.3	0.000000	0.000000	6.955133	0.047280	NaN	0.000000	0.001721	0.001670	28.1008	0.045804	0.001922	23.8323	173.436	-166.712	-0.019615	0.953513	-0.127114	-0.128429	0.047280	23.8323	-0.128602	-7.157999	-0.006605	NaN
170	1.000000	0.962816	7.3667e+06	-47139.1	955.818	-29767.3	0.000000	0.000000	6.963120	0.011745	NaN	0.000000	0.001730	0.001710	28.1013	0.093773	0.002015	46.5306	-125.476	-165.015	-0.099075	0.961495	-0.119125	-0.120447	0.011745	46.5306	-0.119315	-4.679839	-0.002510	NaN
170	1.000000	0.970833	7.3667e+06	-47139.1	955.818	-29767.3	0.000000	0.000000	6.971137	0.016888	NaN	0.000000	0.001781	0.001693	28.1013	0.120440	0.001979	60.872	64.7091	-162.921	0.029847	0.969511	-0.111109	-0.112431	0.016888	60.872	-0.111317	-3.203048	-0.005272	NaN
170	1.000000	0.978846	7.3667e+06	-47139.1	955.818	-29767.3	0.000000	0.000000	6.979147	-0.043591	NaN	0.000000	0.001756	0.001696	28.1014	0.099222	0.002008	49.4063	156.534	-165.093	-0.071504	0.977537	-0.103096	-0.104405	-0.043591	49.4063	-0.102434	-2.067228	0.021087	NaN
170	1.000000	0.986829	7.3667e+06	-47139.1	955.819	-29767.4	0.000000	0.000000	6.987133	0.018720	NaN	0.000000	0.001759	0.001727	28.1007	0.035392	0.001974	17.9313	155.175	-165.544	0.012823	0.985531	-0.095113	-0.096411	0.018720	17.9313	-0.095896	-1.478347	-0.012663	NaN
170	1.000000	0.994844	7.3667e+06	-47139.1	955.818	-29767.4	0.000000	0.000000	6.995146	-0.018031	NaN	0.000000	0.001756	0.001762	28.0999	0.110026	0.001993	55.2063	6.014505	-164.745	-0.021047	0.993493	-0.087098	-0.088448	-0.018031	55.2063	-0.086853	-0.910481	0.019804	NaN
170	1.000000	1.002855	7.3667e+06	-47139.1	955.818	-29767.3	0.000000	0.000000	7.003162	0.072128	NaN	0.000000	0.001747	0.001707	28.1008	0.035908	0.001958	18.3351	-128.246	-167.839	-0.031446	1.001502	-0.079087	-0.080440	0.072128	18.3351	-0.082037	-0.695477	-0.103710	NaN
170	1.000000	1.010840	7.3667e+06	-47139.1	955.818	-29767.4	0.000000	0.000000	7.011143	-0.009318	NaN	0.000000	0.001688	0.001751	28.0999	0.055904	0.001834	30.4758	93.4585	-168.898	0.040581	1.009549	-0.071102	-0.072392	-0.009318	30.4758	-0.070873	-0.359914	0.025890	NaN
170	1.000000	1.018834	7.3667e+06	-47139.1	955.818	-29767.4	0.000000	0.000000	7.019137	-0.013807	NaN	0.000000	0.001739	0.001685	28.1005	0.126417	0.001940	65.1604	-54.3444	-164.514	0.059485	1.017554	-0.063108	-0.064388	-0.013807	65.1604	-0.062949	-0.218414	0.063215	NaN
170	1.000000	1.026845	7.3667e+06	-47139.1	955.819	-29767.4	0.000000	0.000000	7.027147	-0.042090	NaN	0.000000	0.001706	0.001708	28.1009	0.137735	0.002147	64.1462	144.224	-164.917	-0.017556	1.025523	-0.055097	-0.056419	-0.042090	64.1462	-0.054604	-0.125354	0.335770	NaN
170	1.000000	1.034842	7.3667e+06	-47139.1	955.818	-29767.4	0.000000	0.000000	7.035147	0.045027	NaN	0.000000	0.001666	0.001703	28.1017	0.054663	0.002150	25.4202	160.073	-164.176	0.091485	1.033563	-0.047100	-0.048379	0.045027	25.4202	-0.048428	-0.081768	-0.550675	NaN
170	1.000000	1.042844	7.3667e+06	-47139.1	955.818	-29767.4	0.000000	0.000000	7.043147	-0.020634	NaN	0.000000	0.001670	0.001684	28.101	0.093101	0.001943	47.9076	16.2337	-163.821	-0.015441	1.041585	-0.039098	-0.040357	-0.020634	47.9076	-0.038775	-0.041517	0.497004	NaN
170	1.000000	1.050844	7.3667e+06	-47139.1	955.818	-29767.4	0.000000	0.000000	7.051150	0.053307	NaN	0.000000	0.001710	0.001728	28.1017	0.064948	0.001928	33.6831	-67.0841	-164.431	0.104075	1.049551	-0.031098	-0.032391	0.053307	33.6831	-0.032285	-0.026702	-1.996343	NaN
170	1.000000	1.058859	7.3667e+06	-47139.1	955.818	-29767.4	0.000000	0.000000	7.059163	0.011627	NaN	0.000000	0.001707	0.001685	28.1009	0.069186	0.002121	32.6252	138.318	-166.751	0.059339	1.057534	-0.023083	-0.024408	0.011627	32.6252	-0.023350	-0.015289	-0.760470	NaN
170	1.000000	1.066835	7.36671e+06	-47139.1	955.819	-29767.4	0.000000	0.000000	7.067140	0.035284	NaN	0.000000	0.001703	0.001715	28.101	0.079022	0.001873	42.1974	-162.229	-163.343	-0.028219	1.065528	-0.015107	-0.016413	0.035284	42.1974	-0.015734	-0.009720	-3.630091	NaN
170	1.000000	1.074860	7.36671e+06	-47139.1	955.819	-29767.4	0.000000	0.000000	7.075166	0.048189	NaN	0.000000	0.001711	0.001702	28.1006	0.063994	0.001837	34.8445	-9.076452	-164.843	-0.023624	1.073508	-0.007082	-0.008434	0.048189	34.8445	-0.008119	-0.005301	-9.090040	NaN
170	1.000000	1.082900	7.36671e+06	-47139.1	955.818	-29767.4	0.000000	0.000000	7.083205	0.038338	NaN	0.000000	0.001760	0.001704	28.1005	0.138665	0.002070	66.9725	15.845	-164.893	0.057838	1.081598	0.000958	-0.000344	0.038338	66.9725	0.000529	0.000399	96.0565	3062.81
170	1.000000	1.090868	7.36671e+06	-47139.1	955.819	-29767.4	0.000000	0.000000	7.091373	4.913604	NaN	0.000000	0.001695	0.001711	28.1017	5.450921	0.001768	3083.64	8.128838	-166.853	3.739502	1.089564	0.008926	0.007622	4.913604	3083.64	0.007731	0.006767	726.132	34248.7
170	2.000000	1.095507	7.36671e+06	-47139.1	955.819	-29767.4	0.000000	0.000000	7.096194	9.327723	NaN	0.000000	0.001719	0.001714	28.1003	9.497627	0.001701	5584.51	9.562921	-172.962	8.900049	1.095234	0.013565	0.013292	9.327723	5584.51	0.012313	0.011867	786.038	46837.3
170	2.000000	1.097537	7.36671e+06	-47139.1	955.818	-29767.4	0.000000	0.000000	7.098351	12.428	NaN	0.000000	0.001751	0.001726	28.1014	11.8823	0.001646	7217.32	8.797722	-174.514	12.1028	1.097207	0.015595	0.015265	12.428	7217.32	0.014304	0.014368	864.983	55011.4
170	2.000000	1.099488	7.36671e+06	-47139.1	955.817	-29767.4	0.000000	0.000000	7.100424	15.3722	NaN	0.000000	0.001731	0.001699	28.1005	13.7621	0.001730	7957.05	9.297526	-176.249	15.3359	1.099216	0.017546	0.017274	15.3722	7957.05	0.016098	0.016777	916.274	56126.8
170	2.000000	1.101501	7.36671e+06	-47139.1	955.818	-29767.4	0.000000	0.000000	7.102562	18.4168	NaN	0.000000	0.001727	0.001666	28.1005	16.2575	0.001685	9646.55	6.864082	-175.133	19.6372	1.101135	0.019560	0.019194	18.4168	9646.55	0.018128	0.019685	935.559	62816.5
170	2.000000	1.103488	7.36671e+06	-47139.1	955.818	-29767.4	0.000000	0.000000	7.104754	23.4083	NaN	0.000000	0.001726	0.001690	28.1001	17.8639	0.001593	11210.6	4.574627	-176.622	23.0713	1.103085	0.021546	0.021144	23.4083	11210.6	0.019980	0.022511	1039.85	68266.1
170	2.000000	1.105426	7.36671e+06	-47139.1	955.817	-29767.4	0.000000	0.000000	7.106840	27.005	NaN	0.000000	0.001722	0.001716	28.0998	20.8549	0.001797	11602.8	9.614267	179.21	26.1385	1.105208	0.023484	0.023266	27.005	11602.8	0.021739	0.025348	1065.36	66582.8
170	2.000000	1.107472	7.36671e+06	-47139.1	955.818	-29767.4	0.000000	0.000000	7.109113	32.5179	NaN	0.000000	0.001695	0.001711	28.1006	22.6326	0.001777	12738.4	2.057808	-173.1	32.0491	1.107155	0.025531	0.025213	32.5179	12738.4	0.023616	0.028546	1139.15	68883.4
170	2.000000	1.109433	7.36671e+06	-47139.1	955.818	-29767.4	0.000000	0.000000	7.111282	37.5914	NaN	0.000000	0.001696	0.001710	28.1004	24.9766	0.001879	13293.5	6.634317	-178.477	36.8261	1.109196	0.027492	0.027254	37.5914	13293.5	0.025371	0.031693	1186.09	68222.7
170	2.000000	1.111384	7.36671e+06	-47139.1	955.818	-29767.4	0.000000	0.000000	7.113459	43.092	NaN	0.000000	0.001680	0.001674	28.1002	27.6634	0.001928	14346.4	4.466629	-176.841	41.3918	1.111084	0.029443	0.029142	43.092	14346.4	0.027190	0.035120	1226.99	69941.8
170	2.000000	1.113386	7.36671e+06	-47139.1	955.818	-29767.4	0.000000	0.000000	7.115756	50.2552	NaN	0.000000	0.001713	0.001689	28.0999	29.0455	0.001734	16751.9	7.389887	178.724	48.4979	1.113064	0.031445	0.031122	50.2552	16751.9	0.029195	0.039091	1285.59	77410.2
170	2.000000	1.115407	7.36671e+06	-47139.1	955.818	-29767.4	0.000000	0.000000	7.118114	58.4632	NaN	0.000000	0.001713	0.001706	28.1007	31.4074	0.001753	17913.5	2.943199	-178.451	56.8676	1.115095	0.033465	0.033153	58.4632	17913.5	0.031017	0.042879	1363.46	79037.7
170	2.000000	1.117462	7.36671e+06	-47139.1	955.817	-29767.4	0.000000	0.000000	7.120394	63.9209	NaN	0.000000	0.001653	0.001734	28.1011	34.0749	0.001755	19419.1	7.494064	176.884	64.3212	1.117122	0.035520	0.035180	63.9209	19419.1	0.033052	0.047307	1351.2	81571.9
170	2.000000	1.119375	7.36671e+06	-47139.1	955.817	-29767.4	0.000000	0.000000	7.122663	72.5938	NaN	0.000000	0.001678	0.001746	28.1014	34.5931	0.001743	19842	2.241058	-178.405	69.6985	1.119009	0.037433	0.037068	72.5938	19842	0.034689	0.051025	1422.7	80253.7
170	2.000000	1.121403	7.36671e+06	-47139.1	955.817	-29767.4	0.000000	0.000000	7.124932	78.4653	NaN	0.000000	0.001697	0.001715	28.1016	37.9055	0.001842	20578.4	7.180756	177.85	79.5448	1.121078	0.039461	0.039136	78.4653	20578.4	0.036601	0.055540	1412.77	79778
170	2.000000	1.123387	7.36671e+06	-47139.1	955.817	-29767.4	0.000000	0.000000	7.127189	85.0948	NaN	0.000000	0.001727	0.001735	28.1012	38.5551	0.001704	22628.2	3.709538	178.828	83.5326	1.123082	0.041445	0.041140	85.0948	22628.2	0.038625	0.060523	1405.98	84035.2
170	2.000000	1.125423	7.36671e+06	-47139.1	955.816	-29767.4	0.000000	0.000000	7.129573	93.5616	NaN	0.000000	0.001685	0.001763	28.1002	41.3291	0.001909	21654.9	6.262273	178.787	94.9888	1.125021	0.043481	0.043079	93.5616	21654.9	0.040241	0.064652	1447.16	77810.4
170	2.000000	1.127385	7.36671e+06	-47139.1	955.818	-29767.4	0.000000	0.000000	7.131646	96.259	NaN	0.000000	0.001668	0.001768	28.1005	42.7524	0.001794	23831.7	5.717905	177.144	95.4592	1.127084	0.045443	0.045142	96.259	23831.7	0.042414	0.070416	1367.01	82052.9
170	2.000000	1.129350	7.36671e+06	-47139.1	955.816	-29767.4	0.000000	0.000000	7.134298	112.985	NaN	0.000000	0.001664	0.001745	28.1015	44.3353	0.001747	25385.1	7.392559	174.004	110.427	1.129051	0.047408	0.047109	112.985	25385.1	0.044070	0.074969	1507.09	84705.5
170	2.000000	1.131436	7.36671e+06	-47139.1	955.818	-29767.4	0.000000	0.000000	7.136545	116.895	NaN	0.000000	0.001691	0.001746	28.1021	46.5586	0.001800	25863.3	2.896230	178.545	117.794	1.131090	0.049494	0.049149	116.895	25863.3	0.046105	0.080754	1447.54	83152.3
170	2.000000	1.133333	7.36671e+06	-47139.1	955.817	-29767.4	0.000000	0.000000	7.138803	125.678	NaN	0.000000	0.001682	0.001728	28.1026	47.3271	0.001710	27674.1	3.419927	177.427	122.399	1.133072	0.051391	0.051131	125.678	27674.1	0.047985	0.086287	1456.5	86074.2
170	2.000000	1.135345	7.36671e+06	-47139.1	955.817	-29767.4	0.000000	0.000000	7.141111	132.87	NaN	0.000000	0.001658	0.001738	28.1023	51.1514	0.001833	27911.9	6.921842	173.892	129.735	1.134971	0.053403	0.053029	132.87	27911.9	0.049833	0.091897	1445.86	84122.7
170	2.000000	1.137373	7.36671e+06	-47139.1	955.817	-29767.4	0.000000	0.000000	7.143530	142.385	NaN	0.000000	0.001674	0.001726	28.1031	52.3079	0.001786	29290.6	3.237128	177.306	139.674	1.137099	0.055431	0.055157	142.385	29290.6	0.051786	0.098012	1452.72	85479.4
170	2.000000	1.139359	7.36671e+06	-47139.1	955.818	-29767.4	0.000000	0.000000	7.146052	155.411	NaN	0.000000	0.001705	0.001716	28.1033	53.4303	0.001732	30851.2	1.694887	178.25	154.101	1.139044	0.057417	0.057103	155.411	30851.2	0.053639	0.103993	1494.44	87406.4
170	2.000000	1.141354	7.36671e+06	-47139.1	955.818	-29767.4	0.000000	0.000000	7.148354	162.886	NaN	0.000000	0.001665	0.001708	28.1033	55.9156	0.001706	32781.8	2.815248	176.229	161.142	1.141115	0.059412	0.059173	162.886	32781.8	0.055685	0.110793	1470.19	89980.9
170	2.000000	1.143416	7.36671e+06	-47139.1	955.817	-29767.4	0.000000	0.000000	7.151091	179.306	NaN	0.000000	0.001726	0.001724	28.1033	57.0001	0.001797	31722.4	7.723914	173.041	180.553	1.142866	0.061474	0.060925	179.306	31722.4	0.057235	0.116081	1544.66	85066.5
170	2.000000	1.145367	7.36671e+06	-47139.1	955.817	-29767.4	0.000000	0.000000	7.153423	188.57	NaN	0.000000	0.001680	0.001697	28.1024	58.344	0.001692	34490.4	1.575719	178.514	185.945	1.144924	0.063426	0.062982	188.57	34490.4	0.059325	0.123400	1528.13	89704.6
170	2.000000	1.147396	7.36671e+06	-47139.1	955.817	-29767.4	0.000000	0.000000	7.155755	195.945	NaN	0.000000	0.001664	0.001724	28.1028	61.4564	0.001816	33834.4	3.240175	176.742	194.377	1.147093	0.065454	0.065151	195.945	33834.4	0.061111	0.129822	1509.33	85794
170	2.000000	1.149339	7.36671e+06	-47139.1	955.818	-29767.4	0.000000	0.000000	7.158181	207.692	NaN	0.000000	0.001672	0.001721	28.1022	63.776	0.001806	35309.4	5.266104	174.112	203.914	1.148996	0.067397	0.067054	207.692	35309.4	0.062986	0.136732	1518.97	87242.4
170	2.000000	1.151308	7.36671e+06	-47139.1	955.819	-29767.4	0.000000	0.000000	7.160607	218.815	NaN	0.000000	0.001664	0.001744	28.1026	65.278	0.001757	37150.2	1.466054	177.169	214.736	1.151113	0.069366	0.069171	218.815	37150.2	0.064949	0.144149	1517.98	89398.1
170	2.000000	1.153319	7.36671e+06	-47139.1	955.818	-29767.4	0.000000	0.000000	7.163147	231.689	NaN	0.000000	0.001664	0.001742	28.102	66.6492	0.001822	36583.7	5.036470	173.965	229.952	1.153034	0.071377	0.071092	231.689	36583.7	0.066627	0.150638	1538.05	86117.9
170	2.000000	1.155347	7.36671e+06	-47139.1	955.818	-29767.4	0.000000	0.000000	7.165546	240.685	NaN	0.000000	0.001691	0.001692	28.1035	70.3532	0.001923	36582.6	6.708784	172.725	241.084	1.155007	0.073406	0.073066	240.685	36582.6	0.068471	0.157925	1524.05	84105.1
170	2.000000	1.157340	7.36671e+06	-47139.1	955.818	-29767.4	0.000000	0.000000	7.168099	254.297	NaN	0.000000	0.001679	0.001729	28.1049	71.2852	0.001821	39150.2	1.797091	176.322	251.249	1.157046	0.075399	0.075105	254.297	39150.2	0.070527	0.166239	1529.71	87728.6
170	2.000000	1.159341	7.36671e+06	-47139.1	955.818	-29767.4	0.000000	0.000000	7.170608	266.666	NaN	0.000000	0.001695	0.001720	28.1043	72.5813	0.001757	41306.7	5.576608	171.993	265.416	1.159113	0.077400	0.077171	266.666	41306.7	0.072558	0.174648	1526.87	90304.8
170	2.000000	1.161294	7.36671e+06	-47139.1	955.817	-29767.4	0.000000	0.000000	7.173271	283.936	NaN	0.000000	0.001705	0.001693	28.1041	75.9051	0.001900	39946.5	4.519114	173.759	281.757	1.161014	0.079353	0.079072	283.936	39946.5	0.074022	0.180831	1570.17	85825.2
170	2.000000	1.163330	7.36671e+06	-47139.1	955.816	-29767.4	0.000000	0.000000	7.175839	296.884	NaN	0.000000	0.001741	0.001757	28.1019	76.134	0.001800	42296	5.544751	172.098	294.951	1.162938	0.081388	0.080997	296.884	42296	0.076124	0.189888	1563.47	88679.6
170	2.000000	1.165300	7.36671e+06	-47139.1	955.818	-29767.4	0.000000	0.000000	7.178323	309.389	NaN	0.000000	0.001733	0.001719	28.1012	79.0155	0.001788	44199.9	5.978266	171.658	307.448	1.164954	0.083358	0.083012	309.389	44199.9	0.078108	0.198627	1557.64	90609.7
170	2.000000	1.167393	7.36671e+06	-47139.1	955.818	-29767.4	0.000000	0.000000	7.180976	323.004	NaN	0.000000	0.001736	0.001720	28.1016	79.8865	0.001809	44153.3	0.021520	178.323	323.685	1.167038	0.085451	0.085096	323.004	44153.3	0.079965	0.206969	1560.64	88671.6
170	2.000000	1.169354	7.36671e+06	-47139.1	955.819	-29767.4	0.000000	0.000000	7.183495	336.577	NaN	0.000000	0.001759	0.001715	28.1018	82.5767	0.001805	45746	5.252283	171.766	334.395	1.169067	0.087412	0.087126	336.577	45746	0.081894	0.215808	1559.61	89969
170	2.000000	1.171326	7.36671e+06	-47139.1	955.818	-29767.4	0.000000	0.000000	7.186170	353.682	NaN	0.000000	0.001730	0.001711	28.102	84.9834	0.001815	46823.4	5.156888	172.604	353.138	1.171053	0.089384	0.089111	353.682	46823.4	0.083719	0.224330	1576.62	90321.9
170	2.000000	1.173357	7.36671e+06	-47139.1	955.819	-29767.4	0.000000	0.000000	7.189027	373.791	NaN	0.000000	0.001788	0.001745	28.102	85.8317	0.001810	47424.1	6.277072	171.127	372.866	1.173029	0.091415	0.091087	373.791	47424.1	0.085504	0.232810	1605.57	89799.1
170	2.000000	1.175357	7.36671e+06	-47139.1	955.819	-29767.4	0.000000	0.000000	7.191480	384.781	NaN	0.000000	0.001772	0.001743	28.1019	89.6619	0.001820	49258.6	6.417377	170.418	387.323	1.175029	0.093415	0.093087	384.781	49258.6	0.087557	0.242748	1585.1	91343.3
170	2.000000	1.177324	7.36671e+06	-47139.1	955.819	-29767.4	0.000000	0.000000	7.194256	404.481	NaN	0.000000	0.001757	0.001693	28.1029	90.3392	0.001796	50306.6	1.000555	175.764	401.07	1.176875	0.095382	0.094933	404.481	50306.6	0.089352	0.251598	1607.65	91631.5
170	2.000000	1.179299	7.36671e+06	-47139.1	955.818	-29767.4	0.000000	0.000000	7.197088	425.305	NaN	0.000000	0.001726	0.001691	28.1028	91.8087	0.001823	50372.1	2.553856	174.112	421.677	1.178965	0.097357	0.097023	425.305	50372.1	0.091025	0.259978	1635.93	90259.9
170	2.000000	1.181354	7.36671e+06	-47139.1	955.817	-29767.4	0.000000	0.000000	7.199586	436.093	NaN	0.000000	0.001761	0.001696	28.1029	95.2221	0.001741	54691	4.443626	171.724	436.856	1.180960	0.099412	0.099018	436.093	54691	0.093432	0.272259	1601.75	95762.9
170	2.000000	1.183307	7.36671e+06	-47139.1	955.817	-29767.4	0.000000	0.000000	7.202515	459.832	NaN	0.000000	0.001706	0.001756	28.1032	96.34	0.001842	52293.5	6.292328	170.437	457.804	1.183026	0.101365	0.101085	459.832	52293.5	0.094770	0.279203	1646.94	90419.2
170	2.000000	1.185169	7.36671e+06	-47139.1	955.817	-29767.4	0.000000	0.000000	7.205058	476.391	NaN	0.000000	0.001718	0.001723	28.1025	99.2595	0.001799	55184.6	4.936768	170.972	465.901	1.184820	0.103227	0.102879	476.391	55184.6	0.096753	0.289639	1644.78	93683.5
170	2.000000	1.187284	7.36671e+06	-47139.1	955.817	-29767.4	0.000000	0.000000	7.207626	487.407	NaN	0.000000	0.001690	0.001727	28.1023	100.852	0.001979	50950.4	5.323820	171.471	483.366	1.187090	0.105343	0.105148	487.407	50950.4	0.098168	0.297198	1640.01	85388.1
170	2.000000	1.189359	7.36671e+06	-47139.1	955.817	-29767.4	0.000000	0.000000	7.210615	509.65	NaN	0.000000	0.001707	0.001729	28.1015	101.762	0.001770	57491.9	7.768832	169.358	511.614	1.188980	0.107418	0.107039	509.65	57491.9	0.100769	0.311329	1637.02	94139.2
170	2.000000	1.191290	7.36671e+06	-47139.1	955.818	-29767.4	0.000000	0.000000	7.213042	521.693	NaN	0.000000	0.001679	0.001727	28.1019	104.799	0.001780	58884.4	3.571428	171.605	518.246	1.191123	0.109349	0.109182	521.693	58884.4	0.102704	0.322040	1619.96	94802.2
170	2.000000	1.192758	7.36671e+06	-47139.1	955.816	-29767.4	0.000000	0.000000	7.215545	546.893	NaN	0.000000	0.001703	0.001726	28.1317	104.718	0.001775	58994.3	5.017174	-8.975591	540.998	1.192431	0.110816	0.110490	546.893	58994.3	0.103863	0.328538	1664.62	94035.2