File: remote_trans/data/nanoindenter/0828-1/data/Data_2025-08-06,11h17m57s/2025-07-22_16-23-58_1_1030.txt
2025-07-22, 16:23:58, 1
Index	Phase	Displacement	Time	Pos X	Pos Y	Pos Z	Rot A	Rot B	Piezo Z	Force A	Force B	Gripper	Voltage A	Voltage B	Temperature	Amplitude force	Amplitude pos	Stiffness	Phase shift	Phase excitation	Force A raw	Displacement raw	HMax	HMax raw	Real Force	Real Stiffness	Contact Depth	Area	Hardness	Reduced Mod.
[#]	[#]	[um]	[s]	[um]	[um]	[um]	[m°]	[m°]	[um]	[uN]	[uN]	[V]	[V]	[V]	[°C]	[uN]	[um]	[N/m]	[°]	[°]	[uN]	[um]	[um]	[um]	[uN]	[N/m]	[um]	[um^2]	[MPa]	[MPa]
1030	1.000000	0.002738	7.37512e+06	-51639.1	1055.82	-29751.5	0.000000	0.000000	6.002764	0.021180	NaN	0.000000	0.001563	0.001601	28.0839	0.014899	0.000834	17.8588	127.33	-167.388	-0.019478	0.001546	-1.097058	-1.098250	0.021180	17.8588	-1.097947	-4.704500E+14	-4.502004E-17	NaN
1030	1.000000	0.012857	7.37512e+06	-51639.1	1055.82	-29751.5	0.000000	0.000000	6.012880	-0.038124	NaN	0.000000	0.001519	0.001625	28.0841	0.101029	0.001207	83.7309	176.458	19.0778	-0.085740	0.011327	-1.086939	-1.088469	-0.038124	83.7309	-1.086598	-3.312259E+14	1.150983E-16	NaN
1030	1.000000	0.022713	7.37512e+06	-51639.1	1055.82	-29751.5	0.000000	0.000000	6.022736	-0.032747	NaN	0.000000	0.001527	0.001614	28.0835	0.027120	0.001798	15.0844	121.468	-164.328	0.047321	0.021433	-1.077083	-1.078363	-0.032747	15.0844	-1.075455	-2.346777E+14	1.395419E-16	NaN
1030	1.000000	0.032722	7.37512e+06	-51639.1	1055.82	-29751.5	0.000000	0.000000	6.032745	-0.044087	NaN	0.000000	0.001524	0.001600	28.0834	0.026789	0.001805	14.841	-157.48	10.4503	0.052330	0.031366	-1.067074	-1.068430	-0.044087	14.841	-1.064846	-1.690233E+14	2.608356E-16	NaN
1030	1.000000	0.042735	7.37512e+06	-51639.1	1055.82	-29751.5	0.000000	0.000000	6.042759	-0.000748	NaN	0.000000	0.001587	0.001617	28.0834	0.085889	0.001967	43.6698	24.1495	-167.972	0.022899	0.041383	-1.057062	-1.058413	-0.000748	43.6698	-1.057049	-1.327882E+14	5.630533E-18	NaN
1030	1.000000	0.052736	7.37512e+06	-51639.1	1055.82	-29751.5	0.000000	0.000000	6.052759	-0.036191	NaN	0.000000	0.001607	0.001611	28.0833	0.023771	0.001920	12.3815	69.2216	10.7319	-0.034791	0.051400	-1.047060	-1.048396	-0.036191	12.3815	-1.044868	-9.108001E+13	3.973513E-16	NaN
1030	1.000000	0.062739	7.37512e+06	-51639.1	1055.82	-29751.5	0.000000	0.000000	6.062765	0.043193	NaN	0.000000	0.001629	0.001636	28.0829	0.134053	0.001977	67.7939	-46.2296	-165.164	0.041612	0.061443	-1.037057	-1.038353	0.043193	67.7939	-1.037535	-7.258130E+13	-5.950983E-16	NaN
1030	1.000000	0.072751	7.37512e+06	-51639.1	1055.82	-29751.5	0.000000	0.000000	6.072774	-0.047452	NaN	0.000000	0.001618	0.001604	28.0833	0.128947	0.002137	60.3485	33.5096	14.9442	0.008799	0.071403	-1.027045	-1.028393	-0.047452	60.3485	-1.026455	-5.149873E+13	9.214121E-16	NaN
1030	1.000000	0.082736	7.37512e+06	-51639.1	1055.82	-29751.5	0.000000	0.000000	6.082761	-0.011912	NaN	0.000000	0.001629	0.001614	28.0834	0.008857	0.001971	4.494468	-8.762378	-166.045	-0.039503	0.081436	-1.017060	-1.018361	-0.011912	4.494468	-1.015072	-3.619457E+13	3.291086E-16	NaN
1030	1.000000	0.092736	7.37512e+06	-51639.1	1055.82	-29751.5	0.000000	0.000000	6.092758	-0.060929	NaN	0.000000	0.001634	0.001641	28.083	0.088347	0.002044	43.2249	-51.6726	17.2655	-0.112274	0.091402	-1.007060	-1.008394	-0.060929	43.2249	-1.006003	-2.732624E+13	2.229688E-15	NaN
1030	1.000000	0.102756	7.37512e+06	-51639.1	1055.82	-29751.5	0.000000	0.000000	6.102781	0.008441	NaN	0.000000	0.001571	0.001656	28.0834	0.089718	0.001946	46.1134	-71.3428	-166.567	0.037771	0.101511	-0.997040	-0.998285	0.008441	46.1134	-0.997178	-2.078595E+13	-4.060991E-16	NaN
1030	1.000000	0.112734	7.37512e+06	-51639.1	1055.82	-29751.5	0.000000	0.000000	6.112756	-0.074817	NaN	0.000000	0.001619	0.001629	28.0838	0.066304	0.001975	33.578	122.228	14.3786	-0.147353	0.111413	-0.987062	-0.988384	-0.074817	33.578	-0.985391	-1.442212E+13	5.187659E-15	NaN
1030	1.000000	0.122750	7.37512e+06	-51639.1	1055.82	-29751.5	0.000000	0.000000	6.122773	-0.056674	NaN	0.000000	0.001601	0.001585	28.0852	0.008403	0.001972	4.260604	27.5481	-167.327	-0.013959	0.121427	-0.977046	-0.978370	-0.056674	4.260604	-0.967069	-8.168931E+12	6.937795E-15	NaN
1030	1.000000	0.132757	7.37512e+06	-51639.1	1055.82	-29751.5	0.000000	0.000000	6.132779	-0.065935	NaN	0.000000	0.001558	0.001606	28.0848	0.055749	0.001961	28.435	138.778	12.1956	-0.100552	0.131442	-0.967039	-0.968354	-0.065935	28.435	-0.965300	-7.732488E+12	8.526994E-15	NaN
1030	1.000000	0.142774	7.37512e+06	-51639.1	1055.82	-29751.5	0.000000	0.000000	6.142794	-0.117817	NaN	0.000000	0.001597	0.001625	28.085	0.063625	0.001997	31.8603	76.3695	-167.401	-0.098089	0.141434	-0.957022	-0.958362	-0.117817	31.8603	-0.954249	-5.486858E+12	2.147261E-14	NaN
1030	1.000000	0.152760	7.37512e+06	-51639.1	1055.82	-29751.5	0.000000	0.000000	6.152783	-0.042504	NaN	0.000000	0.001611	0.001649	28.0853	0.172602	0.002037	84.7135	149.908	11.8839	-0.079269	0.151443	-0.947037	-0.948353	-0.042504	84.7135	-0.946660	-4.334953E+12	9.804877E-15	NaN
1030	1.000000	0.162783	7.37512e+06	-51639.1	1055.82	-29751.5	0.000000	0.000000	6.162807	-0.024937	NaN	0.000000	0.001581	0.001641	28.0851	0.060189	0.002018	29.83	-120.357	-162.389	0.025190	0.161459	-0.937013	-0.938338	-0.024937	29.83	-0.936386	-3.150478E+12	7.915177E-15	NaN
1030	1.000000	0.172758	7.37512e+06	-51639.1	1055.82	-29751.5	0.000000	0.000000	6.172781	-0.050787	NaN	0.000000	0.001627	0.001659	28.0851	0.165619	0.001986	83.4098	-152.643	16.159	-0.091432	0.171456	-0.927038	-0.928340	-0.050787	83.4098	-0.926581	-2.323017E+12	2.186259E-14	NaN
1030	1.000000	0.182787	7.37512e+06	-51639.1	1055.82	-29751.5	0.000000	0.000000	6.182811	-0.023943	NaN	0.000000	0.001587	0.001624	28.085	0.013519	0.002069	6.534425	-48.5642	-166.353	0.035386	0.181518	-0.917009	-0.918278	-0.023943	6.534425	-0.914261	-1.583831E+12	1.511707E-14	NaN
1030	1.000000	0.192769	7.37512e+06	-51639.1	1055.82	-29751.5	0.000000	0.000000	6.192791	-0.066711	NaN	0.000000	0.001573	0.001642	28.085	0.033984	0.002025	16.7858	15.3677	14.8233	-0.035249	0.191415	-0.907027	-0.908381	-0.066711	16.7858	-0.904047	-1.152771E+12	5.787011E-14	NaN
1030	1.000000	0.202776	7.37512e+06	-51639.1	1055.82	-29751.5	0.000000	0.000000	6.202799	-0.039701	NaN	0.000000	0.001553	0.001631	28.0855	0.048258	0.001984	24.3202	72.2258	-166.481	-0.052495	0.201480	-0.897021	-0.898316	-0.039701	24.3202	-0.895796	-8.917804E+11	4.451933E-14	NaN
1030	1.000000	0.212791	7.37512e+06	-51639.1	1055.82	-29751.5	0.000000	0.000000	6.212816	-0.009196	NaN	0.000000	0.001522	0.001645	28.0849	0.007967	0.002046	3.893634	-111.711	14.1968	-0.071391	0.211434	-0.887005	-0.888362	-0.009196	3.893634	-0.885234	-6.419131E+11	1.432652E-14	NaN
1030	1.000000	0.222788	7.37512e+06	-51639.1	1055.82	-29751.5	0.000000	0.000000	6.222810	-0.060836	NaN	0.000000	0.001522	0.001627	28.0851	0.051058	0.001904	26.8133	-98.4799	-165.449	-0.018566	0.221499	-0.877008	-0.878298	-0.060836	26.8133	-0.875307	-4.712275E+11	1.291009E-13	NaN
1030	1.000000	0.232790	7.37512e+06	-51639.1	1055.82	-29751.5	0.000000	0.000000	6.232813	-0.035946	NaN	0.000000	0.001534	0.001625	28.0851	0.050566	0.001907	26.5171	112.949	12.494	-0.015962	0.231433	-0.867006	-0.868363	-0.035946	26.5171	-0.865990	-3.525184E+11	1.019705E-13	NaN
1030	1.000000	0.242801	7.37512e+06	-51639.1	1055.82	-29751.5	0.000000	0.000000	6.242825	-0.021969	NaN	0.000000	0.001507	0.001619	28.0851	0.079037	0.002058	38.4134	103.3	-166.081	0.015579	0.241474	-0.856995	-0.858322	-0.021969	38.4134	-0.856566	-2.628112E+11	8.359200E-14	NaN
1030	1.000000	0.252807	7.37512e+06	-51639.1	1055.82	-29751.5	0.000000	0.000000	6.252829	-0.065102	NaN	0.000000	0.001525	0.001608	28.085	0.054082	0.002043	26.4754	-136.543	12.6449	-0.029361	0.251458	-0.846989	-0.848338	-0.065102	26.4754	-0.845145	-1.840724E+11	3.536761E-13	NaN
1030	1.000000	0.262776	7.37512e+06	-51639.1	1055.82	-29751.5	0.000000	0.000000	6.262800	-0.032701	NaN	0.000000	0.001534	0.001630	28.084	0.090050	0.001937	46.4823	-117.502	-165.713	-0.028591	0.261494	-0.837020	-0.838302	-0.032701	46.4823	-0.836492	-1.405295E+11	2.326952E-13	NaN
1030	1.000000	0.272778	7.37512e+06	-51639.1	1055.82	-29751.5	0.000000	0.000000	6.272802	-0.015204	NaN	0.000000	0.001553	0.001662	28.0836	0.072010	0.001933	37.2464	108.788	11.5129	0.014569	0.271470	-0.827019	-0.828326	-0.015204	37.2464	-0.826712	-1.035668E+11	1.467996E-13	NaN
1030	1.000000	0.282812	7.37512e+06	-51639.1	1055.82	-29751.5	0.000000	0.000000	6.282832	-0.109884	NaN	0.000000	0.001552	0.001624	28.0836	0.131258	0.001964	66.8292	155.234	-165.331	-0.032763	0.281508	-0.816985	-0.818288	-0.109884	66.8292	-0.815751	-7.355153E+10	1.493975E-12	NaN
1030	1.000000	0.292817	7.37512e+06	-51639.1	1055.82	-29751.5	0.000000	0.000000	6.292842	0.003602	NaN	0.000000	0.001564	0.001614	28.0836	0.090978	0.001960	46.4058	-10.8652	15.8205	0.011900	0.291482	-0.806979	-0.808315	0.003602	46.4058	-0.807037	-5.602310E+10	-6.430134E-14	NaN
1030	1.000000	0.302843	7.37512e+06	-51639.1	1055.82	-29751.5	0.000000	0.000000	6.302863	-0.124464	NaN	0.000000	0.001576	0.001676	28.0838	0.143861	0.002078	69.2193	-150.457	-165.469	-0.074517	0.301490	-0.796953	-0.798306	-0.124464	69.2193	-0.795605	-3.919157E+10	3.175772E-12	NaN
1030	1.000000	0.312818	7.37512e+06	-51639.1	1055.82	-29751.5	0.000000	0.000000	6.312840	-0.068122	NaN	0.000000	0.001518	0.001636	28.0835	0.068714	0.001911	35.9611	164.274	14.7849	-0.027166	0.311511	-0.786978	-0.788285	-0.068122	35.9611	-0.785558	-2.862475E+10	2.379833E-12	NaN
1030	1.000000	0.322828	7.37512e+06	-51639.1	1055.82	-29751.5	0.000000	0.000000	6.322848	-0.115064	NaN	0.000000	0.001560	0.001626	28.0834	0.059516	0.001987	29.9476	-107.949	-164.696	-0.077636	0.321505	-0.776968	-0.778291	-0.115064	29.9476	-0.774086	-1.999214E+10	5.755437E-12	NaN
1030	1.000000	0.332844	7.37512e+06	-51639.1	1055.82	-29751.5	0.000000	0.000000	6.332867	-0.035338	NaN	0.000000	0.001575	0.001637	28.0832	0.079103	0.001950	40.5574	38.848	15.4701	0.030563	0.331442	-0.766952	-0.768355	-0.035338	40.5574	-0.766299	-1.566667E+10	2.255631E-12	NaN
1030	1.000000	0.342856	7.37512e+06	-51639.1	1055.82	-29751.5	0.000000	0.000000	6.342878	-0.055166	NaN	0.000000	0.001544	0.001655	28.0835	0.096474	0.001833	52.6253	134.62	-166.129	-0.038982	0.341533	-0.756941	-0.758263	-0.055166	52.6253	-0.756154	-1.140199E+10	4.838241E-12	NaN
1030	1.000000	0.352832	7.37512e+06	-51639.1	1055.82	-29751.5	0.000000	0.000000	6.352852	-0.100019	NaN	0.000000	0.001517	0.001669	28.0833	0.069554	0.001922	36.1885	-91.9138	13.2539	-0.137945	0.351458	-0.746965	-0.748338	-0.100019	36.1885	-0.744892	-8.010777E+9	1.248558E-11	NaN
1030	1.000000	0.362862	7.37512e+06	-51639.1	1055.82	-29751.5	0.000000	0.000000	6.362886	-0.026537	NaN	0.000000	0.001542	0.001647	28.0834	0.021030	0.002047	10.2739	-103.211	-164.575	-0.013605	0.361549	-0.736934	-0.738248	-0.026537	10.2739	-0.734997	-5.873516E+9	4.518074E-12	NaN
1030	1.000000	0.372871	7.37512e+06	-51639.1	1055.82	-29751.5	0.000000	0.000000	6.372892	-0.098534	NaN	0.000000	0.001535	0.001640	28.0835	0.164970	0.002156	76.5311	134.07	12.3097	-0.112102	0.371509	-0.726925	-0.728287	-0.098534	76.5311	-0.725960	-4.423175E+9	2.227678E-11	NaN
1030	1.000000	0.382847	7.37512e+06	-51639.1	1055.82	-29751.5	0.000000	0.000000	6.382868	-0.086152	NaN	0.000000	0.001511	0.001670	28.0832	0.201443	0.002128	94.6571	-77.807	-169.625	-0.059311	0.381532	-0.716949	-0.718264	-0.086152	94.6571	-0.716266	-3.262490E+9	2.640679E-11	NaN
1030	1.000000	0.392847	7.37512e+06	-51639.1	1055.82	-29751.5	0.000000	0.000000	6.392869	-0.084502	NaN	0.000000	0.001557	0.001683	28.0846	0.037764	0.001969	19.1809	-70.6642	10.9912	-0.102514	0.391557	-0.706949	-0.708240	-0.084502	19.1809	-0.703645	-2.194317E+9	3.850940E-11	NaN
1030	1.000000	0.402868	7.37512e+06	-51639.1	1055.82	-29751.5	0.000000	0.000000	6.402891	-0.048855	NaN	0.000000	0.001533	0.001674	28.0848	0.068704	0.001959	35.0738	94.8587	-166.191	-0.074997	0.401536	-0.696928	-0.698261	-0.048855	35.0738	-0.695883	-1.719110E+9	2.841862E-11	NaN
1030	1.000000	0.412918	7.37512e+06	-51639.1	1055.82	-29751.5	0.000000	0.000000	6.412939	-0.072821	NaN	0.000000	0.001552	0.001681	28.085	0.067708	0.001970	34.3698	-72.4609	15.5797	-0.018995	0.411537	-0.686879	-0.688259	-0.072821	34.3698	-0.685289	-1.231775E+9	5.911877E-11	NaN
1030	1.000000	0.422852	7.37512e+06	-51639.1	1055.82	-29751.5	0.000000	0.000000	6.422875	-0.040803	NaN	0.000000	0.001594	0.001670	28.0848	0.038077	0.002019	18.8637	127.876	-168.692	-0.001169	0.421553	-0.676944	-0.678243	-0.040803	18.8637	-0.675322	-8.999505E+8	4.533954E-11	NaN
1030	1.000000	0.432894	7.37512e+06	-51639.1	1055.82	-29751.5	0.000000	0.000000	6.432916	-0.076822	NaN	0.000000	0.001588	0.001742	28.085	0.091789	0.001916	47.9013	53.0803	12.1122	-0.076170	0.431491	-0.666902	-0.668306	-0.076822	47.9013	-0.665699	-6.645340E+8	1.156026E-10	NaN
1030	1.000000	0.442859	7.37512e+06	-51639.1	1055.82	-29751.5	0.000000	0.000000	6.442883	-0.020665	NaN	0.000000	0.001621	0.001710	28.0852	0.045989	0.002011	22.8707	166.824	-165.372	-0.002307	0.441596	-0.656937	-0.658200	-0.020665	22.8707	-0.656259	-4.934261E+8	4.187987E-11	NaN
1030	1.000000	0.452879	7.37512e+06	-51639.1	1055.82	-29751.5	0.000000	0.000000	6.452905	0.030192	NaN	0.000000	0.001619	0.001730	28.085	0.044277	0.002018	21.9409	48.1136	11.1156	0.052962	0.451522	-0.646917	-0.648274	0.030192	21.9409	-0.647949	-3.795966E+8	-7.953637E-11	NaN
1030	1.000000	0.462879	7.37512e+06	-51639.1	1055.82	-29751.5	0.000000	0.000000	6.462902	-0.050397	NaN	0.000000	0.001631	0.001741	28.0849	0.018260	0.002056	8.882880	-165.038	-166.52	-0.091977	0.461601	-0.636917	-0.638195	-0.050397	8.882880	-0.632662	-2.341931E+8	2.151953E-10	NaN
1030	1.000000	0.472919	7.37512e+06	-51639.1	1055.82	-29751.5	0.000000	0.000000	6.472943	-0.019638	NaN	0.000000	0.001598	0.001704	28.0847	0.038181	0.001844	20.7024	-139.396	16.2875	-0.003562	0.471546	-0.626877	-0.628250	-0.019638	20.7024	-0.626166	-1.907052E+8	1.029735E-10	NaN
1030	1.000000	0.482899	7.37512e+06	-51639.1	1055.82	-29751.5	0.000000	0.000000	6.482922	-0.054114	NaN	0.000000	0.001623	0.001702	28.0852	0.073481	0.002051	35.8348	-111.461	-165.048	0.012459	0.481610	-0.616897	-0.618186	-0.054114	35.8348	-0.615765	-1.372161E+8	3.943729E-10	NaN
1030	1.000000	0.492888	7.37512e+06	-51639.1	1055.82	-29751.5	0.000000	0.000000	6.492909	-0.092346	NaN	0.000000	0.001572	0.001680	28.0851	0.067726	0.002004	33.797	-99.3441	14.4344	-0.001893	0.491518	-0.606908	-0.608278	-0.092346	33.797	-0.604859	-9.713229E+7	9.507202E-10	NaN
1030	1.000000	0.502920	7.37513e+06	-51639.1	1055.82	-29751.5	0.000000	0.000000	6.502939	-0.135224	NaN	0.000000	0.001621	0.001679	28.085	0.017892	0.001939	9.226992	-10.8702	-167.418	-0.134356	0.501586	-0.596876	-0.598210	-0.135224	9.226992	-0.585885	-5.320111E+7	2.541746E-9	NaN
1030	1.000000	0.512938	7.37513e+06	-51639.1	1055.82	-29751.5	0.000000	0.000000	6.512962	-0.028857	NaN	0.000000	0.001625	0.001659	28.0854	0.058109	0.002013	28.8731	122.243	11.6542	-0.029459	0.511545	-0.586858	-0.588252	-0.028857	28.8731	-0.586109	-5.358032E+7	5.385695E-10	NaN
1030	1.000000	0.522885	7.37513e+06	-51639.1	1055.82	-29751.5	0.000000	0.000000	6.522910	0.024057	NaN	0.000000	0.001622	0.001677	28.0854	0.071837	0.001967	36.5265	-31.0261	-168.038	0.013002	0.521642	-0.576912	-0.578154	0.024057	36.5265	-0.577405	-4.063613E+7	-5.919999E-10	NaN
1030	1.000000	0.532914	7.37513e+06	-51639.1	1055.82	-29751.5	0.000000	0.000000	6.532936	-0.062417	NaN	0.000000	0.001626	0.001697	28.0837	0.054298	0.002001	27.1323	127.526	15.8508	-0.045280	0.531611	-0.566882	-0.568185	-0.062417	27.1323	-0.565157	-2.752302E+7	2.267808E-9	NaN
1030	1.000000	0.542953	7.37513e+06	-51639.1	1055.82	-29751.5	0.000000	0.000000	6.542976	-0.040497	NaN	0.000000	0.001604	0.001692	28.0841	0.051688	0.002021	25.5815	-9.800082	-168.899	0.001144	0.541623	-0.556843	-0.558173	-0.040497	25.5815	-0.555656	-2.033588E+7	1.991397E-9	NaN
1030	1.000000	0.552922	7.37513e+06	-51639.1	1055.82	-29751.5	0.000000	0.000000	6.552946	-0.011893	NaN	0.000000	0.001653	0.001713	28.0838	0.090209	0.002055	43.9015	-168.64	14.8851	-0.020672	0.551611	-0.546875	-0.548186	-0.011893	43.9015	-0.546671	-1.527012E+7	7.788668E-10	NaN
1030	1.000000	0.562928	7.37513e+06	-51639.1	1055.82	-29751.5	0.000000	0.000000	6.562946	-0.147346	NaN	0.000000	0.001634	0.001722	28.0837	0.125899	0.002074	60.707	-149.556	-168.471	-0.088785	0.561608	-0.536869	-0.538188	-0.147346	60.707	-0.535048	-1.053560E+7	1.398555E-8	NaN
1030	1.000000	0.572911	7.37513e+06	-51639.1	1055.82	-29751.5	0.000000	0.000000	6.572931	-0.109258	NaN	0.000000	0.001646	0.001741	28.0836	0.096522	0.001888	51.1249	-28.5458	10.5292	-0.005740	0.571590	-0.526885	-0.528207	-0.109258	51.1249	-0.525282	-7.70967e+06	1.417151E-8	NaN
1030	1.000000	0.582935	7.37513e+06	-51639.1	1055.82	-29751.5	0.000000	0.000000	6.582957	-0.071678	NaN	0.000000	0.001577	0.001752	28.0837	0.119462	0.001968	60.6867	132.473	-166.581	-0.155571	0.581630	-0.516861	-0.518166	-0.071678	60.6867	-0.515975	-5.7228e+06	1.252504E-8	NaN
1030	1.000000	0.592958	7.37513e+06	-51639.1	1055.82	-29751.5	0.000000	0.000000	6.592982	-0.003688	NaN	0.000000	0.001555	0.001722	28.0836	0.076672	0.001958	39.1548	11.6637	13.1642	0.022562	0.591588	-0.506839	-0.508208	-0.003688	39.1548	-0.506768	-4.25978e+06	8.658339E-10	NaN
1030	1.000000	0.602962	7.37513e+06	-51639.1	1055.82	-29751.5	0.000000	0.000000	6.602983	-0.098881	NaN	0.000000	0.001563	0.001709	28.0837	0.048564	0.002062	23.5517	0.858350	-166.204	-0.061316	0.601605	-0.496834	-0.498192	-0.098881	23.5517	-0.493685	-2.79816e+06	3.533789E-8	NaN
1030	1.000000	0.612948	7.37513e+06	-51639.1	1055.82	-29751.5	0.000000	0.000000	6.612970	-0.045294	NaN	0.000000	0.001524	0.001736	28.0835	0.134358	0.002030	66.1823	-169.603	14.3495	-0.017666	0.611606	-0.486849	-0.488191	-0.045294	66.1823	-0.486335	-2.20884e+06	2.050552E-8	NaN
1030	1.000000	0.622971	7.37513e+06	-51639.1	1055.82	-29751.5	0.000000	0.000000	6.622993	-0.056169	NaN	0.000000	0.001524	0.001748	28.0837	0.044245	0.002133	20.7471	111.67	-167.853	-0.030851	0.621673	-0.476825	-0.478124	-0.056169	20.7471	-0.474795	-1.52274e+06	3.688674E-8	NaN
1030	1.000000	0.632973	7.37513e+06	-51639.1	1055.82	-29751.5	0.000000	0.000000	6.632995	-0.058841	NaN	0.000000	0.001567	0.001742	28.0837	0.021262	0.002020	10.5265	133.321	11.2935	-0.071174	0.631629	-0.466823	-0.468168	-0.058841	10.5265	-0.462631	-1.02797e+06	5.724009E-8	NaN
1030	1.000000	0.642990	7.37513e+06	-51639.1	1055.82	-29751.5	0.000000	0.000000	6.643013	-0.042401	NaN	0.000000	0.001533	0.001742	28.0838	0.040569	0.002022	20.0588	-145.952	-165.397	-0.099574	0.641659	-0.456806	-0.458137	-0.042401	20.0588	-0.455221	-808767	5.242714E-8	NaN
1030	1.000000	0.652981	7.37513e+06	-51639.1	1055.82	-29751.5	0.000000	0.000000	6.653002	-0.092912	NaN	0.000000	0.001548	0.001749	28.0837	0.095642	0.001921	49.7878	-118.59	13.2909	-0.066485	0.651581	-0.446815	-0.448215	-0.092912	49.7878	-0.445415	-588503	1.578792E-7	NaN
1030	1.000000	0.662981	7.37513e+06	-51639.1	1055.82	-29751.5	0.000000	0.000000	6.663004	-0.020532	NaN	0.000000	0.001561	0.001759	28.084	0.041547	0.002062	20.1504	-24.1414	-166.01	-0.018971	0.661651	-0.436816	-0.438145	-0.020532	20.1504	-0.436051	-434120	4.729635E-8	NaN
1030	1.000000	0.672976	7.37513e+06	-51639.1	1055.82	-29751.5	0.000000	0.000000	6.672995	-0.140863	NaN	0.000000	0.001528	0.001737	28.0852	0.090395	0.002046	44.1912	-51.2811	12.8835	-0.181937	0.671646	-0.426820	-0.428151	-0.140863	44.1912	-0.424430	-297307	4.737954E-7	NaN
1030	1.000000	0.682975	7.37513e+06	-51639.1	1055.82	-29751.5	0.000000	0.000000	6.682994	-0.132417	NaN	0.000000	0.001547	0.001752	28.0852	0.046206	0.002102	21.9785	93.922	-166.254	-0.104024	0.681669	-0.416822	-0.418127	-0.132417	21.9785	-0.412303	-200050	6.619182E-7	NaN
1030	1.000000	0.692974	7.37513e+06	-51639.1	1055.82	-29751.5	0.000000	0.000000	6.692996	-0.067362	NaN	0.000000	0.001560	0.001746	28.0849	0.028112	0.001970	14.2678	-134.843	15.9929	0.031406	0.691595	-0.406822	-0.408201	-0.067362	14.2678	-0.403281	-148856	4.525338E-7	NaN
1030	1.000000	0.702996	7.37513e+06	-51639.1	1055.82	-29751.5	0.000000	0.000000	6.703019	-0.057110	NaN	0.000000	0.001517	0.001701	28.085	0.073491	0.001922	38.2281	107.859	-165.509	-0.083706	0.701697	-0.396800	-0.398099	-0.057110	38.2281	-0.395680	-115969	4.924625E-7	NaN
1030	1.000000	0.712986	7.37513e+06	-51639.1	1055.82	-29751.5	0.000000	0.000000	6.713011	-0.012883	NaN	0.000000	0.001571	0.001714	28.0849	0.050040	0.002030	24.6541	-175.139	12.7843	-0.117710	0.711659	-0.386810	-0.388137	-0.012883	24.6541	-0.386418	-85486.4	1.506994E-7	NaN
1030	1.000000	0.722972	7.37513e+06	-51639.1	1055.82	-29751.5	0.000000	0.000000	6.722993	-0.069255	NaN	0.000000	0.001546	0.001766	28.0849	0.071222	0.001838	38.7585	-147.572	-166.377	0.010432	0.721719	-0.376825	-0.378078	-0.069255	38.7585	-0.375485	-59571.2	1.162556E-6	NaN
1030	1.000000	0.733017	7.37513e+06	-51639.1	1055.82	-29751.6	0.000000	0.000000	6.733039	-0.062334	NaN	0.000000	0.001512	0.001703	28.0849	0.069459	0.002025	34.3076	-33.0217	10.3236	-0.092914	0.731601	-0.366779	-0.368196	-0.062334	34.3076	-0.365416	-42663.7	1.461051E-6	NaN
1030	1.000000	0.743003	7.37513e+06	-51639.1	1055.82	-29751.6	0.000000	0.000000	6.743027	-0.022176	NaN	0.000000	0.001531	0.001690	28.0852	0.045647	0.002152	21.2147	129.226	-166.66	-0.047019	0.741684	-0.356793	-0.358112	-0.022176	21.2147	-0.356009	-31197	7.108311E-7	NaN
1030	1.000000	0.753038	7.37513e+06	-51639.1	1055.82	-29751.6	0.000000	0.000000	6.753063	0.015767	NaN	0.000000	0.001542	0.001677	28.0847	0.064823	0.002088	31.0468	-47.7687	12.7152	0.045216	0.751647	-0.346758	-0.348149	0.015767	31.0468	-0.347139	-23198.3	-6.796721E-7	NaN
1030	1.000000	0.763010	7.37513e+06	-51639.1	1055.82	-29751.6	0.000000	0.000000	6.763034	-0.018281	NaN	0.000000	0.001586	0.001672	28.0847	0.046374	0.001954	23.7373	-136.762	-169.535	0.019662	0.761700	-0.336787	-0.338097	-0.018281	23.7373	-0.336209	-16078.5	1.136968E-6	NaN
1030	1.000000	0.773054	7.37513e+06	-51639.1	1055.82	-29751.6	0.000000	0.000000	6.773077	-0.052932	NaN	0.000000	0.001560	0.001664	28.0848	0.062291	0.002018	30.8611	-115.355	10.7314	-0.015044	0.771676	-0.326742	-0.328120	-0.052932	30.8611	-0.325455	-11189.8	4.730369E-6	NaN
1030	1.000000	0.783014	7.37513e+06	-51639.1	1055.82	-29751.6	0.000000	0.000000	6.783036	-0.071709	NaN	0.000000	0.001560	0.001707	28.0848	0.043607	0.002046	21.3123	-26.1373	-167.561	-0.073129	0.781776	-0.316782	-0.318021	-0.071709	21.3123	-0.314258	-7655.93	9.366535E-6	NaN
1030	1.000000	0.793056	7.37513e+06	-51639.1	1055.82	-29751.6	0.000000	0.000000	6.793082	0.013226	NaN	0.000000	0.001592	0.001709	28.0845	0.095579	0.002033	47.0073	-160.78	12.8152	-0.086905	0.791656	-0.306740	-0.308141	0.013226	47.0073	-0.306951	-5968.87	-2.215782E-6	NaN
1030	1.000000	0.803042	7.37513e+06	-51639.1	1055.82	-29751.6	0.000000	0.000000	6.803065	-0.044131	NaN	0.000000	0.001547	0.001686	28.0834	0.020401	0.002027	10.0672	85.5211	-165.217	-0.030949	0.801664	-0.296754	-0.298133	-0.044131	10.0672	-0.293466	-3759.85	1.173748E-5	NaN
1030	1.000000	0.813036	7.37513e+06	-51639.1	1055.82	-29751.6	0.000000	0.000000	6.813058	-0.071961	NaN	0.000000	0.001547	0.001705	28.0833	0.055702	0.002092	26.6221	89.1601	11.8143	-0.011360	0.811695	-0.286760	-0.288101	-0.071961	26.6221	-0.284733	-2781.3	2.587314E-5	NaN
1030	1.000000	0.823053	7.37513e+06	-51639.1	1055.82	-29751.6	0.000000	0.000000	6.823076	-0.039390	NaN	0.000000	0.001537	0.001722	28.0833	0.008222	0.001946	4.225375	96.5323	-168.643	-0.050320	0.821732	-0.276743	-0.278064	-0.039390	4.225375	-0.269752	-1651.09	2.385666E-5	NaN
1030	1.000000	0.833062	7.37513e+06	-51639.1	1055.82	-29751.6	0.000000	0.000000	6.833082	-0.115364	NaN	0.000000	0.001515	0.001739	28.0833	0.054607	0.002005	27.2395	-128.663	11.8811	-0.134946	0.831690	-0.266735	-0.268106	-0.115364	27.2395	-0.263558	-1328.52	8.683586E-5	NaN
1030	1.000000	0.843058	7.37513e+06	-51639.1	1055.82	-29751.6	0.000000	0.000000	6.843080	-0.067225	NaN	0.000000	0.001554	0.001722	28.083	0.002625	0.002146	1.223659	-66.8828	-164.745	-0.057088	0.841803	-0.256739	-0.257993	-0.067225	1.223659	-0.215536	-235.573	0.000285	NaN
1030	1.000000	0.853030	7.37513e+06	-51639.1	1055.82	-29751.6	0.000000	0.000000	6.853050	-0.110849	NaN	0.000000	0.001567	0.001691	28.0833	0.043664	0.002086	20.9303	-138.39	10.6603	-0.174541	0.851671	-0.246766	-0.248125	-0.110849	20.9303	-0.242794	-635.52	0.000174	NaN
1030	1.000000	0.863060	7.37513e+06	-51639.1	1055.82	-29751.6	0.000000	0.000000	6.863084	-0.024329	NaN	0.000000	0.001605	0.001694	28.083	0.110093	0.001973	55.7993	-131.805	-167.918	0.000777	0.861762	-0.236736	-0.238035	-0.024329	55.7993	-0.236409	-505.079	4.816850E-5	NaN
1030	1.000000	0.873061	7.37513e+06	-51639.1	1055.82	-29751.6	0.000000	0.000000	6.873085	-0.032097	NaN	0.000000	0.001589	0.001685	28.083	0.192330	0.002006	95.8873	146.843	12.1175	4.387441E-5	0.871685	-0.226735	-0.228111	-0.032097	95.8873	-0.226484	-352.278	9.111381E-5	NaN
1030	1.000000	0.883080	7.37513e+06	-51639.1	1055.82	-29751.6	0.000000	0.000000	6.883101	-0.096338	NaN	0.000000	0.001569	0.001671	28.0828	0.020293	0.001986	10.2181	-140.017	-166.297	-0.025409	0.881788	-0.216716	-0.218008	-0.096338	10.2181	-0.209645	-189.264	0.000509	NaN
1030	1.000000	0.893091	7.37513e+06	-51639.1	1055.82	-29751.6	0.000000	0.000000	6.893113	-0.055132	NaN	0.000000	0.001598	0.001685	28.0832	0.070278	0.001932	36.3686	125.879	17.2654	-0.168159	0.891728	-0.206705	-0.208068	-0.055132	36.3686	-0.205568	-162.49	0.000339	NaN
1030	1.000000	0.903114	7.37513e+06	-51639.1	1055.82	-29751.6	0.000000	0.000000	6.903135	-0.098661	NaN	0.000000	0.001648	0.001687	28.0831	0.089982	0.002068	43.5148	-35.5279	-168.492	-0.016932	0.901781	-0.196682	-0.198016	-0.098661	43.5148	-0.194982	-108.867	0.000906	NaN
1030	1.000000	0.913083	7.37513e+06	-51639.1	1055.82	-29751.6	0.000000	0.000000	6.913106	-0.039207	NaN	0.000000	0.001667	0.001705	28.0832	0.101026	0.001982	50.9756	-149.547	13.8552	-0.111139	0.911698	-0.186713	-0.188099	-0.039207	50.9756	-0.186136	-77.4933	0.000506	NaN
1030	1.000000	0.923091	7.37513e+06	-51639.1	1055.82	-29751.6	0.000000	0.000000	6.923112	-0.077128	NaN	0.000000	0.001649	0.001681	28.083	0.089669	0.001929	46.4806	158.348	-167.285	-0.068585	0.921799	-0.176705	-0.177998	-0.077128	46.4806	-0.175461	-51.0384	0.001511	NaN
1030	1.000000	0.933091	7.37513e+06	-51639.1	1055.82	-29751.6	0.000000	0.000000	6.933114	-0.031677	NaN	0.000000	0.001645	0.001677	28.0833	0.054587	0.002115	25.8135	-83.5911	9.984287	-0.128641	0.931764	-0.166705	-0.168032	-0.031677	25.8135	-0.165785	-34.6799	0.000913	NaN
1030	1.000000	0.943092	7.37513e+06	-51639.1	1055.82	-29751.6	0.000000	0.000000	6.943114	-0.061090	NaN	0.000000	0.001643	0.001659	28.0846	0.031818	0.002105	15.1122	80.044	-165.092	-0.068645	0.941721	-0.156704	-0.158075	-0.061090	15.1122	-0.153672	-21.1178	0.002893	NaN
1030	1.000000	0.953101	7.37513e+06	-51639.1	1055.82	-29751.6	0.000000	0.000000	6.953121	-0.114370	NaN	0.000000	0.001636	0.001659	28.0848	0.043205	0.002014	21.4532	118.733	11.0596	-0.085685	0.951738	-0.146695	-0.148058	-0.114370	21.4532	-0.142697	-13.2865	0.008608	NaN
1030	1.000000	0.963123	7.37513e+06	-51639.1	1055.82	-29751.6	0.000000	0.000000	6.963147	-0.034392	NaN	0.000000	0.001644	0.001679	28.0849	0.092800	0.002064	44.9653	168.386	-165.244	0.020580	0.961807	-0.136673	-0.137989	-0.034392	44.9653	-0.136099	-9.982467	0.003445	NaN
1030	1.000000	0.973105	7.37513e+06	-51639.1	1055.82	-29751.6	0.000000	0.000000	6.973127	-0.055277	NaN	0.000000	0.001560	0.001683	28.0846	0.087896	0.002062	42.6314	40.4031	13.9299	-0.053245	0.971713	-0.126691	-0.128083	-0.055277	42.6314	-0.125719	-6.283483	0.008797	NaN
1030	1.000000	0.983096	7.37513e+06	-51639.1	1055.82	-29751.6	0.000000	0.000000	6.983118	-0.080508	NaN	0.000000	0.001588	0.001709	28.0846	0.091807	0.001979	46.384	22.776	-167.438	-0.048306	0.981831	-0.116700	-0.117965	-0.080508	46.384	-0.115398	-3.893196	0.020679	NaN
1030	1.000000	0.993130	7.37513e+06	-51639.1	1055.82	-29751.6	0.000000	0.000000	6.993155	0.014775	NaN	0.000000	0.001569	0.001708	28.0847	0.058286	0.002017	28.9028	-97.2286	17.8215	0.005723	0.991747	-0.106666	-0.108049	0.014775	28.9028	-0.107049	-2.601492	-0.005679	NaN
1030	1.000000	1.003146	7.37513e+06	-51639.1	1055.82	-29751.6	0.000000	0.000000	7.003171	0.005011	NaN	0.000000	0.001558	0.001693	28.0847	0.046786	0.001937	24.1488	-106.721	-164.155	0.019566	1.001839	-0.096650	-0.097957	0.005011	24.1488	-0.096805	-1.550045	-0.003233	NaN
1030	1.000000	1.013128	7.37513e+06	-51639.1	1055.82	-29751.6	0.000000	0.000000	7.013152	-0.016522	NaN	0.000000	0.001539	0.001674	28.0851	0.090103	0.001951	46.1714	-94.4794	12.3254	-0.004766	1.011773	-0.086668	-0.088023	-0.016522	46.1714	-0.086399	-0.887972	0.018607	NaN
1030	1.000000	1.023136	7.37513e+06	-51639.1	1055.82	-29751.6	0.000000	0.000000	7.023160	-0.012625	NaN	0.000000	0.001536	0.001677	28.0846	0.072322	0.001890	38.2736	-81.9316	-168.597	-0.009918	1.021817	-0.076661	-0.077979	-0.012625	38.2736	-0.076413	-0.502229	0.025138	NaN
1030	1.000000	1.033155	7.37513e+06	-51639.1	1055.82	-29751.6	0.000000	0.000000	7.033180	-0.001988	NaN	0.000000	0.001577	0.001692	28.0847	0.050213	0.002148	23.3811	12.1853	13.687	0.062853	1.031764	-0.066641	-0.068033	-0.001988	23.3811	-0.066577	-0.275475	0.007218	NaN
1030	1.000000	1.043160	7.37513e+06	-51639.1	1055.82	-29751.6	0.000000	0.000000	7.043183	-0.049013	NaN	0.000000	0.001534	0.001690	28.0847	0.061500	0.002095	29.3566	32.209	-165.561	-0.065243	1.041827	-0.056636	-0.057969	-0.049013	29.3566	-0.055384	-0.132183	0.370797	NaN
1030	1.000000	1.053112	7.37513e+06	-51639.1	1055.82	-29751.6	0.000000	0.000000	7.053133	-0.092610	NaN	0.000000	0.001575	0.001703	28.085	0.102462	0.002024	50.6231	-132.883	11.4575	-0.059402	1.051775	-0.046685	-0.048021	-0.092610	50.6231	-0.045313	-0.065698	1.409634	NaN
1030	1.000000	1.063165	7.37513e+06	-51639.1	1055.82	-29751.6	0.000000	0.000000	7.063187	-0.056750	NaN	0.000000	0.001573	0.001724	28.0846	0.010675	0.001937	5.511744	-96.3751	-163.087	-0.074276	1.061815	-0.036631	-0.037981	-0.056750	5.511744	-0.028909	-0.021468	2.643464	NaN
1030	1.000000	1.073120	7.37513e+06	-51639.1	1055.82	-29751.6	0.000000	0.000000	7.073145	0.002247	NaN	0.000000	0.001540	0.001699	28.0846	0.117545	0.001984	59.2364	35.6475	16.1794	0.020534	1.071756	-0.026676	-0.028041	0.002247	59.2364	-0.026704	-0.018711	-0.120104	NaN
1030	1.000000	1.083127	7.37513e+06	-51639.1	1055.82	-29751.6	0.000000	0.000000	7.083149	-0.067914	NaN	0.000000	0.001567	0.001690	28.0835	0.171257	0.002000	85.6466	70.4767	-165.791	0.006132	1.081824	-0.016669	-0.017973	-0.067914	85.6466	-0.016074	-0.009929	6.840078	NaN
1030	1.000000	1.093134	7.37513e+06	-51639.1	1055.82	-29751.6	0.000000	0.000000	7.093157	-0.035029	NaN	0.000000	0.001542	0.001709	28.0836	0.048936	0.001873	26.134	-94.119	12.4843	-0.053054	1.091780	-0.006662	-0.008017	-0.035029	26.134	-0.005657	-0.003826	9.156135	NaN
1030	1.000000	1.103011	7.37513e+06	-51639.1	1055.82	-29751.6	0.000000	0.000000	7.103392	8.665571	NaN	0.000000	0.001527	0.001655	28.0835	8.516895	0.001578	5396.63	16.4088	179.631	7.152688	1.101840	0.003215	0.002044	8.665571	5396.63	0.002011	0.001564	5542.17	124692
1030	2.000000	1.106150	7.37513e+06	-51639.1	1055.82	-29751.6	0.000000	0.000000	7.106684	12.385	NaN	0.000000	0.001539	0.001712	28.0837	11.9782	0.001657	7228.74	4.919930	6.662622	10.8551	1.105827	0.006353	0.006031	12.385	7228.74	0.005068	0.004196	2951.67	101958
1030	2.000000	1.108629	7.37513e+06	-51639.1	1055.82	-29751.6	0.000000	0.000000	7.109370	17.4053	NaN	0.000000	0.001554	0.001707	28.0836	15.7612	0.001795	8779.32	6.965741	-175.249	16.4415	1.108384	0.008833	0.008588	17.4053	8779.32	0.007346	0.006379	2728.73	100433
1030	2.000000	1.111152	7.37513e+06	-51639.1	1055.82	-29751.6	0.000000	0.000000	7.112164	24.0168	NaN	0.000000	0.001561	0.001717	28.0835	17.8108	0.001688	10551	6.706575	3.124516	22.1884	1.110744	0.011356	0.010948	24.0168	10551	0.009649	0.008794	2731.18	102798
1030	2.000000	1.113617	7.37513e+06	-51639.1	1055.82	-29751.6	0.000000	0.000000	7.114829	28.866	NaN	0.000000	0.001573	0.001728	28.0835	20.8078	0.001761	11816.5	4.385254	-175.864	27.5711	1.113279	0.013821	0.013483	28.866	11816.5	0.011989	0.011477	2515.21	100776
1030	2.000000	1.116100	7.37513e+06	-51639.1	1055.82	-29751.6	0.000000	0.000000	7.117559	34.8864	NaN	0.000000	0.001589	0.001696	28.0837	24.1219	0.001757	13727.6	7.295746	-0.035792	33.4488	1.115685	0.016304	0.015889	34.8864	13727.6	0.014398	0.014491	2407.49	104189
1030	2.000000	1.118615	7.37513e+06	-51639.1	1055.82	-29751.6	0.000000	0.000000	7.120311	40.6235	NaN	0.000000	0.001637	0.001703	28.0832	26.9169	0.001789	15043.6	7.033931	178.782	39.6632	1.118361	0.018819	0.018565	40.6235	15043.6	0.016794	0.017752	2288.35	103157
1030	2.000000	1.121158	7.37513e+06	-51639.1	1055.82	-29751.6	0.000000	0.000000	7.123162	48.1411	NaN	0.000000	0.001633	0.001695	28.0836	28.6558	0.001662	17243.8	4.184538	1.727079	47.5009	1.120699	0.021362	0.020903	48.1411	17243.8	0.019268	0.021405	2249.11	107685
1030	2.000000	1.123597	7.37513e+06	-51639.1	1055.82	-29751.6	0.000000	0.000000	7.125886	55.0593	NaN	0.000000	0.001595	0.001682	28.0837	31.1571	0.001724	18068.5	8.459169	176.414	54.312	1.123253	0.023801	0.023457	55.0593	18068.5	0.021515	0.024979	2204.19	104449
1030	2.000000	1.126103	7.37513e+06	-51639.1	1055.82	-29751.6	0.000000	0.000000	7.128688	62.2577	NaN	0.000000	0.001608	0.001703	28.0834	33.5726	0.001701	19732.5	4.408264	-1.233652	60.7844	1.125848	0.026307	0.026052	62.2577	19732.5	0.023941	0.029117	2138.21	105654
1030	2.000000	1.128580	7.37513e+06	-51639.1	1055.82	-29751.6	0.000000	0.000000	7.131499	70.3701	NaN	0.000000	0.001591	0.001704	28.0834	36.4136	0.001710	21295.7	3.403887	178.684	67.8225	1.128291	0.028784	0.028495	70.3701	21295.7	0.026306	0.033434	2104.73	106407
1030	2.000000	1.131096	7.37513e+06	-51639.1	1055.82	-29751.6	0.000000	0.000000	7.134571	83.9189	NaN	0.000000	0.001608	0.001678	28.0847	38.1923	0.001652	23121	9.082404	-5.756711	82.3701	1.130685	0.031299	0.030889	83.9189	23121	0.028577	0.037846	2217.36	108585
1030	2.000000	1.133552	7.37513e+06	-51639.1	1055.82	-29751.6	0.000000	0.000000	7.137268	89.7724	NaN	0.000000	0.001599	0.001666	28.0846	40.3101	0.001732	23270.5	4.920202	176.775	86.9169	1.133249	0.033756	0.033453	89.7724	23270.5	0.030862	0.042550	2109.81	103069
1030	2.000000	1.136017	7.37513e+06	-51639.1	1055.82	-29751.6	0.000000	0.000000	7.140117	99.0863	NaN	0.000000	0.001607	0.001672	28.0845	43.4547	0.001744	24909.9	3.981503	-2.896675	95.9047	1.135790	0.036221	0.035994	99.0863	24909.9	0.033238	0.047722	2076.34	104181
1030	2.000000	1.138639	7.37513e+06	-51639.1	1055.82	-29751.6	0.000000	0.000000	7.142969	104.672	NaN	0.000000	0.001627	0.001681	28.0845	47.841	0.001827	26183	5.930387	175.001	106.865	1.138385	0.038843	0.038589	104.672	26183	0.035845	0.053731	1948.06	103200
1030	2.000000	1.141070	7.37513e+06	-51639.1	1055.82	-29751.6	0.000000	0.000000	7.146138	122.623	NaN	0.000000	0.001648	0.001665	28.0845	49.9556	0.001825	27369.7	5.921634	-4.711537	121.188	1.140714	0.041274	0.040918	122.623	27369.7	0.037914	0.058749	2087.25	103168
1030	2.000000	1.143602	7.37513e+06	-51639.1	1055.82	-29751.6	0.000000	0.000000	7.149075	132.469	NaN	0.000000	0.001631	0.001688	28.0849	51.8106	0.001883	27507.7	5.325175	176.328	133.335	1.143254	0.043806	0.043458	132.469	27507.7	0.040194	0.064531	2052.8	98933.8
1030	2.000000	1.146006	7.37513e+06	-51639.1	1055.82	-29751.6	0.000000	0.000000	7.152018	145.605	NaN	0.000000	0.001652	0.001697	28.0846	54.5916	0.001717	31797.5	4.598225	-5.534437	141.821	1.145729	0.046210	0.045933	145.605	31797.5	0.042775	0.071397	2039.37	108724
1030	2.000000	1.148544	7.37513e+06	-51639.1	1055.82	-29751.6	0.000000	0.000000	7.154836	152.409	NaN	0.000000	0.001624	0.001687	28.0847	57.8413	0.001777	32548.6	4.212643	174.619	149.569	1.148259	0.048748	0.048463	152.409	32548.6	0.045236	0.078258	1947.52	106302
1030	2.000000	1.151126	7.37513e+06	-51639.1	1055.82	-29751.6	0.000000	0.000000	7.158063	168.071	NaN	0.000000	0.001622	0.001674	28.0848	59.1907	0.001756	33714.9	7.102687	-7.299871	168.806	1.150657	0.051330	0.050861	168.071	33714.9	0.047591	0.085113	1974.68	105584
1030	2.000000	1.153510	7.37513e+06	-51639.1	1055.82	-29751.6	0.000000	0.000000	7.161260	187.862	NaN	0.000000	0.001623	0.001658	28.0847	61.8697	0.001775	34849.1	7.788048	171.176	184.211	1.153090	0.053714	0.053293	187.862	34849.1	0.049671	0.091398	2055.44	105317
1030	2.000000	1.155992	7.37513e+06	-51639.1	1055.82	-29751.6	0.000000	0.000000	7.164129	197.251	NaN	0.000000	0.001626	0.001675	28.0847	64.4561	0.001822	35370.9	4.025587	-5.707690	192.92	1.155699	0.056196	0.055903	197.251	35370.9	0.052014	0.098739	1997.7	102843
1030	2.000000	1.158502	7.37513e+06	-51639.1	1055.82	-29751.6	0.000000	0.000000	7.167134	209.296	NaN	0.000000	0.001644	0.001617	28.0846	67.6371	0.001896	35669.7	7.723619	170.394	207.197	1.158259	0.058706	0.058462	209.296	35669.7	0.054305	0.106183	1971.09	100011
1030	2.000000	1.161189	7.37513e+06	-51639.1	1055.82	-29751.6	0.000000	0.000000	7.170285	220.56	NaN	0.000000	0.001643	0.001654	28.0849	69.5688	0.001784	38990.8	9.066979	-10.377	225.114	1.160675	0.061393	0.060879	220.56	38990.8	0.057151	0.115789	1904.84	104689
1030	2.000000	1.163505	7.37513e+06	-51639.1	1055.82	-29751.6	0.000000	0.000000	7.173263	236.664	NaN	0.000000	0.001622	0.001648	28.0848	70.5069	0.001801	39142.9	2.482748	175.579	233.777	1.163207	0.063709	0.063410	236.664	39142.9	0.059175	0.122865	1926.2	102026
1030	2.000000	1.165980	7.37513e+06	-51639.1	1055.82	-29751.6	0.000000	0.000000	7.176613	257.932	NaN	0.000000	0.001629	0.001642	28.0836	72.784	0.001770	41110.7	4.472776	-6.817966	253.34	1.165624	0.066184	0.065827	257.932	41110.7	0.061479	0.131164	1966.49	103710
1030	2.000000	1.168593	7.37513e+06	-51639.1	1055.82	-29751.6	0.000000	0.000000	7.179619	267.512	NaN	0.000000	0.001586	0.001660	28.0839	75.4095	0.001724	43741.6	2.423975	174.788	269.079	1.168249	0.068797	0.068453	267.512	43741.6	0.064210	0.141336	1892.73	106302
1030	2.000000	1.171000	7.37513e+06	-51639.1	1055.82	-29751.6	0.000000	0.000000	7.182833	287.121	NaN	0.000000	0.001559	0.001695	28.0839	78.1803	0.001734	45097.9	7.876518	-9.907603	282.836	1.170529	0.071204	0.070733	287.121	45097.9	0.066429	0.149865	1915.87	106434
1030	2.000000	1.173541	7.37513e+06	-51639.1	1055.82	-29751.6	0.000000	0.000000	7.185973	301.675	NaN	0.000000	0.001559	0.001673	28.0838	80.2557	0.001804	44483.9	5.904521	171.292	301.318	1.173246	0.073745	0.073450	301.675	44483.9	0.068659	0.158675	1901.21	102029
1030	2.000000	1.176025	7.37513e+06	-51639.1	1055.82	-29751.6	0.000000	0.000000	7.189096	317.234	NaN	0.000000	0.001581	0.001652	28.0836	81.8221	0.001729	47312.2	3.548686	-7.477864	314.875	1.175753	0.076229	0.075956	317.234	47312.2	0.071200	0.169003	1877.09	105148
1030	2.000000	1.178527	7.37513e+06	-51639.1	1055.82	-29751.6	0.000000	0.000000	7.192054	328.337	NaN	0.000000	0.001573	0.001659	28.0839	85.6704	0.001819	47091.3	4.498642	172.031	328.318	1.178369	0.078730	0.078573	328.337	47091.3	0.073501	0.178621	1838.18	101800
1030	2.000000	1.181024	7.37513e+06	-51639.1	1055.82	-29751.6	0.000000	0.000000	7.195573	353.172	NaN	0.000000	0.001576	0.001637	28.0835	86.8145	0.001747	49690.4	4.278392	-8.152734	350.461	1.180743	0.081228	0.080946	353.172	49690.4	0.075897	0.188900	1869.62	104455
1030	2.000000	1.183508	7.37513e+06	-51639.1	1055.82	-29751.6	0.000000	0.000000	7.198681	368.326	NaN	0.000000	0.001589	0.001658	28.0838	89.549	0.001819	49238.8	3.306761	173.238	369.628	1.183208	0.083712	0.083412	368.326	49238.8	0.078102	0.198598	1854.64	100947
1030	2.000000	1.186025	7.37513e+06	-51639.1	1055.82	-29751.6	0.000000	0.000000	7.201838	383.903	NaN	0.000000	0.001529	0.001637	28.0835	93.5682	0.001821	51394	5.136165	-9.130821	381.47	1.185757	0.086229	0.085961	383.903	51394	0.080626	0.209980	1828.29	102470
1030	2.000000	1.188489	7.37513e+06	-51639.1	1055.82	-29751.6	0.000000	0.000000	7.205151	404.566	NaN	0.000000	0.001561	0.001645	28.084	95.0401	0.001768	53747.4	1.484679	174.469	402.965	1.188154	0.088692	0.088358	404.566	53747.4	0.083047	0.221174	1829.18	104415
1030	2.000000	1.190981	7.37513e+06	-51639.1	1055.82	-29751.6	0.000000	0.000000	7.208368	422.161	NaN	0.000000	0.001589	0.001653	28.0833	96.7907	0.001733	55842.2	2.094801	-6.273093	418.22	1.190733	0.091185	0.090937	422.161	55842.2	0.085515	0.232866	1812.9	105726
1030	2.000000	1.193435	7.37513e+06	-51639.1	1055.82	-29751.6	0.000000	0.000000	7.211974	450.209	NaN	0.000000	0.001591	0.001659	28.0835	100.147	0.001766	56712.9	5.976233	169.732	446.709	1.193042	0.093639	0.093246	450.209	56712.9	0.087685	0.243375	1849.86	105031
1030	2.000000	1.195975	7.37513e+06	-51639.1	1055.82	-29751.6	0.000000	0.000000	7.215334	470.124	NaN	0.000000	0.001575	0.001680	28.0833	101.809	0.001858	54789	2.048199	-6.161299	463.823	1.195629	0.096179	0.095833	470.124	54789	0.089743	0.253547	1854.19	99411.6
1030	2.000000	1.198479	7.37513e+06	-51639.1	1055.82	-29751.6	0.000000	0.000000	7.218279	480.866	NaN	0.000000	0.001595	0.001679	28.0841	104.561	0.001697	61630.1	3.334173	171.628	479.668	1.198297	0.098683	0.098500	480.866	61630.1	0.092831	0.269169	1786.49	108531
1030	2.000000	1.201140	7.37513e+06	-51639.1	1055.82	-29751.6	0.000000	0.000000	7.221930	504.928	NaN	0.000000	0.001582	0.001679	28.0847	107.997	0.001851	58343.6	10.0623	-14.0998	510.829	1.200657	0.101344	0.100860	504.928	58343.6	0.094853	0.279635	1805.67	100802
1030	2.000000	1.202451	7.37513e+06	-51639.1	1055.82	-29751.6	0.000000	0.000000	7.223976	522.799	NaN	0.000000	0.001601	0.001678	28.0846	108.609	0.001821	59656.5	4.642705	171.069	520.045	1.202035	0.102655	0.102239	522.799	59656.5	0.096083	0.286092	1827.38	101901