File: remote_trans/data/nanoindenter/0828-1/data/Data_2025-08-06,11h17m57s/2025-07-22_16-23-58_1_13.txt
2025-07-22, 16:23:58, 1
Index	Phase	Displacement	Time	Pos X	Pos Y	Pos Z	Rot A	Rot B	Piezo Z	Force A	Force B	Gripper	Voltage A	Voltage B	Temperature	Amplitude force	Amplitude pos	Stiffness	Phase shift	Phase excitation	Force A raw	Displacement raw	HMax	HMax raw	Real Force	Real Stiffness	Contact Depth	Area	Hardness	Reduced Mod.
[#]	[#]	[um]	[s]	[um]	[um]	[um]	[m°]	[m°]	[um]	[uN]	[uN]	[V]	[V]	[V]	[°C]	[uN]	[um]	[N/m]	[°]	[°]	[uN]	[um]	[um]	[um]	[uN]	[N/m]	[um]	[um^2]	[MPa]	[MPa]
13	1.000000	0.002484	7.36517e+06	-39289.1	955.819	-29795.1	0.000000	0.000000	6.002802	0.079418	NaN	0.000000	0.001593	0.001694	28.0813	0.090385	0.001026	88.0525	68.3803	-162.956	0.050925	0.001283	-1.077968	-1.079170	0.079418	88.0525	-1.078645	-2.590082E+14	-3.066232E-16	NaN
13	1.000000	0.010452	7.36517e+06	-39289.1	955.819	-29795.1	0.000000	0.000000	6.010770	0.082954	NaN	0.000000	0.001534	0.001663	28.0804	0.018761	0.001058	17.7246	150.956	-166.684	0.033979	0.009136	-1.070000	-1.071316	0.082954	17.7246	-1.073510	-2.209775E+14	-3.753973E-16	NaN
13	1.000000	0.018438	7.36517e+06	-39289.1	955.818	-29795.1	0.000000	0.000000	6.018753	-0.002712	NaN	0.000000	0.001568	0.001676	28.0793	0.039031	0.001649	23.6742	142.812	-162.874	0.021952	0.017154	-1.062014	-1.063298	-0.002712	23.6742	-1.061929	-1.544321E+14	1.756063E-17	NaN
13	1.000000	0.026479	7.36517e+06	-39289.1	955.818	-29795.1	0.000000	0.000000	6.026793	-0.024866	NaN	0.000000	0.001571	0.001673	28.0803	0.035617	0.001832	19.4373	26.7639	-164.884	-0.013660	0.025180	-1.053973	-1.055273	-0.024866	19.4373	-1.053014	-1.171988E+14	2.121704E-16	NaN
13	1.000000	0.034446	7.36517e+06	-39289.1	955.819	-29795.1	0.000000	0.000000	6.034761	0.015098	NaN	0.000000	0.001592	0.001677	28.0804	0.092185	0.002048	45.0166	150.811	-164.252	-0.032946	0.033165	-1.046006	-1.047287	0.015098	45.0166	-1.046258	-9.508406E+13	-1.587906E-16	NaN
13	1.000000	0.042456	7.36517e+06	-39289.1	955.818	-29795.1	0.000000	0.000000	6.042770	-0.028838	NaN	0.000000	0.001573	0.001676	28.0819	0.136013	0.001950	69.7672	131.095	-166.227	-0.022826	0.041140	-1.037996	-1.039312	-0.028838	69.7672	-1.037686	-7.292116E+13	3.954662E-16	NaN
13	1.000000	0.050460	7.36517e+06	-39289.1	955.818	-29795.1	0.000000	0.000000	6.050774	-0.013161	NaN	0.000000	0.001560	0.001663	28.0814	0.062637	0.001921	32.613	37.0721	-163.99	-0.054978	0.049128	-1.029993	-1.031325	-0.013161	32.613	-1.029690	-5.692629E+13	2.311881E-16	NaN
13	1.000000	0.058456	7.36517e+06	-39289.1	955.817	-29795.1	0.000000	0.000000	6.058770	0.004778	NaN	0.000000	0.001650	0.001690	28.0821	0.073438	0.002024	36.2827	91.6252	-162.002	0.019626	0.057081	-1.021997	-1.023372	0.004778	36.2827	-1.022096	-4.499327E+13	-1.062010E-16	NaN
13	1.000000	0.066477	7.36517e+06	-39289.1	955.819	-29795.1	0.000000	0.000000	6.066791	-0.002945	NaN	0.000000	0.001646	0.001661	28.0803	0.006064	0.002122	2.857721	-130.351	-162.206	-0.020256	0.065164	-1.013976	-1.015288	-0.002945	2.857721	-1.013203	-3.415780E+13	8.621458E-17	NaN
13	1.000000	0.074439	7.36517e+06	-39289.1	955.817	-29795.1	0.000000	0.000000	6.074752	-0.044281	NaN	0.000000	0.001662	0.001691	28.08	0.069941	0.001985	35.2313	12.683	-164.461	0.041754	0.073195	-1.006014	-1.007257	-0.044281	35.2313	-1.005071	-2.654833E+13	1.667950E-15	NaN
13	1.000000	0.082440	7.36517e+06	-39289.1	955.818	-29795.1	0.000000	0.000000	6.082755	0.026412	NaN	0.000000	0.001656	0.001692	28.0814	0.044045	0.002003	21.987	135.055	-164.421	-0.021364	0.081109	-0.998013	-0.999344	0.026412	21.987	-0.998914	-2.193534E+13	-1.204096E-15	NaN
13	1.000000	0.090487	7.36517e+06	-39289.1	955.819	-29795.1	0.000000	0.000000	6.090801	-0.002232	NaN	0.000000	0.001633	0.001668	28.0805	0.192287	0.002136	90.0187	83.7551	-162.918	0.006689	0.089132	-0.989966	-0.991320	-0.002232	90.0187	-0.989947	-1.661120E+13	1.343474E-16	NaN
13	1.000000	0.098465	7.36517e+06	-39289.1	955.819	-29795.1	0.000000	0.000000	6.098781	0.029571	NaN	0.000000	0.001583	0.001669	28.0792	0.028506	0.002076	13.7282	-97.9291	-162.739	0.056345	0.097149	-0.981987	-0.983303	0.029571	13.7282	-0.983603	-1.364418E+13	-2.167322E-15	NaN
13	1.000000	0.106429	7.36517e+06	-39289.1	955.818	-29795.1	0.000000	0.000000	6.106742	-0.044815	NaN	0.000000	0.001657	0.001675	28.0823	0.027659	0.001943	14.2375	-130.288	-165.114	-0.030064	0.105143	-0.974023	-0.975309	-0.044815	14.2375	-0.971662	-9.420351E+12	4.757272E-15	NaN
13	1.000000	0.114451	7.36517e+06	-39289.1	955.818	-29795.1	0.000000	0.000000	6.114763	-0.051003	NaN	0.000000	0.001576	0.001690	28.0808	0.021586	0.002047	10.5449	159.309	-164.123	-0.000477	0.113163	-0.966002	-0.967290	-0.051003	10.5449	-0.962374	-7.061104E+12	7.223160E-15	NaN
13	1.000000	0.122473	7.36517e+06	-39289.1	955.818	-29795.1	0.000000	0.000000	6.122787	-0.008327	NaN	0.000000	0.001637	0.001688	28.0812	0.063405	0.001906	33.2733	82.3469	-166.416	0.003304	0.121192	-0.957979	-0.959260	-0.008327	33.2733	-0.957792	-6.124837E+12	1.359592E-15	NaN
13	1.000000	0.130471	7.36517e+06	-39289.1	955.819	-29795.1	0.000000	0.000000	6.130784	-0.040519	NaN	0.000000	0.001642	0.001693	28.0814	0.056640	0.001933	29.3014	121.104	-166.007	-0.003252	0.129171	-0.949981	-0.951281	-0.040519	29.3014	-0.948944	-4.653613E+12	8.706948E-15	NaN
13	1.000000	0.138484	7.36517e+06	-39289.1	955.818	-29795.1	0.000000	0.000000	6.138797	-0.047281	NaN	0.000000	0.001622	0.001673	28.0808	0.081666	0.001930	42.3124	-16.2172	-165.649	-0.033346	0.137171	-0.941969	-0.943281	-0.047281	42.3124	-0.941130	-3.650804E+12	1.295097E-14	NaN
13	1.000000	0.146474	7.36517e+06	-39289.1	955.817	-29795.1	0.000000	0.000000	6.146790	0.021424	NaN	0.000000	0.001653	0.001709	28.0804	0.066021	0.001910	34.5578	-48.9822	-164.005	-0.059767	0.145195	-0.933978	-0.935257	0.021424	34.5578	-0.934443	-2.965898E+12	-7.223429E-15	NaN
13	1.000000	0.154494	7.36517e+06	-39289.1	955.818	-29795.1	0.000000	0.000000	6.154809	0.009420	NaN	0.000000	0.001667	0.001692	28.0818	0.121525	0.002023	60.0679	24.8552	-163.241	0.062137	0.153240	-0.925958	-0.927213	0.009420	60.0679	-0.926076	-2.286832E+12	-4.119358E-15	NaN
13	1.000000	0.162463	7.36517e+06	-39289.1	955.818	-29795.1	0.000000	0.000000	6.162778	-0.001063	NaN	0.000000	0.001674	0.001754	28.0807	0.102588	0.001995	51.4199	-50.4928	-164.809	0.042690	0.161110	-0.917989	-0.919342	-0.001063	51.4199	-0.917974	-1.777647E+12	5.981042E-16	NaN
13	1.000000	0.170511	7.36517e+06	-39289.1	955.818	-29795.1	0.000000	0.000000	6.170827	0.016658	NaN	0.000000	0.001670	0.001711	28.0794	0.024488	0.001894	12.9303	-165.878	-165.558	-0.067984	0.169215	-0.909941	-0.911237	0.016658	12.9303	-0.910907	-1.426973E+12	-1.167399E-14	NaN
13	1.000000	0.178524	7.36517e+06	-39289.1	955.819	-29795.1	0.000000	0.000000	6.178839	0.020573	NaN	0.000000	0.001633	0.001724	28.0809	0.038435	0.002062	18.6386	-20.9628	-159.811	0.027676	0.177183	-0.901929	-0.903269	0.020573	18.6386	-0.902756	-1.107411E+12	-1.857724E-14	NaN
13	1.000000	0.186473	7.36517e+06	-39289.1	955.819	-29795.1	0.000000	0.000000	6.186790	0.059467	NaN	0.000000	0.001669	0.001728	28.0789	0.074829	0.002119	35.3138	17.2482	-165.716	0.060351	0.185214	-0.893979	-0.895239	0.059467	35.3138	-0.895242	-8.765369E+11	-6.784271E-14	NaN
13	1.000000	0.194509	7.36517e+06	-39289.1	955.819	-29795.1	0.000000	0.000000	6.194824	0.010618	NaN	0.000000	0.001680	0.001715	28.0796	0.111375	0.001921	57.966	103.166	-168.414	-0.052915	0.193221	-0.885943	-0.887231	0.010618	57.966	-0.886081	-6.590690E+11	-1.611049E-14	NaN
13	1.000000	0.202509	7.36517e+06	-39289.1	955.818	-29795.1	0.000000	0.000000	6.202823	-0.002020	NaN	0.000000	0.001691	0.001716	28.0802	0.113868	0.002023	56.2823	15.9502	-165.985	0.031397	0.201187	-0.877944	-0.879265	-0.002020	56.2823	-0.877917	-5.111342E+11	3.951092E-15	NaN
13	1.000000	0.210519	7.36517e+06	-39289.1	955.819	-29795.1	0.000000	0.000000	6.210836	0.054249	NaN	0.000000	0.001669	0.001695	28.0799	0.073721	0.002154	34.2297	-140.187	-163.472	-0.014181	0.209257	-0.869934	-0.871196	0.054249	34.2297	-0.871122	-4.136466E+11	-1.311482E-13	NaN
13	1.000000	0.218523	7.36517e+06	-39289.1	955.818	-29795.1	0.000000	0.000000	6.218839	0.029978	NaN	0.000000	0.001667	0.001722	28.0784	0.135800	0.001886	71.9912	-101.824	-161.327	-0.020386	0.217162	-0.861929	-0.863291	0.029978	71.9912	-0.862241	-3.136572E+11	-9.557627E-14	NaN
13	1.000000	0.226506	7.36517e+06	-39289.1	955.818	-29795.1	0.000000	0.000000	6.226820	-0.014389	NaN	0.000000	0.001665	0.001714	28.079	0.029533	0.002031	14.5379	21.8512	-167.237	0.013325	0.225197	-0.853947	-0.855256	-0.014389	14.5379	-0.853205	-2.366623E+11	6.079766E-14	NaN
13	1.000000	0.234484	7.36517e+06	-39289.1	955.818	-29795.1	0.000000	0.000000	6.234801	0.042110	NaN	0.000000	0.001647	0.001714	28.0784	0.041027	0.001998	20.5305	113.758	-164.657	0.127070	0.233233	-0.845968	-0.847220	0.042110	20.5305	-0.847507	-1.981401E+11	-2.125268E-13	NaN
13	1.000000	0.242522	7.36517e+06	-39289.1	955.817	-29795.1	0.000000	0.000000	6.242839	0.042252	NaN	0.000000	0.001688	0.001686	28.079	0.044882	0.002106	21.3147	-178.769	-164.584	0.035210	0.241227	-0.837930	-0.839225	0.042252	21.3147	-0.839417	-1.539552E+11	-2.744445E-13	NaN
13	1.000000	0.250525	7.36517e+06	-39289.1	955.818	-29795.1	0.000000	0.000000	6.250840	0.008201	NaN	0.000000	0.001648	0.001717	28.0792	0.031048	0.002040	15.2194	-89.5883	-163.848	-0.070145	0.249207	-0.829928	-0.831246	0.008201	15.2194	-0.830332	-1.159535E+11	-7.072282E-14	NaN
13	1.000000	0.258546	7.36517e+06	-39289.1	955.818	-29795.1	0.000000	0.000000	6.258861	0.003514	NaN	0.000000	0.001632	0.001728	28.0789	0.012882	0.002048	6.291067	-75.7427	-164.002	0.002255	0.257184	-0.821907	-0.823268	0.003514	6.291067	-0.822326	-9.031214E+10	-3.891225E-14	NaN
13	1.000000	0.266549	7.36517e+06	-39289.1	955.818	-29795.1	0.000000	0.000000	6.266862	-0.033905	NaN	0.000000	0.001653	0.001728	28.0804	0.062924	0.001992	31.5876	-55.3854	-168.77	-0.034705	0.265253	-0.813904	-0.815200	-0.033905	31.5876	-0.813099	-6.770327E+10	5.007899E-13	NaN
13	1.000000	0.274540	7.36517e+06	-39289.1	955.818	-29795.1	0.000000	0.000000	6.274855	0.002876	NaN	0.000000	0.001636	0.001699	28.0799	0.059099	0.001969	30.0108	173.45	-164.203	-0.041058	0.273181	-0.805912	-0.807271	0.002876	30.0108	-0.805984	-5.420987E+10	-5.304912E-14	NaN
13	1.000000	0.282542	7.36517e+06	-39289.1	955.819	-29795.1	0.000000	0.000000	6.282857	0.001726	NaN	0.000000	0.001585	0.001725	28.0807	0.100691	0.002058	48.934	-63.5561	-166.276	-0.005185	0.281207	-0.797910	-0.799246	0.001726	48.934	-0.797937	-4.215543E+10	-4.093242E-14	NaN
13	1.000000	0.290520	7.36517e+06	-39289.1	955.819	-29795.1	0.000000	0.000000	6.290832	-0.050413	NaN	0.000000	0.001614	0.001733	28.0794	0.112925	0.001933	58.4292	-45.5115	-161.467	0.010723	0.289264	-0.789933	-0.791188	-0.050413	58.4292	-0.789285	-3.216465E+10	1.567331E-12	NaN
13	1.000000	0.298547	7.36517e+06	-39289.1	955.817	-29795.1	0.000000	0.000000	6.298862	0.001874	NaN	0.000000	0.001634	0.001693	28.0791	0.039607	0.002068	19.1523	-121.873	-167.936	0.011967	0.297226	-0.781906	-0.783226	0.001874	19.1523	-0.781979	-2.559311E+10	-7.320621E-14	NaN
13	1.000000	0.306533	7.36517e+06	-39289.1	955.817	-29795.1	0.000000	0.000000	6.306849	0.029097	NaN	0.000000	0.001643	0.001730	28.0794	0.028645	0.001974	14.5129	159.878	-163.658	-0.015196	0.305245	-0.773919	-0.775207	0.029097	14.5129	-0.775423	-2.084626E+10	-1.395769E-12	NaN
13	1.000000	0.314600	7.36517e+06	-39289.1	955.818	-29795.1	0.000000	0.000000	6.314916	0.011542	NaN	0.000000	0.001587	0.001690	28.0789	0.004433	0.001977	2.242262	-174.529	-163.257	0.034622	0.313210	-0.765852	-0.767242	0.011542	2.242262	-0.769713	-1.743404E+10	-6.620486E-13	NaN
13	1.000000	0.322574	7.36517e+06	-39289.1	955.818	-29795.1	0.000000	0.000000	6.322890	0.037112	NaN	0.000000	0.001568	0.001694	28.0792	0.069401	0.002058	33.7301	-110.057	-160.66	0.032196	0.321212	-0.757879	-0.759240	0.037112	33.7301	-0.758704	-1.235007E+10	-3.004963E-12	NaN
13	1.000000	0.330536	7.36517e+06	-39289.1	955.818	-29795.1	0.000000	0.000000	6.330850	-0.019963	NaN	0.000000	0.001556	0.001679	28.0815	0.126101	0.002070	60.904	6.554677	-164.614	0.056873	0.329272	-0.749916	-0.751181	-0.019963	60.904	-0.749670	-9.305362E+9	2.145347E-12	NaN
13	1.000000	0.338586	7.36517e+06	-39289.1	955.818	-29795.1	0.000000	0.000000	6.338904	0.080709	NaN	0.000000	0.001575	0.001679	28.0806	0.127211	0.001970	64.5851	47.7137	-163.764	0.001718	0.337260	-0.741866	-0.743192	0.080709	64.5851	-0.742804	-7.503058E+9	-1.075682E-11	NaN
13	1.000000	0.346584	7.36517e+06	-39289.1	955.817	-29795.1	0.000000	0.000000	6.346897	-0.030692	NaN	0.000000	0.001516	0.001708	28.0814	0.064143	0.001995	32.1532	119.178	-163.231	-0.079927	0.345261	-0.733868	-0.735191	-0.030692	32.1532	-0.733152	-5.543310E+9	5.536850E-12	NaN
13	1.000000	0.354567	7.36517e+06	-39289.1	955.818	-29795.1	0.000000	0.000000	6.354878	-0.080617	NaN	0.000000	0.001590	0.001668	28.0807	0.012820	0.001842	6.958368	-166.388	-164.768	-0.126451	0.353255	-0.725886	-0.727197	-0.080617	6.958368	-0.717197	-3.359217E+9	2.399878E-11	NaN
13	1.000000	0.362616	7.36517e+06	-39289.1	955.818	-29795.1	0.000000	0.000000	6.362928	-0.066033	NaN	0.000000	0.001542	0.001669	28.0817	0.074250	0.002058	36.0811	113.949	-168.92	-0.012033	0.361266	-0.717836	-0.719186	-0.066033	36.0811	-0.716464	-3.282747E+9	2.011524E-11	NaN
13	1.000000	0.370606	7.36517e+06	-39289.1	955.818	-29795.1	0.000000	0.000000	6.370923	0.051374	NaN	0.000000	0.001605	0.001691	28.081	0.093667	0.001919	48.8103	38.878	-164.278	0.008190	0.369243	-0.709846	-0.711210	0.051374	48.8103	-0.710636	-2.733545E+9	-1.879375E-11	NaN
13	1.000000	0.378607	7.36517e+06	-39289.1	955.818	-29795.1	0.000000	0.000000	6.378922	-0.007843	NaN	0.000000	0.001556	0.001692	28.0814	0.038383	0.002000	19.1921	8.721102	-166.523	0.011412	0.377301	-0.701845	-0.703151	-0.007843	19.1921	-0.701538	-2.053715E+9	3.818831E-12	NaN
13	1.000000	0.386567	7.36517e+06	-39289.1	955.819	-29795.1	0.000000	0.000000	6.386882	0.008969	NaN	0.000000	0.001607	0.001666	28.0813	0.020088	0.002026	9.914739	-19.2594	-165.404	0.085213	0.385294	-0.693886	-0.695159	0.008969	9.914739	-0.694564	-1.649231E+9	-5.438187E-12	NaN
13	1.000000	0.394590	7.36517e+06	-39289.1	955.819	-29795.1	0.000000	0.000000	6.394906	0.046253	NaN	0.000000	0.001582	0.001680	28.0807	0.049661	0.001993	24.9189	128.995	-159.884	0.125641	0.393245	-0.685863	-0.687208	0.046253	24.9189	-0.687255	-1.310376E+9	-3.529730E-11	NaN
13	1.000000	0.402607	7.36517e+06	-39289.1	955.818	-29795.1	0.000000	0.000000	6.402925	0.078636	NaN	0.000000	0.001621	0.001669	28.0786	0.025744	0.002135	12.0562	141.5	-165.236	0.108389	0.401316	-0.677845	-0.679137	0.078636	12.0562	-0.682737	-1.136664E+9	-6.918157E-11	NaN
13	1.000000	0.410573	7.36517e+06	-39289.1	955.818	-29795.1	0.000000	0.000000	6.410887	-0.020483	NaN	0.000000	0.001620	0.001697	28.0799	0.101859	0.002064	49.3469	-79.5262	-164.075	-0.040175	0.409346	-0.669879	-0.671106	-0.020483	49.3469	-0.669568	-7.507187E+8	2.728445E-11	NaN
13	1.000000	0.418576	7.36517e+06	-39289.1	955.818	-29795.1	0.000000	0.000000	6.418891	0.014565	NaN	0.000000	0.001554	0.001696	28.0803	0.063106	0.001975	31.9503	49.3658	-164.676	0.002139	0.417317	-0.661876	-0.663135	0.014565	31.9503	-0.662218	-5.954576E+8	-2.445935E-11	NaN
13	1.000000	0.426611	7.36517e+06	-39289.1	955.818	-29795.1	0.000000	0.000000	6.426927	0.050357	NaN	0.000000	0.001558	0.001738	28.0806	0.062855	0.002075	30.2883	-145.034	-163.128	0.058913	0.425289	-0.653842	-0.655164	0.050357	30.2883	-0.655089	-4.755361E+8	-1.058945E-10	NaN
13	1.000000	0.434597	7.36517e+06	-39289.1	955.818	-29795.1	0.000000	0.000000	6.434909	-0.055820	NaN	0.000000	0.001602	0.001695	28.0824	0.091770	0.002065	44.4391	109.678	-163.116	-0.013608	0.433337	-0.645856	-0.647115	-0.055820	44.4391	-0.644913	-3.448986E+8	1.618455E-10	NaN
13	1.000000	0.442609	7.36517e+06	-39289.1	955.818	-29795.1	0.000000	0.000000	6.442926	0.036628	NaN	0.000000	0.001595	0.001714	28.0819	0.044542	0.001986	22.4252	154.812	-167.19	0.024879	0.441282	-0.637843	-0.639170	0.036628	22.4252	-0.639068	-2.867489E+8	-1.277341E-10	NaN
13	1.000000	0.450608	7.36517e+06	-39289.1	955.818	-29795.1	0.000000	0.000000	6.450923	0.022813	NaN	0.000000	0.001593	0.001699	28.0808	0.110252	0.001942	56.7825	153.604	-164.934	0.087173	0.449327	-0.629845	-0.631125	0.022813	56.7825	-0.630146	-2.162855E+8	-1.054764E-10	NaN
13	1.000000	0.458595	7.36517e+06	-39289.1	955.818	-29795.1	0.000000	0.000000	6.458909	-0.011593	NaN	0.000000	0.001599	0.001703	28.0799	0.024867	0.001981	12.5537	-178.639	-166.044	-0.009251	0.457328	-0.621858	-0.623124	-0.011593	12.5537	-0.621165	-1.627976E+8	7.121128E-11	NaN
13	1.000000	0.466619	7.36517e+06	-39289.1	955.818	-29795.1	0.000000	0.000000	6.466936	0.038539	NaN	0.000000	0.001576	0.001714	28.0797	0.085708	0.002084	41.1328	-138.344	-164.68	-0.022509	0.465333	-0.613833	-0.615120	0.038539	41.1328	-0.614536	-1.319793E+8	-2.920045E-10	NaN
13	1.000000	0.474615	7.36517e+06	-39289.1	955.818	-29795.1	0.000000	0.000000	6.474931	0.013733	NaN	0.000000	0.001557	0.001652	28.0796	0.126593	0.001985	63.7748	-161.955	-166.322	0.055859	0.473371	-0.605837	-0.607082	0.013733	63.7748	-0.605999	-1.007047E+8	-1.363664E-10	NaN
13	1.000000	0.482630	7.36517e+06	-39289.1	955.819	-29795.1	0.000000	0.000000	6.482944	-0.035550	NaN	0.000000	0.001547	0.001703	28.0792	0.145422	0.001996	72.8628	-173.928	-168.12	0.022899	0.481274	-0.597822	-0.599179	-0.035550	72.8628	-0.597456	-7.681052E+7	4.628325E-10	NaN
13	1.000000	0.490636	7.36517e+06	-39289.1	955.818	-29795.1	0.000000	0.000000	6.490949	-0.045155	NaN	0.000000	0.001511	0.001684	28.0799	0.079517	0.002006	39.6329	-113.056	-166.401	0.028628	0.489318	-0.589817	-0.591134	-0.045155	39.6329	-0.588962	-5.866199E+7	7.697458E-10	NaN
13	1.000000	0.498625	7.36517e+06	-39289.1	955.818	-29795.1	0.000000	0.000000	6.498939	-0.007306	NaN	0.000000	0.001561	0.001690	28.0789	0.079610	0.002058	38.682	-161.234	-167.942	-0.048490	0.497270	-0.581827	-0.583182	-0.007306	38.682	-0.581686	-4.655740E+7	1.569168E-10	NaN
13	1.000000	0.506648	7.36517e+06	-39289.1	955.818	-29795.1	0.000000	0.000000	6.506961	-0.020139	NaN	0.000000	0.001566	0.001705	28.0806	0.120980	0.002038	59.3579	36.6972	-166.023	0.071242	0.505341	-0.573805	-0.575111	-0.020139	59.3579	-0.573550	-3.594835E+7	5.602337E-10	NaN
13	1.000000	0.514646	7.36517e+06	-39289.1	955.818	-29795.1	0.000000	0.000000	6.514964	0.070065	NaN	0.000000	0.001591	0.001697	28.0803	0.104023	0.001881	55.3029	42.9131	-167.617	-0.023596	0.513322	-0.565806	-0.567131	0.070065	55.3029	-0.566757	-2.896069E+7	-2.419303E-9	NaN
13	1.000000	0.522616	7.36517e+06	-39289.1	955.818	-29795.1	0.000000	0.000000	6.522931	-0.006305	NaN	0.000000	0.001594	0.001693	28.0807	0.077966	0.002001	38.9638	-26.7163	-164.068	-0.076606	0.521326	-0.557836	-0.559126	-0.006305	38.9638	-0.557715	-2.171496E+7	2.903572E-10	NaN
13	1.000000	0.530642	7.36517e+06	-39289.1	955.818	-29795.1	0.000000	0.000000	6.530960	0.090528	NaN	0.000000	0.001634	0.001729	28.0805	0.115641	0.002001	57.7887	-1.931514	-164.914	-0.008468	0.529346	-0.549810	-0.551106	0.090528	57.7887	-0.550985	-1.752273E+7	-5.166329E-9	NaN
13	1.000000	0.538640	7.36517e+06	-39289.1	955.819	-29795.1	0.000000	0.000000	6.538952	-0.075847	NaN	0.000000	0.001617	0.001716	28.0794	0.173749	0.002112	82.2498	-9.455023	-168.925	-0.056665	0.537391	-0.541812	-0.543061	-0.075847	82.2498	-0.541120	-1.279074E+7	5.929803E-9	NaN
13	1.000000	0.546629	7.36517e+06	-39289.1	955.818	-29795.1	0.000000	0.000000	6.546947	0.068989	NaN	0.000000	0.001598	0.001699	28.0792	0.072458	0.001971	36.7553	-87.8165	-165.094	0.034881	0.545323	-0.533823	-0.535130	0.068989	36.7553	-0.535231	-1.059723E+7	-6.510068E-9	NaN
13	1.000000	0.554648	7.36517e+06	-39289.1	955.819	-29795.1	0.000000	0.000000	6.554967	0.103499	NaN	0.000000	0.001597	0.001738	28.0788	0.017501	0.001943	9.007109	51.1981	-160.711	0.074748	0.553375	-0.525804	-0.527078	0.103499	9.007109	-0.534422	-1.032698E+7	-1.002222E-8	NaN
13	1.000000	0.562677	7.36517e+06	-39289.1	955.818	-29795.1	0.000000	0.000000	6.562991	-0.013537	NaN	0.000000	0.001613	0.001704	28.0791	0.093839	0.002013	46.6182	114.117	-164.365	0.016302	0.561358	-0.517776	-0.519095	-0.013537	46.6182	-0.517558	-6.02042e+06	2.248573E-9	NaN
13	1.000000	0.570686	7.36517e+06	-39289.1	955.819	-29795.1	0.000000	0.000000	6.571001	0.023273	NaN	0.000000	0.001591	0.001715	28.0788	0.038978	0.001978	19.7011	66.9133	-165.196	-0.010058	0.569322	-0.509767	-0.511130	0.023273	19.7011	-0.510653	-4.8251e+06	-4.823372E-9	NaN
13	1.000000	0.578667	7.36517e+06	-39289.1	955.819	-29795.1	0.000000	0.000000	6.578984	0.060364	NaN	0.000000	0.001606	0.001726	28.0798	0.091543	0.001933	47.3533	-175.066	-168.01	-0.033216	0.577353	-0.501785	-0.503099	0.060364	47.3533	-0.502741	-3.74329e+06	-1.612591E-8	NaN
13	1.000000	0.586654	7.36517e+06	-39289.1	955.818	-29795.1	0.000000	0.000000	6.586970	0.037448	NaN	0.000000	0.001587	0.001662	28.0802	0.054679	0.002061	26.5353	-147.888	-163.064	-0.112082	0.585392	-0.493799	-0.495061	0.037448	26.5353	-0.494857	-2.90563e+06	-1.288817E-8	NaN
13	1.000000	0.594668	7.36517e+06	-39289.1	955.817	-29795.1	0.000000	0.000000	6.594982	-0.021589	NaN	0.000000	0.001596	0.001726	28.0816	0.045171	0.001945	23.2234	-20.881	-164.178	-0.034343	0.593354	-0.485784	-0.487098	-0.021589	23.2234	-0.485087	-2.12181e+06	1.017473E-8	NaN
13	1.000000	0.602661	7.36517e+06	-39289.1	955.819	-29795.1	0.000000	0.000000	6.602973	-0.060787	NaN	0.000000	0.001629	0.001708	28.0816	0.038689	0.002030	19.0605	-80.1209	-167.309	0.024546	0.601426	-0.477792	-0.479027	-0.060787	19.0605	-0.475400	-1.55275e+06	3.914823E-8	NaN
13	1.000000	0.610675	7.36517e+06	-39289.1	955.818	-29795.1	0.000000	0.000000	6.610992	0.043708	NaN	0.000000	0.001624	0.001737	28.0806	0.043217	0.002032	21.2693	-173.202	-161.424	0.091654	0.609383	-0.469777	-0.471070	0.043708	21.2693	-0.471318	-1.36111e+06	-3.211220E-8	NaN
13	1.000000	0.618699	7.36517e+06	-39289.1	955.819	-29795.1	0.000000	0.000000	6.619016	0.061149	NaN	0.000000	0.001594	0.001719	28.0822	0.045962	0.002030	22.6372	-8.574264	-164.743	0.084492	0.617423	-0.461754	-0.463029	0.061149	22.6372	-0.463780	-1.06687e+06	-5.731651E-8	NaN
13	1.000000	0.626680	7.36517e+06	-39289.1	955.818	-29795.1	0.000000	0.000000	6.626995	0.000819	NaN	0.000000	0.001633	0.001742	28.0799	0.008890	0.001976	4.499882	69.0247	-166.408	0.008183	0.625391	-0.453772	-0.455061	0.000819	4.499882	-0.453909	-775107	-1.056428E-9	NaN
13	1.000000	0.634673	7.36517e+06	-39289.1	955.819	-29795.1	0.000000	0.000000	6.634986	-0.038589	NaN	0.000000	0.001626	0.001696	28.0807	0.019973	0.002058	9.704177	-137.307	-164.521	-0.069076	0.633390	-0.445780	-0.447063	-0.038589	9.704177	-0.442797	-540544	7.138961E-8	NaN
13	1.000000	0.642706	7.36517e+06	-39289.1	955.818	-29795.1	0.000000	0.000000	6.643020	-0.012146	NaN	0.000000	0.001625	0.001695	28.0805	0.055465	0.002100	26.4142	149.185	-162.375	0.029490	0.641347	-0.437747	-0.439105	-0.012146	26.4142	-0.437402	-453608	2.677711E-8	NaN
13	1.000000	0.650691	7.36517e+06	-39289.1	955.818	-29795.1	0.000000	0.000000	6.651004	-0.032741	NaN	0.000000	0.001647	0.001726	28.0798	0.038204	0.002033	18.7893	-65.6144	-165.334	0.035725	0.649425	-0.429761	-0.431028	-0.032741	18.7893	-0.428455	-338995	9.658278E-8	NaN
13	1.000000	0.658694	7.36517e+06	-39289.1	955.818	-29795.1	0.000000	0.000000	6.659009	0.021438	NaN	0.000000	0.001613	0.001706	28.08	0.054937	0.001963	27.9805	112.369	-165.553	-0.027773	0.657377	-0.421759	-0.423075	0.021438	27.9805	-0.422333	-277650	-7.721106E-8	NaN
13	1.000000	0.666721	7.36517e+06	-39289.1	955.818	-29795.1	0.000000	0.000000	6.667035	-0.007903	NaN	0.000000	0.001622	0.001709	28.0819	0.108578	0.002102	51.6509	-104.174	-167.548	-0.006874	0.665404	-0.413731	-0.415048	-0.007903	51.6509	-0.413617	-208837	3.784234E-8	NaN
13	1.000000	0.674709	7.36517e+06	-39289.1	955.819	-29795.1	0.000000	0.000000	6.675025	0.038718	NaN	0.000000	0.001608	0.001693	28.081	0.060005	0.002041	29.3955	55.3889	-164.702	0.023902	0.673450	-0.405744	-0.407002	0.038718	29.3955	-0.406732	-166687	-2.322790E-7	NaN
13	1.000000	0.682718	7.36517e+06	-39289.1	955.818	-29795.1	0.000000	0.000000	6.683032	-0.021565	NaN	0.000000	0.001618	0.001683	28.0816	0.018519	0.002017	9.183198	113.437	-164.385	0.010074	0.681451	-0.397734	-0.399001	-0.021565	9.183198	-0.395973	-117093	1.841709E-7	NaN
13	1.000000	0.690686	7.36517e+06	-39289.1	955.819	-29795.1	0.000000	0.000000	6.691001	0.004201	NaN	0.000000	0.001584	0.001709	28.081	0.077344	0.002055	37.6422	160.125	-163.861	0.019223	0.689386	-0.389766	-0.391066	0.004201	37.6422	-0.389850	-95723	-4.388581E-8	NaN
13	1.000000	0.698708	7.36517e+06	-39289.1	955.817	-29795.1	0.000000	0.000000	6.699024	0.033158	NaN	0.000000	0.001581	0.001687	28.0809	0.088162	0.002010	43.8702	-71.6363	-163.992	0.088872	0.697451	-0.381744	-0.383001	0.033158	43.8702	-0.382311	-74652	-4.441697E-7	NaN
13	1.000000	0.706726	7.36517e+06	-39289.1	955.819	-29795.1	0.000000	0.000000	6.707043	0.061111	NaN	0.000000	0.001580	0.001697	28.0801	0.014757	0.002053	7.189673	58.1601	-164.185	-0.035029	0.705361	-0.373727	-0.375091	0.061111	7.189673	-0.380102	-69398.2	-8.805812E-7	NaN
13	1.000000	0.714737	7.36517e+06	-39289.1	955.818	-29795.1	0.000000	0.000000	6.715052	0.019041	NaN	0.000000	0.001600	0.001704	28.0798	0.146529	0.002027	72.3034	-96.1642	-163.676	-0.001446	0.713420	-0.365716	-0.367033	0.019041	72.3034	-0.365913	-43373.8	-4.390026E-7	NaN
13	1.000000	0.722735	7.36517e+06	-39289.1	955.818	-29795.1	0.000000	0.000000	6.723050	0.009202	NaN	0.000000	0.001576	0.001685	28.0806	0.009856	0.001910	5.161250	129.523	-165.944	-0.037164	0.721472	-0.357718	-0.358980	0.009202	5.161250	-0.359055	-34528.6	-2.665061E-7	NaN
13	1.000000	0.730738	7.36517e+06	-39289.1	955.818	-29795.1	0.000000	0.000000	6.731048	-0.097085	NaN	0.000000	0.001590	0.001682	28.0786	0.122665	0.001996	61.4682	127.191	-165.345	-0.079116	0.729450	-0.349715	-0.351003	-0.097085	61.4682	-0.348530	-24303.3	3.994735E-6	NaN
13	1.000000	0.738732	7.36517e+06	-39289.1	955.818	-29795.1	0.000000	0.000000	6.739048	0.011816	NaN	0.000000	0.001577	0.001667	28.0782	0.078818	0.002017	39.075	-139.418	-162.112	0.034190	0.737435	-0.341720	-0.343018	0.011816	39.075	-0.341947	-19494.9	-6.060939E-7	NaN
13	1.000000	0.746744	7.36517e+06	-39289.1	955.818	-29795.1	0.000000	0.000000	6.747061	0.052806	NaN	0.000000	0.001571	0.001653	28.0796	0.175009	0.001998	87.5793	-159.641	-164.282	0.084684	0.745453	-0.333709	-0.334999	0.052806	87.5793	-0.334161	-15008.1	-3.518505E-6	NaN
13	1.000000	0.754727	7.36517e+06	-39289.1	955.818	-29795.1	0.000000	0.000000	6.755040	-0.037593	NaN	0.000000	0.001569	0.001696	28.0806	0.018421	0.002063	8.929374	-22.4311	-164.787	-0.053642	0.753424	-0.325725	-0.327028	-0.037593	8.929374	-0.322568	-10148.6	3.704263E-6	NaN
13	1.000000	0.762762	7.36517e+06	-39289.1	955.817	-29795.1	0.000000	0.000000	6.763076	-0.005418	NaN	0.000000	0.001545	0.001720	28.0804	0.028373	0.001949	14.557	-150.13	-164.298	0.011697	0.761434	-0.317691	-0.319019	-0.005418	14.557	-0.317412	-8521.46	6.358189E-7	NaN
13	1.000000	0.770731	7.36517e+06	-39289.1	955.819	-29795.1	0.000000	0.000000	6.771046	0.007985	NaN	0.000000	0.001602	0.001687	28.0796	0.039955	0.001963	20.356	-125.993	-166.425	-0.002294	0.769410	-0.309721	-0.311042	0.007985	20.356	-0.310015	-6626.44	-1.205057E-6	NaN
13	1.000000	0.778742	7.36517e+06	-39289.1	955.818	-29795.1	0.000000	0.000000	6.779053	-0.078816	NaN	0.000000	0.001583	0.001679	28.0791	0.102003	0.002101	48.5443	-40.9211	-162.241	-0.142654	0.777461	-0.301711	-0.302991	-0.078816	48.5443	-0.300493	-4786.04	1.646784E-5	NaN
13	1.000000	0.786734	7.36517e+06	-39289.1	955.818	-29795.1	0.000000	0.000000	6.787051	0.058015	NaN	0.000000	0.001588	0.001673	28.0796	0.061663	0.002022	30.4916	-52.3686	-165.81	-0.014075	0.785398	-0.293718	-0.295055	0.058015	30.4916	-0.295145	-3983.44	-1.456410E-5	NaN
13	1.000000	0.794748	7.36517e+06	-39289.1	955.819	-29795.1	0.000000	0.000000	6.795063	0.017895	NaN	0.000000	0.001557	0.001675	28.0787	0.123464	0.001909	64.6776	-104.923	-164.515	0.073377	0.793462	-0.285705	-0.286991	0.017895	64.6776	-0.285912	-2897.17	-6.176607E-6	NaN
13	1.000000	0.802771	7.36517e+06	-39289.1	955.817	-29795.1	0.000000	0.000000	6.803084	-0.050463	NaN	0.000000	0.001587	0.001698	28.0788	0.089260	0.002131	41.8783	-97.3524	-165.373	-0.018563	0.801523	-0.277682	-0.278929	-0.050463	41.8783	-0.276778	-2110.09	2.391528E-5	NaN
13	1.000000	0.810764	7.36517e+06	-39289.1	955.819	-29795.1	0.000000	0.000000	6.811077	-0.039298	NaN	0.000000	0.001533	0.001635	28.077	0.061275	0.001991	30.7753	-48.8057	-165.138	0.023180	0.809409	-0.269688	-0.271044	-0.039298	30.7753	-0.268731	-1593.08	2.466780E-5	NaN
13	1.000000	0.818766	7.36517e+06	-39289.1	955.818	-29795.1	0.000000	0.000000	6.819081	0.002811	NaN	0.000000	0.001564	0.001658	28.0788	0.043924	0.002059	21.3327	-97.5263	-163.824	0.067759	0.817450	-0.261687	-0.263002	0.002811	21.3327	-0.261786	-1248.14	-2.251958E-6	NaN
13	1.000000	0.826776	7.36517e+06	-39289.1	955.819	-29795.1	0.000000	0.000000	6.827089	-0.032619	NaN	0.000000	0.001565	0.001683	28.0804	0.112052	0.002051	54.635	179.852	-163.211	-0.014139	0.825463	-0.253676	-0.254989	-0.032619	54.635	-0.253229	-922.199	3.537104E-5	NaN
13	1.000000	0.834766	7.36517e+06	-39289.1	955.818	-29795.1	0.000000	0.000000	6.835080	-0.016602	NaN	0.000000	0.001579	0.001639	28.0802	0.079477	0.001854	42.8648	-27.6845	-164.315	-0.054586	0.833502	-0.245687	-0.246950	-0.016602	42.8648	-0.245396	-697.605	2.379876E-5	NaN
13	1.000000	0.842755	7.36517e+06	-39289.1	955.818	-29795.1	0.000000	0.000000	6.843071	0.015268	NaN	0.000000	0.001578	0.001679	28.0788	0.105190	0.001874	56.1459	-159.899	-163.944	0.028366	0.841497	-0.237697	-0.238956	0.015268	56.1459	-0.237901	-533.006	-2.864528E-5	NaN
13	1.000000	0.850808	7.36517e+06	-39289.1	955.818	-29795.1	0.000000	0.000000	6.851124	0.028187	NaN	0.000000	0.001580	0.001685	28.0795	0.073955	0.001893	39.06	-27.5246	-167.319	0.007965	0.849472	-0.229644	-0.230980	0.028187	39.06	-0.230186	-403.133	-6.992029E-5	NaN
13	1.000000	0.858791	7.36517e+06	-39289.1	955.819	-29795.1	0.000000	0.000000	6.859106	0.008081	NaN	0.000000	0.001589	0.001675	28.0794	0.096947	0.001917	50.5769	-121.869	-165.341	0.061813	0.857404	-0.221662	-0.223049	0.008081	50.5769	-0.221782	-296.564	-2.724737E-5	NaN
13	1.000000	0.866791	7.36517e+06	-39289.1	955.818	-29795.1	0.000000	0.000000	6.867109	0.073458	NaN	0.000000	0.001596	0.001677	28.0799	0.024297	0.002010	12.0874	132.219	-169.754	0.078147	0.865485	-0.213661	-0.214967	0.073458	12.0874	-0.218219	-260.129	-0.000282	NaN
13	1.000000	0.874773	7.36517e+06	-39289.1	955.819	-29795.1	0.000000	0.000000	6.875089	0.024038	NaN	0.000000	0.001583	0.001730	28.0805	0.069037	0.002004	34.4497	-32.1798	-165.293	0.030318	0.873497	-0.205679	-0.206955	0.024038	34.4497	-0.206203	-166.402	-0.000144	NaN
13	1.000000	0.882783	7.36517e+06	-39289.1	955.818	-29795.1	0.000000	0.000000	6.883097	-0.011948	NaN	0.000000	0.001559	0.001706	28.0782	0.091253	0.001910	47.7872	-52.9335	-165.569	-0.047012	0.881494	-0.197670	-0.198958	-0.011948	47.7872	-0.197482	-119.739	9.978235E-5	NaN
13	1.000000	0.890794	7.36517e+06	-39289.1	955.818	-29795.1	0.000000	0.000000	6.891108	-0.010329	NaN	0.000000	0.001542	0.001710	28.0804	0.096184	0.002223	43.2713	78.9194	-163.738	-0.018010	0.889444	-0.189659	-0.191008	-0.010329	43.2713	-0.189480	-88.172	0.000117	NaN
13	1.000000	0.898802	7.36517e+06	-39289.1	955.817	-29795.1	0.000000	0.000000	6.899115	-0.060126	NaN	0.000000	0.001532	0.001687	28.0796	0.053895	0.002066	26.0839	-145.109	-165.158	-0.057242	0.897492	-0.181650	-0.182961	-0.060126	26.0839	-0.179921	-60.8312	0.000988	NaN
13	1.000000	0.906787	7.36517e+06	-39289.1	955.817	-29795.1	0.000000	0.000000	6.907103	0.027709	NaN	0.000000	0.001486	0.001688	28.0819	0.017632	0.002087	8.447186	161.003	-164.386	0.100090	0.905479	-0.173665	-0.174974	0.027709	8.447186	-0.176126	-52.396	-0.000529	NaN
13	1.000000	0.914799	7.36517e+06	-39289.1	955.818	-29795.1	0.000000	0.000000	6.915112	-0.027119	NaN	0.000000	0.001597	0.001673	28.0816	0.038538	0.002022	19.0596	1.908003	-164.674	-0.022641	0.913475	-0.165654	-0.166978	-0.027119	19.0596	-0.164587	-33.0403	0.000821	NaN
13	1.000000	0.922786	7.36517e+06	-39289.1	955.818	-29795.1	0.000000	0.000000	6.923096	-0.098500	NaN	0.000000	0.001596	0.001727	28.0807	0.127259	0.001949	65.2818	38.6404	-164.719	-0.035844	0.921454	-0.157667	-0.158998	-0.098500	65.2818	-0.156535	-23.7766	0.004143	NaN
13	1.000000	0.930783	7.36517e+06	-39289.1	955.818	-29795.1	0.000000	0.000000	6.931100	0.061373	NaN	0.000000	0.001595	0.001732	28.0812	0.094658	0.001905	49.6861	-95.9187	-166.765	0.074559	0.929518	-0.149669	-0.150934	0.061373	49.6861	-0.150596	-18.5721	-0.003305	NaN
13	1.000000	0.938804	7.36517e+06	-39289.1	955.818	-29795.1	0.000000	0.000000	6.939122	0.077637	NaN	0.000000	0.001628	0.001701	28.0798	0.060299	0.002046	29.4712	62.6679	-166.494	0.049194	0.937505	-0.141648	-0.142948	0.077637	29.4712	-0.143624	-13.8249	-0.005616	NaN
13	1.000000	0.946825	7.36517e+06	-39289.1	955.818	-29795.1	0.000000	0.000000	6.947140	-0.005036	NaN	0.000000	0.001543	0.001702	28.0803	0.032780	0.002060	15.9108	-28.8921	-171.087	-0.047200	0.945539	-0.133627	-0.134913	-0.005036	15.9108	-0.133390	-8.860679	0.000568	NaN
13	1.000000	0.954814	7.36517e+06	-39289.1	955.818	-29795.1	0.000000	0.000000	6.955130	0.029064	NaN	0.000000	0.001597	0.001735	28.0801	0.085531	0.001857	46.0674	-64.8105	-165.854	0.037358	0.953524	-0.125638	-0.126928	0.029064	46.0674	-0.126111	-6.396441	-0.004544	NaN
13	1.000000	0.962826	7.36517e+06	-39289.1	955.819	-29795.1	0.000000	0.000000	6.963144	0.074345	NaN	0.000000	0.001604	0.001680	28.0808	0.089957	0.001909	47.1141	152.097	-165.021	0.088175	0.961481	-0.117626	-0.118972	0.074345	47.1141	-0.118810	-4.570912	-0.016265	NaN
13	1.000000	0.970827	7.36517e+06	-39289.1	955.818	-29795.1	0.000000	0.000000	6.971144	0.043606	NaN	0.000000	0.001582	0.001753	28.0809	0.077615	0.002012	38.571	-149.258	-168.417	0.099885	0.969572	-0.109625	-0.110880	0.043606	38.571	-0.110473	-3.074913	-0.014181	NaN
13	1.000000	0.978817	7.36517e+06	-39289.1	955.817	-29795.1	0.000000	0.000000	6.979133	0.043647	NaN	0.000000	0.001589	0.001728	28.0805	0.065286	0.002067	31.5865	-170.472	-165.219	-0.024360	0.977550	-0.101636	-0.102902	0.043647	31.5865	-0.102672	-2.092140	-0.020862	NaN
13	1.000000	0.986819	7.36517e+06	-39289.1	955.818	-29795.1	0.000000	0.000000	6.987135	0.043187	NaN	0.000000	0.001618	0.001706	28.0817	0.058114	0.001987	29.2426	-169.532	-166.457	0.015265	0.985588	-0.093633	-0.094864	0.043187	29.2426	-0.094741	-1.391587	-0.031034	NaN
13	1.000000	0.994831	7.36517e+06	-39289.1	955.818	-29795.1	0.000000	0.000000	6.995145	0.004063	NaN	0.000000	0.001598	0.001702	28.0811	0.088384	0.001936	45.6592	-143.352	-165.849	0.014657	0.993514	-0.085622	-0.086938	0.004063	45.6592	-0.085689	-0.853703	-0.004759	NaN
13	1.000000	1.002844	7.36517e+06	-39289.1	955.819	-29795.1	0.000000	0.000000	7.003163	0.104934	NaN	0.000000	0.001626	0.001792	28.0797	0.082260	0.001965	41.8619	-130.989	-163.757	0.098029	1.001515	-0.077609	-0.078937	0.104934	41.8619	-0.079489	-0.601010	-0.174596	NaN
13	1.000000	1.010854	7.36517e+06	-39289.1	955.818	-29795.1	0.000000	0.000000	7.011170	0.024363	NaN	0.000000	0.001612	0.001783	28.0805	0.054566	0.002028	26.9083	-69.4633	-163.622	-0.000585	1.009498	-0.069598	-0.070954	0.024363	26.9083	-0.070277	-0.346983	-0.070213	NaN
13	1.000000	1.018838	7.36517e+06	-39289.1	955.818	-29795.1	0.000000	0.000000	7.019153	0.013226	NaN	0.000000	0.001627	0.001790	28.079	0.061217	0.001994	30.6977	136.555	-163.646	0.014293	1.017494	-0.061615	-0.062959	0.013226	30.6977	-0.061938	-0.204518	-0.064671	NaN
13	1.000000	1.026832	7.36517e+06	-39289.1	955.818	-29795.1	0.000000	0.000000	7.027148	0.031721	NaN	0.000000	0.001609	0.001789	28.0785	0.060709	0.002081	29.1709	-158.189	-165.967	0.079256	1.025553	-0.053621	-0.054900	0.031721	29.1709	-0.054436	-0.123922	-0.255978	NaN
13	1.000000	1.034846	7.36517e+06	-39289.1	955.818	-29795.1	0.000000	0.000000	7.035159	-0.032125	NaN	0.000000	0.001602	0.001802	28.0788	0.072842	0.001942	37.5154	109.503	-162.46	-0.037467	1.033529	-0.045606	-0.046924	-0.032125	37.5154	-0.044964	-0.064106	0.501126	NaN
13	1.000000	1.042890	7.36517e+06	-39289.1	955.818	-29795.1	0.000000	0.000000	7.043204	-0.024125	NaN	0.000000	0.001625	0.001829	28.079	0.020050	0.002048	9.789049	-122.494	-167.724	-0.009723	1.041521	-0.037562	-0.038931	-0.024125	9.789049	-0.035714	-0.033618	0.717625	NaN
13	1.000000	1.050885	7.36517e+06	-39289.1	955.818	-29795.1	0.000000	0.000000	7.051201	0.018693	NaN	0.000000	0.001632	0.001816	28.0797	0.059770	0.002020	29.5883	-5.535029	-167.031	-0.001733	1.049548	-0.029567	-0.030904	0.018693	29.5883	-0.030041	-0.023074	-0.810135	NaN
13	1.000000	1.058910	7.36517e+06	-39289.1	955.817	-29795.1	0.000000	0.000000	7.059225	0.025980	NaN	0.000000	0.001618	0.001791	28.0791	0.040095	0.001974	20.3143	-176.646	-167.849	0.019829	1.057555	-0.021543	-0.022898	0.025980	20.3143	-0.022502	-0.014544	-1.786361	NaN
13	1.000000	1.066871	7.36517e+06	-39289.1	955.819	-29795.1	0.000000	0.000000	7.067185	-0.019579	NaN	0.000000	0.001629	0.001789	28.0795	0.040687	0.001831	22.2265	112.505	-164.308	0.027594	1.065556	-0.013581	-0.014897	-0.019579	22.2265	-0.012920	-0.008056	2.430160	NaN
13	1.000000	1.074874	7.36517e+06	-39289.1	955.819	-29795.1	0.000000	0.000000	7.075189	-0.013336	NaN	0.000000	0.001638	0.001803	28.0795	0.053925	0.002073	26.0131	126.31	-164.558	-0.071436	1.073538	-0.005578	-0.006914	-0.013336	26.0131	-0.005193	-0.003538	3.769657	NaN
13	1.000000	1.082858	7.36517e+06	-39289.1	955.817	-29795.1	0.000000	0.000000	7.083178	0.110363	NaN	0.000000	0.001601	0.001792	28.0804	0.315828	0.001928	163.834	18.7428	-161.963	-0.029862	1.081588	0.002406	0.001135	0.110363	163.834	0.001901	0.001475	74.8364	3897.83
13	1.000000	1.090848	7.36517e+06	-39289.1	955.818	-29795.1	0.000000	0.000000	7.091449	6.981151	NaN	0.000000	0.001633	0.001780	28.0811	6.395665	0.001751	3652.99	9.884718	-166.678	5.213119	1.089520	0.010395	0.009067	6.981151	3652.99	0.008962	0.008051	867.153	37196.9
13	2.000000	1.094375	7.36517e+06	-39289.1	955.817	-29795.1	0.000000	0.000000	7.095080	9.495277	NaN	0.000000	0.001632	0.001801	28.0801	9.518381	0.001594	5969.56	7.324141	-173.929	8.612686	1.094179	0.013923	0.013727	9.495277	5969.56	0.012730	0.012376	767.246	49026.3
13	2.000000	1.096485	7.36517e+06	-39289.1	955.817	-29795.1	0.000000	0.000000	7.097355	13.5224	NaN	0.000000	0.001623	0.001778	28.0795	11.7916	0.001756	6716.21	5.319439	-168.802	14.4504	1.096104	0.016033	0.015652	13.5224	6716.21	0.014523	0.014654	922.774	50689.5
13	2.000000	1.098338	7.36517e+06	-39289.1	955.818	-29795.1	0.000000	0.000000	7.099336	16.64	NaN	0.000000	0.001625	0.001816	28.0787	13.9853	0.001608	8697.8	3.687340	-173.179	15.607	1.098016	0.017885	0.017563	16.64	8697.8	0.016451	0.017269	963.592	60471.7
13	2.000000	1.100352	7.36517e+06	-39289.1	955.818	-29795.1	0.000000	0.000000	7.101396	17.7561	NaN	0.000000	0.001631	0.001774	28.0797	17.2213	0.001806	9536.46	9.548335	-179.802	17.0365	1.100087	0.019899	0.019634	17.7561	9536.46	0.018503	0.020244	877.106	61236.9
13	2.000000	1.102328	7.36517e+06	-39289.1	955.818	-29795.1	0.000000	0.000000	7.103758	27.1383	NaN	0.000000	0.001622	0.001808	28.0796	18.4785	0.001768	10452.8	6.919157	-176.985	26.3404	1.102043	0.021876	0.021591	27.1383	10452.8	0.019928	0.022430	1209.91	63766.5
13	2.000000	1.104272	7.36517e+06	-39289.1	955.819	-29795.1	0.000000	0.000000	7.105838	30.4522	NaN	0.000000	0.001621	0.001785	28.08	20.916	0.001835	11398	2.945972	-173.937	28.0802	1.104059	0.023820	0.023606	30.4522	11398	0.021816	0.025477	1195.29	65242.3
13	2.000000	1.106360	7.36517e+06	-39289.1	955.818	-29795.1	0.000000	0.000000	7.108169	36.366	NaN	0.000000	0.001637	0.001814	28.08	22.4861	0.001661	13536	3.313868	-176.34	34.8513	1.106007	0.025907	0.025555	36.366	13536	0.023892	0.029031	1252.65	72582.2
13	2.000000	1.108322	7.36517e+06	-39289.1	955.818	-29795.1	0.000000	0.000000	7.110436	43.8026	NaN	0.000000	0.001618	0.001821	28.0832	24.6613	0.001824	13519.7	5.408999	-177.751	43.4792	1.108082	0.027869	0.027629	43.8026	13519.7	0.025439	0.031820	1376.58	69245.3
13	2.000000	1.110307	7.36517e+06	-39289.1	955.818	-29795.1	0.000000	0.000000	7.112645	49.2377	NaN	0.000000	0.001642	0.001801	28.0794	26.7296	0.001793	14911	5.399591	-178.686	47.1071	1.109995	0.029855	0.029542	49.2377	14911	0.027378	0.035484	1387.59	72320.6
13	2.000000	1.112343	7.36517e+06	-39289.1	955.819	-29795.1	0.000000	0.000000	7.115079	58.9097	NaN	0.000000	0.001619	0.001842	28.0816	27.5914	0.001678	16438.9	4.807807	-178.528	60.8521	1.112060	0.031891	0.031608	58.9097	16438.9	0.029203	0.039109	1506.3	75946.5
13	2.000000	1.114308	7.36517e+06	-39289.1	955.819	-29795.1	0.000000	0.000000	7.117243	63.7537	NaN	0.000000	0.001553	0.001841	28.0814	30.016	0.001682	17846.1	2.639295	-177.621	63.9125	1.114057	0.033856	0.033605	63.7537	17846.1	0.031177	0.043218	1475.18	78430.6
13	2.000000	1.116318	7.36517e+06	-39289.1	955.817	-29795.1	0.000000	0.000000	7.119553	71.0649	NaN	0.000000	0.001595	0.001771	28.0796	32.7704	0.001890	17336.9	4.536450	-178.106	68.4719	1.116014	0.035865	0.035561	71.0649	17336.9	0.032791	0.046727	1520.85	73275.4
13	2.000000	1.118334	7.36517e+06	-39289.1	955.818	-29795.1	0.000000	0.000000	7.121711	74.5032	NaN	0.000000	0.001570	0.001814	28.082	34.7134	0.001844	18824.8	8.616918	176.816	74.7903	1.117929	0.037882	0.037476	74.5032	18824.8	0.034914	0.051545	1445.4	75754.8
13	2.000000	1.120292	7.36517e+06	-39289.1	955.817	-29795.1	0.000000	0.000000	7.124161	86.5091	NaN	0.000000	0.001568	0.001775	28.0805	36.7804	0.001841	19983	5.796126	178.141	84.811	1.120004	0.039839	0.039551	86.5091	19983	0.036592	0.055519	1558.2	77484.7
13	2.000000	1.122226	7.36517e+06	-39289.1	955.818	-29795.1	0.000000	0.000000	7.126352	92.7596	NaN	0.000000	0.001552	0.001789	28.0802	37.5422	0.001720	21830.7	4.237008	179.616	89.316	1.121965	0.041774	0.041513	92.7596	21830.7	0.038587	0.060427	1535.07	81138.1
13	2.000000	1.124259	7.36517e+06	-39289.1	955.818	-29795.1	0.000000	0.000000	7.128584	97.5829	NaN	0.000000	0.001558	0.001789	28.0808	40.7156	0.001869	21787.4	5.203572	178.736	95.4547	1.123931	0.043807	0.043479	97.5829	21787.4	0.040447	0.065190	1496.9	77962.9
13	2.000000	1.126294	7.36517e+06	-39289.1	955.817	-29795.1	0.000000	0.000000	7.130734	100.395	NaN	0.000000	0.001545	0.001797	28.0815	42.3929	0.001766	24007.7	3.813449	179.221	99.9719	1.126000	0.045842	0.045547	100.395	24007.7	0.042705	0.071206	1409.92	82198.4
13	2.000000	1.128248	7.36517e+06	-39289.1	955.817	-29795.1	0.000000	0.000000	7.133228	113.543	NaN	0.000000	0.001529	0.001788	28.0827	43.7899	0.001751	25009.4	3.480947	178.998	111.62	1.127905	0.047795	0.047453	113.543	25009.4	0.044390	0.075865	1496.64	82957.3
13	2.000000	1.130317	7.36517e+06	-39289.1	955.817	-29795.1	0.000000	0.000000	7.135127	109.401	NaN	0.000000	0.001527	0.001787	28.0808	46.909	0.001836	25544.1	3.297554	178.574	108.884	1.130162	0.049864	0.049710	109.401	25544.1	0.046652	0.082347	1328.53	81327.8
13	2.000000	1.132309	7.36517e+06	-39289.1	955.817	-29795.1	0.000000	0.000000	7.137931	129.153	NaN	0.000000	0.001511	0.001786	28.0814	48.063	0.001827	26307.6	9.657100	174.475	131.246	1.131786	0.051857	0.051333	129.153	26307.6	0.048175	0.086855	1487	81556.2
13	2.000000	1.134251	7.36517e+06	-39289.1	955.816	-29795.1	0.000000	0.000000	7.140227	137.765	NaN	0.000000	0.001526	0.001787	28.081	49.3332	0.001839	26829.4	4.735534	178.465	135.337	1.133842	0.053799	0.053390	137.765	26829.4	0.049947	0.092251	1493.38	80704.7
13	2.000000	1.136282	7.36517e+06	-39289.1	955.817	-29795.1	0.000000	0.000000	7.142659	147.518	NaN	0.000000	0.001561	0.001775	28.081	51.2759	0.001811	28308.8	3.723433	178.126	147.273	1.135944	0.055829	0.055492	147.518	28308.8	0.051921	0.098444	1498.5	82433
13	2.000000	1.138200	7.36517e+06	-39289.1	955.817	-29795.1	0.000000	0.000000	7.144811	153.218	NaN	0.000000	0.001530	0.001799	28.0799	52.2804	0.001815	28803.9	3.730226	177.947	149.231	1.137946	0.057748	0.057493	153.218	28803.9	0.053758	0.104384	1467.84	81453.4
13	2.000000	1.140267	7.36517e+06	-39289.1	955.818	-29795.1	0.000000	0.000000	7.147145	159.717	NaN	0.000000	0.001511	0.001802	28.0801	54.9621	0.001849	29719.6	0.937093	-179.505	159.262	1.140165	0.059814	0.059712	159.717	29719.6	0.055784	0.111125	1437.28	81453.5
13	2.000000	1.142287	7.36517e+06	-39289.1	955.818	-29795.1	0.000000	0.000000	7.149519	168.323	NaN	0.000000	0.001485	0.001780	28.0787	56.2586	0.001867	30136.6	4.284637	177.128	169.659	1.141998	0.061835	0.061546	168.323	30136.6	0.057646	0.117502	1432.52	80324.2
13	2.000000	1.144288	7.36517e+06	-39289.1	955.817	-29795.1	0.000000	0.000000	7.152168	184.098	NaN	0.000000	0.001500	0.001791	28.08	57.7018	0.001818	31731.5	4.879766	176.488	185.566	1.143902	0.063836	0.063450	184.098	31731.5	0.059485	0.123966	1485.07	82340.3
13	2.000000	1.146262	7.36517e+06	-39289.1	955.817	-29795.1	0.000000	0.000000	7.154539	193.75	NaN	0.000000	0.001535	0.001796	28.0798	59.5314	0.001777	33502	3.116804	177.841	193.788	1.145946	0.065810	0.065493	193.75	33502	0.061472	0.131141	1477.42	84522.9
13	2.000000	1.148235	7.36517e+06	-39289.1	955.819	-29795.1	0.000000	0.000000	7.156949	204.39	NaN	0.000000	0.001516	0.001772	28.0799	61.4143	0.001824	33661.5	5.189339	175.421	203.225	1.147929	0.067783	0.067477	204.39	33661.5	0.063229	0.137640	1484.96	82895.9
13	2.000000	1.150219	7.36517e+06	-39289.1	955.818	-29795.1	0.000000	0.000000	7.159036	206.893	NaN	0.000000	0.001563	0.001776	28.0808	62.8361	0.001820	34534.8	0.609476	179.711	201.878	1.149855	0.069767	0.069403	206.893	34534.8	0.065273	0.145394	1422.98	82747.9
13	2.000000	1.152258	7.36517e+06	-39289.1	955.819	-29795.1	0.000000	0.000000	7.161507	217.406	NaN	0.000000	0.001578	0.001807	28.0804	64.1249	0.001907	33630	3.263327	177.14	215.408	1.151894	0.071806	0.071442	217.406	33630	0.066957	0.151931	1430.95	78827.5
13	2.000000	1.154291	7.36517e+06	-39289.1	955.819	-29795.1	0.000000	0.000000	7.163673	220.638	NaN	0.000000	0.001566	0.001800	28.0793	66.5866	0.001739	38298.2	2.150330	176.64	220.452	1.154018	0.073839	0.073565	220.638	38298.2	0.069518	0.162133	1360.85	86899.2
13	2.000000	1.156231	7.36517e+06	-39289.1	955.818	-29795.1	0.000000	0.000000	7.166351	238.598	NaN	0.000000	0.001576	0.001818	28.0795	69.2949	0.001841	37642.7	4.350471	175.292	235.648	1.155924	0.075779	0.075471	238.598	37642.7	0.071025	0.168283	1417.84	83836.7
13	2.000000	1.158162	7.36518e+06	-39289.1	955.817	-29795.1	0.000000	0.000000	7.168681	248.322	NaN	0.000000	0.001578	0.001799	28.0792	70.3763	0.001922	36620.8	2.931567	176.94	244.219	1.157948	0.077709	0.077495	248.322	36620.8	0.072624	0.174924	1419.6	79997.4
13	2.000000	1.160173	7.36518e+06	-39289.1	955.817	-29795.1	0.000000	0.000000	7.171090	258.024	NaN	0.000000	0.001595	0.001795	28.0791	71.8822	0.001789	40178.3	3.003422	176.237	254.888	1.159996	0.079720	0.079543	258.024	40178.3	0.074904	0.184606	1397.7	85436.3
13	2.000000	1.162343	7.36518e+06	-39289.1	955.817	-29795.1	0.000000	0.000000	7.173610	266.523	NaN	0.000000	0.001608	0.001804	28.0795	73.2475	0.001835	39911.8	5.358321	173.836	271.857	1.161882	0.081890	0.081430	266.523	39911.8	0.076882	0.193204	1379.49	82959.5
13	2.000000	1.164200	7.36518e+06	-39289.1	955.817	-29795.1	0.000000	0.000000	7.176194	284.232	NaN	0.000000	0.001591	0.001817	28.0792	75.2521	0.001808	41627.5	1.221159	177.541	281.467	1.163912	0.083747	0.083460	284.232	41627.5	0.078626	0.200938	1414.53	84844.4
13	2.000000	1.166226	7.36518e+06	-39289.1	955.817	-29795.1	0.000000	0.000000	7.178786	297.983	NaN	0.000000	0.001598	0.001844	28.0799	78.1253	0.001764	44285.1	7.799214	170.812	296.64	1.165845	0.085774	0.085393	297.983	44285.1	0.080727	0.210440	1416	88199.6
13	2.000000	1.168297	7.36518e+06	-39289.1	955.818	-29795.1	0.000000	0.000000	7.181259	307.794	NaN	0.000000	0.001610	0.001844	28.0803	79.6293	0.001814	43891.5	3.721001	174.562	310.459	1.167957	0.087844	0.087504	307.794	43891.5	0.082585	0.219014	1405.36	85687.5
13	2.000000	1.170177	7.36518e+06	-39289.1	955.817	-29795.1	0.000000	0.000000	7.183907	326.449	NaN	0.000000	0.001593	0.001805	28.0796	81.2982	0.001815	44802.4	5.059866	173.215	323.033	1.169892	0.089725	0.089440	326.449	44802.4	0.084260	0.226885	1438.83	85935.3
13	2.000000	1.172231	7.36518e+06	-39289.1	955.817	-29795.1	0.000000	0.000000	7.186453	338.425	NaN	0.000000	0.001626	0.001787	28.0806	81.3644	0.001738	46828.3	3.805391	174.883	335.228	1.171745	0.091779	0.091292	338.425	46828.3	0.086359	0.236926	1428.4	87897.2
13	2.000000	1.174184	7.36518e+06	-39289.1	955.817	-29795.1	0.000000	0.000000	7.188693	345.411	NaN	0.000000	0.001613	0.001781	28.0811	85.2266	0.001850	46072.9	8.081143	169.917	344.25	1.173898	0.093732	0.093446	345.411	46072.9	0.088109	0.245457	1407.21	84963.2
13	2.000000	1.176212	7.36518e+06	-39289.1	955.817	-29795.1	0.000000	0.000000	7.191489	364.092	NaN	0.000000	0.001637	0.001802	28.0801	85.7197	0.001834	46727.9	5.155027	173.175	361.203	1.175887	0.095760	0.095435	364.092	46727.9	0.089916	0.254410	1431.12	84641.2
13	2.000000	1.178253	7.36518e+06	-39289.1	955.817	-29795.1	0.000000	0.000000	7.194093	377.825	NaN	0.000000	0.001627	0.001776	28.0804	86.2483	0.001780	48447.5	2.963799	175.55	378.9	1.177882	0.097800	0.097429	377.825	48447.5	0.091951	0.264674	1427.51	86037.8
13	2.000000	1.180235	7.36518e+06	-39289.1	955.816	-29795.1	0.000000	0.000000	7.196315	383.646	NaN	0.000000	0.001602	0.001762	28.0793	89.6292	0.001690	53025.2	2.183583	174.864	383.351	1.180040	0.099782	0.099587	383.646	53025.2	0.094356	0.277046	1384.77	92040.6
13	2.000000	1.182182	7.36518e+06	-39289.1	955.817	-29795.1	0.000000	0.000000	7.199409	411.575	NaN	0.000000	0.001606	0.001746	28.0797	90.4669	0.001729	52325	5.590337	171.535	409.332	1.181877	0.101729	0.101425	411.575	52325	0.095830	0.284760	1445.34	89586.5
13	2.000000	1.184225	7.36518e+06	-39289.1	955.817	-29795.1	0.000000	0.000000	7.201979	424.374	NaN	0.000000	0.001620	0.001747	28.0803	93.2439	0.001855	50264.2	2.171696	175.753	426.199	1.183901	0.103773	0.103448	424.374	50264.2	0.097441	0.293303	1446.88	84795.6
13	2.000000	1.186225	7.36518e+06	-39289.1	955.817	-29795.1	0.000000	0.000000	7.204759	443.375	NaN	0.000000	0.001605	0.001779	28.0812	94.8658	0.001685	56306	6.940399	170.168	442.924	1.185759	0.105773	0.105307	443.375	56306	0.099867	0.306393	1447.08	92936.9
13	2.000000	1.188168	7.36518e+06	-39289.1	955.816	-29795.1	0.000000	0.000000	7.207301	457.944	NaN	0.000000	0.001611	0.001774	28.0816	96.3078	0.001791	53776.1	7.668429	169.218	454.795	1.187912	0.107716	0.107460	457.944	53776.1	0.101329	0.314411	1456.51	87622.2
13	2.000000	1.190188	7.36518e+06	-39289.1	955.817	-29795.1	0.000000	0.000000	7.209478	461.761	NaN	0.000000	0.001612	0.001756	28.0811	99.0334	0.001682	58873.9	5.786830	170.43	458.139	1.189986	0.109736	0.109533	461.761	58873.9	0.103853	0.328482	1405.74	93851.3
13	2.000000	1.191208	7.36518e+06	-39289.1	955.817	-29795.1	0.000000	0.000000	7.210979	473.463	NaN	0.000000	0.001647	0.001787	28.1322	99.6395	0.001669	59704.9	4.487778	172.064	473.483	1.190867	0.110755	0.110414	473.463	59704.9	0.104808	0.333879	1418.07	94403.6