File: remote_trans/data/nanoindenter/0828-1/data/Data_2025-08-06,11h17m57s/2025-07-22_16-23-58_1_1185.txt
2025-07-22, 16:23:58, 1
Index	Phase	Displacement	Time	Pos X	Pos Y	Pos Z	Rot A	Rot B	Piezo Z	Force A	Force B	Gripper	Voltage A	Voltage B	Temperature	Amplitude force	Amplitude pos	Stiffness	Phase shift	Phase excitation	Force A raw	Displacement raw	HMax	HMax raw	Real Force	Real Stiffness	Contact Depth	Area	Hardness	Reduced Mod.
[#]	[#]	[um]	[s]	[um]	[um]	[um]	[m°]	[m°]	[um]	[uN]	[uN]	[V]	[V]	[V]	[°C]	[uN]	[um]	[N/m]	[°]	[°]	[uN]	[um]	[um]	[um]	[uN]	[N/m]	[um]	[um^2]	[MPa]	[MPa]
1185	1.000000	0.003095	7.37664e+06	-56339.1	1105.82	-29739.1	0.000000	0.000000	6.002828	-0.033775	NaN	0.000000	0.001646	0.001695	28.0824	0.054049	0.000946	57.148	-67.6165	-163.091	-0.079167	0.001812	-0.378229	-0.379511	-0.033775	57.148	-0.377785	-64282.7	5.254123E-7	NaN
1185	1.000000	0.009033	7.37664e+06	-56339.1	1105.82	-29739.1	0.000000	0.000000	6.008768	-0.009346	NaN	0.000000	0.001611	0.001716	28.0824	0.009627	0.000971	9.913101	-104.882	17.8663	-0.043484	0.007708	-0.372290	-0.373616	-0.009346	9.913101	-0.371583	-52349.8	1.785283E-7	NaN
1185	1.000000	0.015071	7.37664e+06	-56339.1	1105.82	-29739.1	0.000000	0.000000	6.014807	0.013690	NaN	0.000000	0.001569	0.001691	28.0828	0.167080	0.001709	97.7377	-176.184	-165.376	0.021839	0.013885	-0.366252	-0.367438	0.013690	97.7377	-0.366357	-44017.5	-3.110051E-7	NaN
1185	1.000000	0.020997	7.37664e+06	-56339.1	1105.82	-29739.1	0.000000	0.000000	6.020731	-0.019473	NaN	0.000000	0.001596	0.001672	28.0825	0.137590	0.001608	85.544	155.952	13.4982	0.017378	0.019691	-0.360326	-0.361633	-0.019473	85.544	-0.360155	-35817.1	5.436906E-7	NaN
1185	1.000000	0.027058	7.37664e+06	-56339.1	1105.82	-29739.1	0.000000	0.000000	6.026793	0.001721	NaN	0.000000	0.001605	0.001706	28.0828	0.133874	0.001797	74.4946	-164.08	-163.676	-0.015804	0.025744	-0.354265	-0.355579	0.001721	74.4946	-0.354283	-29451.5	-5.844742E-8	NaN
1185	1.000000	0.033030	7.37664e+06	-56339.1	1105.82	-29739.1	0.000000	0.000000	6.032767	0.038215	NaN	0.000000	0.001577	0.001769	28.0827	0.111542	0.001982	56.2747	-164.435	12.753	0.018903	0.031646	-0.348293	-0.349678	0.038215	56.2747	-0.348802	-24525.2	-1.558176E-6	NaN
1185	1.000000	0.039005	7.37664e+06	-56339.1	1105.82	-29739.1	0.000000	0.000000	6.038739	-0.024831	NaN	0.000000	0.001604	0.001733	28.0826	0.071212	0.001893	37.6237	-150.105	-163.245	-0.052044	0.037724	-0.342318	-0.343599	-0.024831	37.6237	-0.341823	-19414.1	1.278996E-6	NaN
1185	1.000000	0.044992	7.37664e+06	-56339.1	1105.82	-29739.1	0.000000	0.000000	6.044726	-0.019124	NaN	0.000000	0.001591	0.001711	28.0832	0.044454	0.001873	23.7285	-123.356	15.425	0.062707	0.043628	-0.336331	-0.337695	-0.019124	23.7285	-0.335726	-15819.7	1.208899E-6	NaN
1185	1.000000	0.051005	7.37664e+06	-56339.1	1105.82	-29739.1	0.000000	0.000000	6.050739	-0.017952	NaN	0.000000	0.001596	0.001699	28.0826	0.035383	0.001907	18.5525	161.471	-165.357	-0.051270	0.049704	-0.330318	-0.331619	-0.017952	18.5525	-0.329593	-12867.2	1.395141E-6	NaN
1185	1.000000	0.056983	7.37664e+06	-56339.1	1105.82	-29739.1	0.000000	0.000000	6.056717	-0.023931	NaN	0.000000	0.001586	0.001708	28.083	0.081771	0.002063	39.6345	-62.3251	14.2996	-0.022791	0.055642	-0.324340	-0.325681	-0.023931	39.6345	-0.323887	-10611.9	2.255066E-6	NaN
1185	1.000000	0.063021	7.37664e+06	-56339.1	1105.82	-29739.1	0.000000	0.000000	6.062754	-0.037687	NaN	0.000000	0.001596	0.001713	28.0828	0.202412	0.001897	106.714	171.882	-159.483	0.036022	0.061682	-0.318302	-0.319641	-0.037687	106.714	-0.318037	-8704.29	4.329724E-6	NaN
1185	1.000000	0.069001	7.37664e+06	-56339.1	1105.82	-29739.1	0.000000	0.000000	6.068738	0.035701	NaN	0.000000	0.001593	0.001675	28.084	0.085485	0.002048	41.7461	141.485	11.669	0.011907	0.067648	-0.312322	-0.313675	0.035701	41.7461	-0.312963	-7326.09	-4.873184E-6	NaN
1185	1.000000	0.075018	7.37664e+06	-56339.1	1105.82	-29739.1	0.000000	0.000000	6.074753	-0.006947	NaN	0.000000	0.001581	0.001691	28.0839	0.099333	0.002034	48.8281	167.642	-163.786	0.021301	0.073685	-0.306305	-0.307638	-0.006947	48.8281	-0.306198	-5817.49	1.194223E-6	NaN
1185	1.000000	0.081038	7.37664e+06	-56339.1	1105.82	-29739.1	0.000000	0.000000	6.080774	0.023547	NaN	0.000000	0.001586	0.001694	28.0839	0.117354	0.001932	60.7356	83.7289	16.7636	-0.002943	0.079642	-0.300285	-0.301681	0.023547	60.7356	-0.300576	-4799.63	-4.906046E-6	NaN
1185	1.000000	0.087009	7.37664e+06	-56339.1	1105.82	-29739.1	0.000000	0.000000	6.086740	-0.083697	NaN	0.000000	0.001586	0.001706	28.0839	0.090770	0.001956	46.4142	-135.819	-164.648	-0.074142	0.085709	-0.294315	-0.295615	-0.083697	46.4142	-0.292962	-3695.19	2.265011E-5	NaN
1185	1.000000	0.093030	7.37664e+06	-56339.1	1105.82	-29739.1	0.000000	0.000000	6.092762	-0.082611	NaN	0.000000	0.001618	0.001690	28.0839	0.080688	0.001927	41.871	-7.712414	15.6061	-0.075172	0.091687	-0.288293	-0.289636	-0.082611	41.871	-0.286813	-2988.86	2.763947E-5	NaN
1185	1.000000	0.099027	7.37664e+06	-56339.1	1105.82	-29739.1	0.000000	0.000000	6.098760	-0.024996	NaN	0.000000	0.001603	0.001658	28.0841	0.070678	0.002029	34.835	151.575	-163.675	-0.006590	0.097682	-0.282297	-0.283641	-0.024996	34.835	-0.281758	-2508.88	9.963067E-6	NaN
1185	1.000000	0.105019	7.37664e+06	-56339.1	1105.82	-29739.1	0.000000	0.000000	6.104753	-0.007059	NaN	0.000000	0.001598	0.001690	28.0839	0.077232	0.001843	41.8972	63.3407	16.3982	0.060864	0.103675	-0.276304	-0.277648	-0.007059	41.8972	-0.276178	-2066.48	3.416005E-6	NaN
1185	1.000000	0.110994	7.37664e+06	-56339.1	1105.82	-29739.1	0.000000	0.000000	6.110731	0.056913	NaN	0.000000	0.001615	0.001701	28.0842	0.103291	0.002048	50.4438	-89.4969	-168.231	0.043949	0.109726	-0.270329	-0.271597	0.056913	50.4438	-0.271175	-1735.4	-3.279544E-5	NaN
1185	1.000000	0.117034	7.37664e+06	-56339.1	1105.82	-29739.1	0.000000	0.000000	6.116767	-0.038035	NaN	0.000000	0.001632	0.001702	28.0841	0.072613	0.001941	37.4099	-77.5138	17.5017	-0.031316	0.115649	-0.264289	-0.265674	-0.038035	37.4099	-0.263527	-1327.06	2.866065E-5	NaN
1185	1.000000	0.123029	7.37664e+06	-56339.1	1105.82	-29739.1	0.000000	0.000000	6.122761	-0.068809	NaN	0.000000	0.001640	0.001667	28.0845	0.098965	0.002100	47.1324	144.425	-163.346	-0.045883	0.121719	-0.258295	-0.259604	-0.068809	47.1324	-0.257200	-1061.56	6.481884E-5	NaN
1185	1.000000	0.129071	7.37664e+06	-56339.1	1105.82	-29739.1	0.000000	0.000000	6.128808	0.054469	NaN	0.000000	0.001643	0.001709	28.0841	0.099455	0.001946	51.1118	172.944	13.2429	0.057826	0.127669	-0.252253	-0.253655	0.054469	51.1118	-0.253052	-916.432	-5.943646E-5	NaN
1185	1.000000	0.135044	7.37664e+06	-56339.1	1105.82	-29739.1	0.000000	0.000000	6.134780	0.019895	NaN	0.000000	0.001606	0.001691	28.0843	0.051868	0.002057	25.2152	-96.8617	-163.348	-0.008333	0.133748	-0.246279	-0.247575	0.019895	25.2152	-0.246870	-735.35	-2.705582E-5	NaN
1185	1.000000	0.141051	7.37664e+06	-56339.1	1105.82	-29739.1	0.000000	0.000000	6.140785	-0.002065	NaN	0.000000	0.001644	0.001703	28.0842	0.043230	0.002015	21.4559	-48.3306	14.543	-0.045586	0.139665	-0.240272	-0.241658	-0.002065	21.4559	-0.240200	-579.003	3.566527E-6	NaN
1185	1.000000	0.147033	7.37664e+06	-56339.1	1105.82	-29739.1	0.000000	0.000000	6.146768	0.011765	NaN	0.000000	0.001621	0.001688	28.0842	0.050519	0.002002	25.2385	167.636	-164.669	-0.068845	0.145701	-0.234291	-0.235622	0.011765	25.2385	-0.234640	-473.802	-2.483099E-5	NaN
1185	1.000000	0.153032	7.37664e+06	-56339.1	1105.82	-29739.1	0.000000	0.000000	6.152769	0.045532	NaN	0.000000	0.001596	0.001748	28.0845	0.119523	0.002006	59.5816	64.118	16.8617	0.091771	0.151655	-0.228291	-0.229668	0.045532	59.5816	-0.228864	-384.213	-0.000119	NaN
1185	1.000000	0.159019	7.37664e+06	-56339.1	1105.82	-29739.1	0.000000	0.000000	6.158755	0.021080	NaN	0.000000	0.001599	0.001702	28.084	0.050262	0.002068	24.305	20.8108	-165.41	0.036625	0.157733	-0.222304	-0.223590	0.021080	24.305	-0.222955	-309.605	-6.808814E-5	NaN
1185	1.000000	0.165061	7.37664e+06	-56339.1	1105.82	-29739.1	0.000000	0.000000	6.164797	0.033883	NaN	0.000000	0.001597	0.001700	28.0842	0.064982	0.002062	31.5215	28.5217	16.1857	0.050260	0.163706	-0.216262	-0.217618	0.033883	31.5215	-0.217068	-249.31	-0.000136	NaN
1185	1.000000	0.171060	7.37664e+06	-56339.1	1105.82	-29739.1	0.000000	0.000000	6.170793	-0.047643	NaN	0.000000	0.001623	0.001747	28.0841	0.062925	0.001970	31.9468	47.3359	-163.536	-0.038029	0.169750	-0.210263	-0.211573	-0.047643	31.9468	-0.209145	-185.765	0.000256	NaN
1185	1.000000	0.177066	7.37664e+06	-56339.1	1105.82	-29739.1	0.000000	0.000000	6.176800	0.001305	NaN	0.000000	0.001615	0.001714	28.0841	0.045168	0.001938	23.3126	149.185	14.6744	0.072106	0.175718	-0.204258	-0.205605	0.001305	23.3126	-0.204300	-154.927	-8.426111E-6	NaN
1185	1.000000	0.183104	7.37664e+06	-56339.1	1105.82	-29739.1	0.000000	0.000000	6.182838	0.001936	NaN	0.000000	0.001580	0.001707	28.0842	0.052714	0.002051	25.706	92.4603	-165.987	0.059822	0.181727	-0.198220	-0.199596	0.001936	25.706	-0.198276	-123.404	-1.569161E-5	NaN
1185	1.000000	0.189070	7.37664e+06	-56339.1	1105.82	-29739.1	0.000000	0.000000	6.188806	0.036961	NaN	0.000000	0.001576	0.001709	28.0843	0.051521	0.002066	24.9323	-81.3427	12.7323	0.068778	0.187712	-0.192253	-0.193611	0.036961	24.9323	-0.193365	-102.348	-0.000361	NaN
1185	1.000000	0.195089	7.37664e+06	-56339.1	1105.82	-29739.1	0.000000	0.000000	6.194826	0.057009	NaN	0.000000	0.001561	0.001739	28.0845	0.104273	0.002062	50.5731	-138.22	-164.028	0.027890	0.193741	-0.186234	-0.187582	0.057009	50.5731	-0.187079	-80.3738	-0.000709	NaN
1185	1.000000	0.201099	7.37664e+06	-56339.1	1105.82	-29739.1	0.000000	0.000000	6.200835	0.019159	NaN	0.000000	0.001575	0.001741	28.084	0.044593	0.001897	23.5086	81.4433	12.6043	-0.044802	0.199721	-0.180224	-0.181602	0.019159	23.5086	-0.180835	-63.0476	-0.000304	NaN
1185	1.000000	0.207095	7.37664e+06	-56339.1	1105.82	-29739.1	0.000000	0.000000	6.206831	0.041242	NaN	0.000000	0.001559	0.001739	28.0836	0.071449	0.001933	36.9692	-3.166386	-164.512	0.053740	0.205765	-0.174229	-0.175558	0.041242	36.9692	-0.175065	-50.2462	-0.000821	NaN
1185	1.000000	0.213099	7.37664e+06	-56339.1	1105.82	-29739.1	0.000000	0.000000	6.212833	-0.036027	NaN	0.000000	0.001570	0.001693	28.083	0.087599	0.001981	44.2291	-80.6204	15.4674	-0.093913	0.211713	-0.168224	-0.169610	-0.036027	44.2291	-0.167613	-37.3294	0.000965	NaN
1185	1.000000	0.219093	7.37664e+06	-56339.1	1105.82	-29739.1	0.000000	0.000000	6.218826	-0.039993	NaN	0.000000	0.001638	0.001730	28.0831	0.106702	0.002024	52.7102	132.507	-166.555	-0.005145	0.217735	-0.162230	-0.163588	-0.039993	52.7102	-0.161661	-29.3389	0.001363	NaN
1185	1.000000	0.225064	7.37664e+06	-56339.1	1105.82	-29739.1	0.000000	0.000000	6.224799	0.007525	NaN	0.000000	0.001597	0.001732	28.0829	0.094814	0.001887	50.2577	-73.3147	16.8186	0.009776	0.223726	-0.156259	-0.157598	0.007525	50.2577	-0.156371	-23.6164	-0.000319	NaN
1185	1.000000	0.231076	7.37664e+06	-56339.1	1105.82	-29739.1	0.000000	0.000000	6.230813	0.049322	NaN	0.000000	0.001621	0.001703	28.0829	0.053931	0.001963	27.4735	-145.855	-166.435	0.023078	0.229785	-0.150247	-0.151538	0.049322	27.4735	-0.151594	-19.3647	-0.002547	NaN
1185	1.000000	0.237062	7.37664e+06	-56339.1	1105.82	-29739.1	0.000000	0.000000	6.236801	0.086288	NaN	0.000000	0.001643	0.001703	28.0829	0.008505	0.002068	4.112930	20.0499	16.1644	0.053500	0.235693	-0.144261	-0.145630	0.086288	4.112930	-0.159996	-27.4099	-0.003148	NaN
1185	1.000000	0.243069	7.37664e+06	-56339.1	1105.82	-29739.1	0.000000	0.000000	6.242806	0.052961	NaN	0.000000	0.001656	0.001684	28.0829	0.040459	0.002029	19.9385	108.736	-164.491	0.007578	0.241773	-0.138254	-0.139550	0.052961	19.9385	-0.140246	-11.9563	-0.004430	NaN
1185	1.000000	0.249086	7.37664e+06	-56339.1	1105.82	-29739.1	0.000000	0.000000	6.248824	0.077132	NaN	0.000000	0.001634	0.001690	28.0829	0.030341	0.002014	15.0632	138.099	17.769	0.068868	0.247740	-0.132237	-0.133583	0.077132	15.0632	-0.136078	-9.973032	-0.007734	NaN
1185	1.000000	0.255089	7.37664e+06	-56339.1	1105.82	-29739.1	0.000000	0.000000	6.254825	0.016447	NaN	0.000000	0.001643	0.001701	28.0826	0.109876	0.001929	56.9561	-59.3107	-164.387	0.020507	0.253771	-0.126234	-0.127552	0.016447	56.9561	-0.126450	-6.495499	-0.002532	NaN
1185	1.000000	0.261114	7.37664e+06	-56339.1	1105.82	-29739.1	0.000000	0.000000	6.260848	-0.005124	NaN	0.000000	0.001628	0.001692	28.083	0.058451	0.001989	29.3853	-36.0037	12.1683	0.001079	0.259760	-0.120209	-0.121563	-0.005124	29.3853	-0.120079	-4.849195	0.001057	NaN
1185	1.000000	0.267112	7.37664e+06	-56339.1	1105.82	-29739.1	0.000000	0.000000	6.266847	-0.003675	NaN	0.000000	0.001652	0.001741	28.0826	0.040595	0.001843	22.0251	102.758	-168.064	-0.025672	0.265828	-0.114211	-0.115496	-0.003675	22.0251	-0.114086	-3.657833	0.001005	NaN
1185	1.000000	0.273090	7.37664e+06	-56339.1	1105.82	-29739.1	0.000000	0.000000	6.272826	0.033610	NaN	0.000000	0.001617	0.001727	28.0827	0.055700	0.001943	28.6622	156.906	15.9063	0.004840	0.271740	-0.108233	-0.109583	0.033610	28.6622	-0.109113	-2.878232	-0.011677	NaN
1185	1.000000	0.279122	7.37664e+06	-56339.1	1105.82	-29739.1	0.000000	0.000000	6.278857	0.000533	NaN	0.000000	0.001608	0.001732	28.0827	0.116533	0.002012	57.9307	174.359	-166.37	-0.058160	0.277821	-0.102201	-0.103502	0.000533	57.9307	-0.102208	-2.043739	-0.000261	NaN
1185	1.000000	0.285096	7.37664e+06	-56339.1	1105.82	-29739.1	0.000000	0.000000	6.284831	-0.006168	NaN	0.000000	0.001635	0.001723	28.0827	0.061057	0.001925	31.7214	71.7918	15.9962	0.006567	0.283760	-0.096227	-0.097563	-0.006168	31.7214	-0.096081	-1.492712	0.004132	NaN
1185	1.000000	0.291132	7.37664e+06	-56339.1	1105.82	-29739.1	0.000000	0.000000	6.290868	0.033658	NaN	0.000000	0.001593	0.001739	28.0826	0.085695	0.001983	43.2054	-19.2048	-163.049	0.066107	0.289753	-0.090191	-0.091570	0.033658	43.2054	-0.090776	-1.127124	-0.029862	NaN
1185	1.000000	0.297129	7.37664e+06	-56339.1	1105.82	-29739.1	0.000000	0.000000	6.296866	0.055017	NaN	0.000000	0.001618	0.001695	28.0828	0.037312	0.002088	17.8733	-61.5275	13.5968	0.024114	0.295741	-0.084194	-0.085582	0.055017	17.8733	-0.086502	-0.893034	-0.061607	NaN
1185	1.000000	0.303106	7.37664e+06	-56339.1	1105.82	-29739.1	0.000000	0.000000	6.302840	-0.009759	NaN	0.000000	0.001608	0.001743	28.0829	0.062896	0.002000	31.4478	-77.8757	-167.393	-0.021557	0.301812	-0.078217	-0.079512	-0.009759	31.4478	-0.077985	-0.550744	0.017719	NaN
1185	1.000000	0.309120	7.37664e+06	-56339.1	1105.82	-29739.1	0.000000	0.000000	6.308853	-0.035033	NaN	0.000000	0.001637	0.001733	28.0825	0.022107	0.001990	11.1111	-14.054	14.1122	0.043640	0.307736	-0.072203	-0.073588	-0.035033	11.1111	-0.069839	-0.337728	0.103731	NaN
1185	1.000000	0.315142	7.37664e+06	-56339.1	1105.82	-29739.1	0.000000	0.000000	6.314880	0.075782	NaN	0.000000	0.001642	0.001729	28.0825	0.031168	0.001924	16.2006	119.222	-164.9	0.084153	0.313793	-0.066181	-0.067530	0.075782	16.2006	-0.069690	-0.334632	-0.226463	NaN
1185	1.000000	0.321147	7.37664e+06	-56339.1	1105.82	-29739.1	0.000000	0.000000	6.320880	-0.047799	NaN	0.000000	0.001643	0.001695	28.0826	0.108703	0.002011	54.0603	110.522	11.2247	-0.035261	0.319747	-0.060176	-0.061576	-0.047799	54.0603	-0.059513	-0.174382	0.274103	NaN
1185	1.000000	0.327113	7.37664e+06	-56339.1	1105.82	-29739.1	0.000000	0.000000	6.326846	-0.036830	NaN	0.000000	0.001634	0.001700	28.0827	0.083207	0.002032	40.9568	14.3883	-168.665	-0.035842	0.325813	-0.054210	-0.055511	-0.036830	40.9568	-0.053536	-0.116518	0.316091	NaN
1185	1.000000	0.333098	7.37664e+06	-56339.1	1105.82	-29739.1	0.000000	0.000000	6.332834	0.043103	NaN	0.000000	0.001598	0.001728	28.0828	0.247183	0.001999	123.642	13.1105	14.8139	0.024855	0.331760	-0.048225	-0.049564	0.043103	123.642	-0.048487	-0.082103	-0.524983	NaN
1185	1.000000	0.339162	7.37664e+06	-56339.1	1105.82	-29739.1	0.000000	0.000000	6.338909	0.296746	NaN	0.000000	0.001586	0.001712	28.0839	0.264655	0.001946	136.033	4.025598	-168.928	0.261083	0.337833	-0.042162	-0.043491	0.296746	136.033	-0.043798	-0.059050	-5.025320	NaN
1185	1.000000	0.345113	7.37664e+06	-56339.1	1105.82	-29739.1	0.000000	0.000000	6.344872	0.590274	NaN	0.000000	0.001629	0.001722	28.0844	0.494128	0.001963	251.689	9.740504	14.2945	0.463784	0.343722	-0.036210	-0.037601	0.590274	251.689	-0.037969	-0.039258	-15.0358	NaN
1185	1.000000	0.351143	7.37664e+06	-56339.1	1105.82	-29739.1	0.000000	0.000000	6.350935	1.401415	NaN	0.000000	0.001573	0.001708	28.0839	0.914473	0.001984	461.018	21.6167	-166.215	1.166248	0.349804	-0.030181	-0.031519	1.401415	461.018	-0.032461	-0.027014	-51.8768	NaN
1185	1.000000	0.357141	7.37664e+06	-56339.1	1105.82	-29739.1	0.000000	0.000000	6.356962	2.108376	NaN	0.000000	0.001583	0.001746	28.0842	1.289496	0.002072	622.374	19.1332	14.44	1.989426	0.355748	-0.024183	-0.025575	2.108376	622.374	-0.026723	-0.018733	-112.548	NaN
1185	1.000000	0.363147	7.37664e+06	-56339.1	1105.82	-29739.1	0.000000	0.000000	6.363022	3.411559	NaN	0.000000	0.001556	0.001735	28.0839	1.455678	0.001957	743.683	17.4567	-168.546	3.072725	0.361870	-0.018177	-0.019453	3.411559	743.683	-0.021617	-0.013808	-247.076	NaN
1185	1.000000	0.369124	7.37664e+06	-56339.1	1105.82	-29739.1	0.000000	0.000000	6.369056	4.807947	NaN	0.000000	0.001583	0.001734	28.0839	1.939598	0.001909	1016.21	15.9575	13.3808	4.378169	0.367806	-0.012199	-0.013517	4.807947	1016.21	-0.015748	-0.009728	-494.233	NaN
1185	1.000000	0.375157	7.37664e+06	-56339.1	1105.82	-29739.1	0.000000	0.000000	6.375140	6.039524	NaN	0.000000	0.001557	0.001710	28.0841	2.278714	0.001820	1252.14	12.0062	-164.739	5.926335	0.373816	-0.006166	-0.007507	6.039524	1252.14	-0.009784	-0.006263	-964.243	NaN
1185	1.000000	0.381153	7.37664e+06	-56339.1	1105.82	-29739.1	0.000000	0.000000	6.381202	7.648290	NaN	0.000000	0.001543	0.001709	28.0837	2.760172	0.001814	1521.72	10.1966	13.7388	7.002078	0.379798	-0.000170	-0.001525	7.648290	1521.72	-0.003940	-0.002740	-2791.42	NaN
1185	2.000000	0.385780	7.37664e+06	-56339.1	1105.82	-29739.1	0.000000	0.000000	6.385859	8.363257	NaN	0.000000	0.001642	0.001707	28.0841	3.176739	0.002022	1571.39	14.5894	-166.094	8.898382	0.385394	0.004457	0.004071	8.363257	1571.39	0.000465	0.000351	23857.2	76679.6
1185	2.000000	0.387281	7.37664e+06	-56339.1	1105.82	-29739.1	0.000000	0.000000	6.387374	8.712460	NaN	0.000000	0.001621	0.001673	28.084	3.469639	0.001891	1835.11	7.770753	12.3885	8.599623	0.386932	0.005958	0.005609	8.712460	1835.11	0.002397	0.001879	4637.52	38681.9
1185	2.000000	0.388705	7.37664e+06	-56339.1	1105.82	-29739.1	0.000000	0.000000	6.388817	9.175958	NaN	0.000000	0.001581	0.001702	28.0842	3.891385	0.002046	1902.36	14.4185	-169.292	9.046616	0.388378	0.007382	0.007055	9.175958	1902.36	0.003764	0.003033	3025.19	31558.5
1185	2.000000	0.390217	7.37664e+06	-56339.1	1105.82	-29739.1	0.000000	0.000000	6.390357	9.864457	NaN	0.000000	0.001563	0.001718	28.084	4.054095	0.002078	1951.23	14.6011	9.171567	9.520584	0.389834	0.008893	0.008511	9.864457	1951.23	0.005102	0.004227	2333.95	27421.4
1185	2.000000	0.391697	7.37664e+06	-56339.1	1105.82	-29739.1	0.000000	0.000000	6.391882	10.9483	NaN	0.000000	0.001557	0.001680	28.084	4.142959	0.001977	2095.28	12.0372	-170.316	10.7437	0.391377	0.010374	0.010053	10.9483	2095.28	0.006455	0.005501	1990.34	25811
1185	2.000000	0.393209	7.37664e+06	-56339.1	1105.82	-29739.1	0.000000	0.000000	6.393430	11.8242	NaN	0.000000	0.001553	0.001659	28.084	4.270240	0.001877	2274.6	9.755679	12.8459	11.673	0.392833	0.011885	0.011510	11.8242	2274.6	0.007987	0.007029	1682.31	24788.2
1185	2.000000	0.394697	7.37664e+06	-56339.1	1105.82	-29739.1	0.000000	0.000000	6.394933	12.1978	NaN	0.000000	0.001579	0.001677	28.0841	4.497346	0.001970	2283.49	12.3671	-170.787	12.1053	0.394406	0.013374	0.013083	12.1978	2283.49	0.009367	0.008487	1437.24	22646.3
1185	2.000000	0.396188	7.37664e+06	-56339.1	1105.82	-29739.1	0.000000	0.000000	6.396459	13.0262	NaN	0.000000	0.001538	0.001680	28.0841	4.548040	0.002038	2231.98	5.609389	14.555	12.7651	0.395833	0.014865	0.014510	13.0262	2231.98	0.010488	0.009729	1338.9	20674.2
1185	2.000000	0.397677	7.37664e+06	-56339.1	1105.82	-29739.1	0.000000	0.000000	6.397989	14.0283	NaN	0.000000	0.001556	0.001672	28.0842	4.974226	0.001962	2534.99	10.6117	-169.336	13.8632	0.397320	0.016354	0.015997	14.0283	2534.99	0.012204	0.011735	1195.42	21380
1185	2.000000	0.399154	7.37664e+06	-56339.1	1105.82	-29739.1	0.000000	0.000000	6.399509	15.0791	NaN	0.000000	0.001580	0.001668	28.0839	5.064856	0.002043	2478.57	11.1846	11.8008	14.5687	0.398876	0.017830	0.017553	15.0791	2478.57	0.013268	0.013044	1156.02	19827.5
1185	2.000000	0.400650	7.37664e+06	-56339.1	1105.82	-29739.1	0.000000	0.000000	6.401035	15.787	NaN	0.000000	0.001562	0.001674	28.084	5.339364	0.002045	2611.53	14.5008	-172.022	15.4724	0.400361	0.019327	0.019038	15.787	2611.53	0.014793	0.015011	1051.71	19474.5
1185	2.000000	0.402129	7.37664e+06	-56339.1	1105.82	-29739.1	0.000000	0.000000	6.402566	17.0902	NaN	0.000000	0.001568	0.001674	28.0843	5.489829	0.002066	2657.1	13.1685	8.742286	16.376	0.401802	0.020805	0.020479	17.0902	2657.1	0.015981	0.016616	1028.52	18832.7
1185	2.000000	0.403686	7.37664e+06	-56339.1	1105.82	-29739.1	0.000000	0.000000	6.404168	18.1451	NaN	0.000000	0.001531	0.001673	28.084	5.520553	0.001999	2761.36	14.6186	-171.262	18.0543	0.403388	0.022363	0.022065	18.1451	2761.36	0.017435	0.018671	971.859	18463.6
1185	2.000000	0.405143	7.37664e+06	-56339.1	1105.82	-29739.1	0.000000	0.000000	6.405675	19.3818	NaN	0.000000	0.001531	0.001671	28.084	5.865936	0.001999	2934.38	8.829783	10.9727	19.0242	0.404791	0.023819	0.023468	19.3818	2934.38	0.018866	0.020791	932.219	18593.1
1185	2.000000	0.406651	7.37664e+06	-56339.1	1105.82	-29739.1	0.000000	0.000000	6.407225	20.3839	NaN	0.000000	0.001572	0.001684	28.0842	5.772850	0.002076	2780.55	12.8919	-169.957	20.2231	0.406300	0.025328	0.024977	20.3839	2780.55	0.019830	0.022275	915.082	17021.2
1185	2.000000	0.408128	7.37664e+06	-56339.1	1105.82	-29739.1	0.000000	0.000000	6.408758	21.7561	NaN	0.000000	0.001503	0.001683	28.0829	6.115750	0.002006	3048.01	10.4032	9.481834	21.2016	0.407805	0.026805	0.026482	21.7561	3048.01	0.021452	0.024875	874.629	17656.7
1185	2.000000	0.409687	7.37664e+06	-56339.1	1105.82	-29739.1	0.000000	0.000000	6.410377	23.2155	NaN	0.000000	0.001556	0.001646	28.083	6.110472	0.001959	3118.67	7.245138	-167.742	23.1289	0.409368	0.028364	0.028045	23.2155	3118.67	0.022781	0.027102	856.582	17307.7
1185	2.000000	0.411128	7.37664e+06	-56339.1	1105.82	-29739.1	0.000000	0.000000	6.411874	24.5726	NaN	0.000000	0.001569	0.001681	28.0828	5.821067	0.001831	3179.55	7.031507	12.7262	23.869	0.410805	0.029805	0.029482	24.5726	3179.55	0.024008	0.029236	840.479	16989.3
1185	2.000000	0.412670	7.37664e+06	-56339.1	1105.82	-29739.1	0.000000	0.000000	6.413480	26.1327	NaN	0.000000	0.001636	0.001663	28.0827	6.531457	0.002077	3144.65	9.755171	-168.639	26.1011	0.412307	0.031347	0.030983	26.1327	3144.65	0.025114	0.031224	836.949	16259.3
1185	2.000000	0.414167	7.37664e+06	-56339.1	1105.82	-29739.1	0.000000	0.000000	6.415020	27.1766	NaN	0.000000	0.001608	0.001687	28.0826	6.724683	0.002103	3197.62	11.8294	8.201853	27.2696	0.413835	0.032844	0.032511	27.1766	3197.62	0.026470	0.033744	805.371	15903.8
1185	2.000000	0.415630	7.37664e+06	-56339.1	1105.82	-29739.1	0.000000	0.000000	6.416512	27.9043	NaN	0.000000	0.001606	0.001667	28.0839	6.529134	0.002067	3158.52	10.8586	-169.507	27.5752	0.415308	0.034307	0.033985	27.9043	3158.52	0.027681	0.036073	773.542	15193.7
1185	2.000000	0.417144	7.37664e+06	-56339.1	1105.82	-29739.1	0.000000	0.000000	6.418057	28.649	NaN	0.000000	0.001595	0.001653	28.0828	6.004189	0.001931	3108.63	7.085265	13.0618	28.5415	0.416799	0.035821	0.035476	28.649	3108.63	0.028909	0.038512	743.894	14472.5
1185	2.000000	0.418682	7.37664e+06	-56339.1	1105.82	-29739.1	0.000000	0.000000	6.419658	30.1864	NaN	0.000000	0.001630	0.001677	28.0829	6.360560	0.001978	3215.61	7.980071	-169.134	30.3789	0.418316	0.037358	0.036993	30.1864	3215.61	0.030318	0.041405	729.049	14438.1
1185	2.000000	0.420131	7.37664e+06	-56339.1	1105.82	-29739.1	0.000000	0.000000	6.421122	30.5417	NaN	0.000000	0.001648	0.001683	28.0828	6.609815	0.001999	3306.9	8.693923	10.0544	30.1169	0.419785	0.038807	0.038462	30.5417	3306.9	0.031881	0.044732	682.772	14285.1
1185	2.000000	0.421632	7.37664e+06	-56339.1	1105.82	-29739.1	0.000000	0.000000	6.422642	31.0078	NaN	0.000000	0.001665	0.001661	28.0836	6.920994	0.002093	3307.44	12.4405	-170.39	31.6828	0.421337	0.040309	0.040014	31.0078	3307.44	0.033277	0.047810	648.557	13819.9
1185	2.000000	0.423129	7.37664e+06	-56339.1	1105.82	-29739.1	0.000000	0.000000	6.424147	31.2122	NaN	0.000000	0.001653	0.001644	28.0828	6.853518	0.001917	3575.33	11.054	9.509119	30.8839	0.422730	0.041805	0.041407	31.2122	3575.33	0.035258	0.052348	596.24	14277
1185	2.000000	0.424616	7.37664e+06	-56339.1	1105.82	-29739.1	0.000000	0.000000	6.425671	32.0904	NaN	0.000000	0.001627	0.001646	28.0828	6.869965	0.001888	3637.97	9.515681	-169.981	31.8346	0.424339	0.043293	0.043015	32.0904	3637.97	0.036677	0.055724	575.885	14080.3
1185	2.000000	0.426126	7.37664e+06	-56339.1	1105.82	-29739.1	0.000000	0.000000	6.427234	33.3963	NaN	0.000000	0.001620	0.001692	28.0836	7.174796	0.002147	3341.4	9.985701	10.2124	33.0673	0.425788	0.044802	0.044465	33.3963	3341.4	0.037306	0.057252	583.319	12758.7
1185	2.000000	0.427633	7.37664e+06	-56339.1	1105.82	-29739.1	0.000000	0.000000	6.428755	33.7169	NaN	0.000000	0.001637	0.001673	28.0828	7.178053	0.001924	3729.97	9.959523	-172.895	33.772	0.427324	0.046310	0.046001	33.7169	3729.97	0.039531	0.062821	536.714	13596.5
1185	2.000000	0.429139	7.37664e+06	-56339.1	1105.82	-29739.1	0.000000	0.000000	6.430265	33.8229	NaN	0.000000	0.001632	0.001665	28.0829	7.153256	0.001910	3744.21	10.4469	10.1695	33.583	0.428787	0.047816	0.047464	33.8229	3744.21	0.041041	0.066745	506.746	13241.1
1185	2.000000	0.430616	7.37664e+06	-56339.1	1105.82	-29739.1	0.000000	0.000000	6.431754	34.0966	NaN	0.000000	0.001573	0.001654	28.0828	7.356200	0.002050	3588.4	9.902899	-169.505	34.1774	0.430337	0.049293	0.049014	34.0966	3588.4	0.042166	0.069747	488.862	12414
1185	2.000000	0.432120	7.37664e+06	-56339.1	1105.82	-29739.1	0.000000	0.000000	6.433311	35.4053	NaN	0.000000	0.001581	0.001665	28.0828	7.264217	0.001897	3828.36	9.908338	7.136900	35.0716	0.431730	0.050797	0.050407	35.4053	3828.36	0.043860	0.074385	475.973	12824.6
1185	2.000000	0.433620	7.37664e+06	-56339.1	1105.82	-29739.1	0.000000	0.000000	6.434822	35.6455	NaN	0.000000	0.001528	0.001677	28.0828	7.284520	0.002068	3522.32	7.532532	-168.334	35.5864	0.433346	0.052297	0.052023	35.6455	3522.32	0.044707	0.076758	464.387	11615.6
1185	2.000000	0.435123	7.37664e+06	-56339.1	1105.82	-29739.1	0.000000	0.000000	6.436326	35.6834	NaN	0.000000	0.001540	0.001689	28.0827	7.448490	0.001996	3731.9	8.303373	11.8261	35.7361	0.434775	0.053800	0.053452	35.6834	3731.9	0.046629	0.082278	433.692	11886.7
1185	2.000000	0.436648	7.37664e+06	-56339.1	1105.82	-29739.1	0.000000	0.000000	6.437865	36.0441	NaN	0.000000	0.001484	0.001686	28.0834	7.380014	0.002041	3615.34	7.030538	-166.513	36.3436	0.436309	0.055324	0.054986	36.0441	3615.34	0.047847	0.085875	419.727	11271.7
1185	2.000000	0.438118	7.37664e+06	-56339.1	1105.82	-29739.1	0.000000	0.000000	6.439343	36.2215	NaN	0.000000	0.001508	0.001654	28.0828	7.449595	0.001912	3896.19	7.334137	9.857381	36.4011	0.437753	0.056795	0.056429	36.2215	3896.19	0.049822	0.091865	394.292	11744.6
1185	2.000000	0.439629	7.37664e+06	-56339.1	1105.82	-29739.1	0.000000	0.000000	6.440871	36.6412	NaN	0.000000	0.001501	0.001688	28.083	7.536902	0.002072	3637.15	9.929948	-170.117	36.9035	0.439311	0.058306	0.057987	36.6412	3637.15	0.050750	0.094745	386.734	10795.8
1185	2.000000	0.441125	7.37664e+06	-56339.1	1105.82	-29739.1	0.000000	0.000000	6.442402	37.4893	NaN	0.000000	0.001503	0.001647	28.083	7.452562	0.001921	3879.73	4.610960	14.4724	37.3872	0.440690	0.059802	0.059366	37.4893	3879.73	0.052555	0.100473	373.129	11182.8
1185	2.000000	0.442625	7.37664e+06	-56339.1	1105.82	-29739.1	0.000000	0.000000	6.443920	37.9252	NaN	0.000000	0.001480	0.001649	28.0842	7.893949	0.002001	3945.5	10.5282	-171.121	37.9213	0.442284	0.061302	0.060961	37.9252	3945.5	0.054093	0.105483	359.54	11099
1185	2.000000	0.444126	7.37664e+06	-56339.1	1105.82	-29739.1	0.000000	0.000000	6.445449	38.6018	NaN	0.000000	0.001488	0.001663	28.084	7.831992	0.002026	3866.15	9.829438	9.219358	38.5726	0.443761	0.062803	0.062438	38.6018	3866.15	0.055315	0.109546	352.381	10672.2
1185	2.000000	0.445618	7.37664e+06	-56339.1	1105.82	-29739.1	0.000000	0.000000	6.446927	38.2507	NaN	0.000000	0.001484	0.001672	28.0841	7.644992	0.001886	4053.1	6.366688	-167.466	38.4156	0.445337	0.064295	0.064014	38.2507	4053.1	0.057217	0.116018	329.697	10871.7
1185	2.000000	0.447097	7.37664e+06	-56339.1	1105.82	-29739.1	0.000000	0.000000	6.448384	37.7267	NaN	0.000000	0.001521	0.001652	28.0844	8.056634	0.002096	3844.49	10.8033	9.176033	37.7872	0.446798	0.065774	0.065475	37.7267	3844.49	0.058414	0.120183	313.91	10131.9
1185	2.000000	0.448600	7.37664e+06	-56339.1	1105.82	-29739.1	0.000000	0.000000	6.449929	38.7437	NaN	0.000000	0.001487	0.001658	28.084	8.126151	0.001984	4095.62	9.165948	-171.065	39.0808	0.448265	0.067277	0.066941	38.7437	4095.62	0.060182	0.126463	306.363	10522.3
1185	2.000000	0.450114	7.37664e+06	-56339.1	1105.82	-29739.1	0.000000	0.000000	6.451482	39.7221	NaN	0.000000	0.001510	0.001635	28.0842	8.014632	0.001975	4057.1	9.428886	10.2486	39.5876	0.449801	0.068790	0.068478	39.7221	4057.1	0.061447	0.131049	303.109	10239.3
1185	2.000000	0.451620	7.37664e+06	-56339.1	1105.82	-29739.1	0.000000	0.000000	6.453024	40.5627	NaN	0.000000	0.001513	0.001635	28.0842	8.072135	0.001955	4128.88	9.917821	-171.952	40.6568	0.451259	0.070297	0.069936	40.5627	4128.88	0.062929	0.136521	297.117	10209.5
1185	2.000000	0.453111	7.37664e+06	-56339.1	1105.82	-29739.1	0.000000	0.000000	6.454521	40.7043	NaN	0.000000	0.001503	0.001661	28.0843	7.931675	0.001894	4187.47	6.726234	10.4228	40.6739	0.452737	0.071788	0.071414	40.7043	4187.47	0.064498	0.142428	285.788	10137.4
1185	2.000000	0.454599	7.37664e+06	-56339.1	1105.82	-29739.1	0.000000	0.000000	6.456029	41.2041	NaN	0.000000	0.001543	0.001678	28.0842	8.333792	0.001927	4325.11	9.109319	-172.516	41.1178	0.454299	0.073275	0.072976	41.2041	4325.11	0.066130	0.148704	277.088	10247.3
1185	2.000000	0.456103	7.37664e+06	-56339.1	1105.82	-29739.1	0.000000	0.000000	6.457520	40.9042	NaN	0.000000	0.001546	0.001646	28.0845	8.437393	0.002154	3916.51	8.454632	10.919	40.8753	0.455707	0.074779	0.074383	40.9042	3916.51	0.066946	0.151889	269.304	9181.42
1185	2.000000	0.457589	7.37664e+06	-56339.1	1105.82	-29739.1	0.000000	0.000000	6.459007	40.9078	NaN	0.000000	0.001565	0.001661	28.0844	8.399599	0.001914	4388.82	6.553526	-169.366	41.1379	0.457312	0.076266	0.075989	40.9078	4388.82	0.069275	0.161153	253.845	9988.53
1185	2.000000	0.459093	7.37664e+06	-56339.1	1105.82	-29739.1	0.000000	0.000000	6.460486	40.3037	NaN	0.000000	0.001562	0.001671	28.0839	8.710924	0.001966	4430.19	13.6535	5.891012	40.6424	0.458738	0.077770	0.077415	40.3037	4430.19	0.070947	0.167962	239.957	9876.21
1185	2.000000	0.460592	7.37664e+06	-56339.1	1105.82	-29739.1	0.000000	0.000000	6.461917	38.6563	NaN	0.000000	0.001525	0.001696	28.0843	8.532198	0.002042	4177.42	10.85	-171.3	38.8854	0.460352	0.079268	0.079029	38.6563	4177.42	0.072328	0.173688	222.562	9157.93
1185	2.000000	0.462085	7.37664e+06	-56339.1	1105.82	-29739.1	0.000000	0.000000	6.463420	38.8962	NaN	0.000000	0.001554	0.001689	28.0843	8.410638	0.002101	4003.58	10.1182	11.7479	38.8851	0.461784	0.080762	0.080461	38.8962	4003.58	0.073475	0.178512	217.891	8657.4
1185	2.000000	0.463558	7.37664e+06	-56339.1	1105.82	-29739.1	0.000000	0.000000	6.464886	38.7191	NaN	0.000000	0.001590	0.001671	28.0843	8.358515	0.002029	4120.29	9.871067	-170.622	38.4545	0.463269	0.082235	0.081946	38.7191	4120.29	0.075187	0.185825	208.363	8732.7
1185	2.000000	0.465082	7.37664e+06	-56339.1	1105.82	-29739.1	0.000000	0.000000	6.466455	39.8214	NaN	0.000000	0.001595	0.001681	28.0846	8.289222	0.001895	4373.86	5.559541	12.6216	39.418	0.464702	0.083759	0.083379	39.8214	4373.86	0.076931	0.193418	205.882	9086.35
1185	2.000000	0.466562	7.37664e+06	-56339.1	1105.82	-29739.1	0.000000	0.000000	6.467951	40.2034	NaN	0.000000	0.001583	0.001684	28.0846	8.396762	0.002003	4192.74	9.155954	-168.586	40.0872	0.466225	0.085239	0.084902	40.2034	4192.74	0.078047	0.198355	202.684	8601
1185	2.000000	0.468077	7.37664e+06	-56339.1	1105.82	-29739.1	0.000000	0.000000	6.469492	40.8406	NaN	0.000000	0.001580	0.001687	28.0843	8.616869	0.001909	4514.82	11.2004	7.209615	40.3568	0.467695	0.086754	0.086372	40.8406	4514.82	0.079969	0.206989	197.308	9066.5
1185	2.000000	0.469594	7.37664e+06	-56339.1	1105.82	-29739.1	0.000000	0.000000	6.471007	40.8122	NaN	0.000000	0.001604	0.001673	28.0844	8.656931	0.001949	4441.68	8.922488	-171.177	40.9451	0.469307	0.088270	0.087984	40.8122	4441.68	0.081379	0.213431	191.219	8783.98
1185	2.000000	0.471084	7.37664e+06	-56339.1	1105.82	-29739.1	0.000000	0.000000	6.472503	40.9561	NaN	0.000000	0.001578	0.001680	28.0844	8.741149	0.002004	4362.94	8.319315	9.376301	40.8243	0.470723	0.089760	0.089399	40.9561	4362.94	0.082720	0.219645	186.465	8505.33
1185	2.000000	0.472554	7.37664e+06	-56339.1	1105.82	-29739.1	0.000000	0.000000	6.473991	41.3686	NaN	0.000000	0.001590	0.001682	28.0847	8.525104	0.001872	4554.66	8.431904	-170.14	41.1452	0.472245	0.091231	0.090922	41.3686	4554.66	0.084419	0.227636	181.732	8721.85
1185	2.000000	0.474056	7.37664e+06	-56339.1	1105.82	-29739.1	0.000000	0.000000	6.475477	40.9899	NaN	0.000000	0.001558	0.001682	28.0845	8.773423	0.002082	4213.49	9.019582	10.4202	40.5384	0.473743	0.092733	0.092420	40.9899	4213.49	0.085437	0.232489	176.309	7983.88
1185	2.000000	0.475578	7.37664e+06	-56339.1	1105.82	-29739.1	0.000000	0.000000	6.477027	41.6695	NaN	0.000000	0.001556	0.001655	28.0837	9.013134	0.002008	4488.12	12.2621	-172.319	42.2364	0.475278	0.094254	0.093955	41.6695	4488.12	0.087291	0.241452	172.579	8344.93
1185	2.000000	0.477046	7.37664e+06	-56339.1	1105.82	-29739.1	0.000000	0.000000	6.478521	42.3014	NaN	0.000000	0.001578	0.001686	28.0831	8.577098	0.002007	4274.27	9.397865	10.1188	41.4951	0.476687	0.095723	0.095364	42.3014	4274.27	0.088300	0.246396	171.681	7867.18
1185	2.000000	0.478580	7.37664e+06	-56339.1	1105.82	-29739.1	0.000000	0.000000	6.480043	41.9993	NaN	0.000000	0.001576	0.001628	28.0831	8.832888	0.001934	4566.31	12.6416	-174.094	42.0561	0.478273	0.097257	0.096949	41.9993	4566.31	0.090359	0.256626	163.66	8235.47
1185	2.000000	0.480052	7.37664e+06	-56339.1	1105.82	-29739.1	0.000000	0.000000	6.481535	42.5104	NaN	0.000000	0.001574	0.001674	28.0831	8.886307	0.001872	4748.1	11.1921	6.022693	42.6199	0.479746	0.098729	0.098422	42.5104	4748.1	0.092014	0.264992	160.422	8427.08
1185	2.000000	0.481545	7.37664e+06	-56339.1	1105.82	-29739.1	0.000000	0.000000	6.483014	42.1419	NaN	0.000000	0.001609	0.001688	28.0829	8.883247	0.001924	4617.29	10.5946	-171.57	41.9293	0.481261	0.100222	0.099938	42.1419	4617.29	0.093377	0.271977	154.947	8088.99
1185	2.000000	0.483059	7.37664e+06	-56339.1	1105.82	-29739.1	0.000000	0.000000	6.484526	42.0898	NaN	0.000000	0.001577	0.001667	28.0832	9.233857	0.002028	4553.59	7.871190	11.2826	41.7268	0.482729	0.101736	0.101405	42.0898	4553.59	0.094804	0.279378	150.655	7871.01
1185	2.000000	0.483534	7.37664e+06	-56339.1	1105.82	-29739.1	0.000000	0.000000	6.485028	42.7809	NaN	0.000000	0.001556	0.001661	28.0828	9.177502	0.001935	4742.1	7.696590	-169.063	42.3712	0.483245	0.102210	0.101922	42.7809	4742.1	0.095444	0.282732	151.313	8148.1