File: remote_trans/data/nanoindenter/0828-1/data/Data_2025-08-06,11h17m57s/2025-07-22_16-23-58_1_181.txt
2025-07-22, 16:23:58, 1
Index	Phase	Displacement	Time	Pos X	Pos Y	Pos Z	Rot A	Rot B	Piezo Z	Force A	Force B	Gripper	Voltage A	Voltage B	Temperature	Amplitude force	Amplitude pos	Stiffness	Phase shift	Phase excitation	Force A raw	Displacement raw	HMax	HMax raw	Real Force	Real Stiffness	Contact Depth	Area	Hardness	Reduced Mod.
[#]	[#]	[um]	[s]	[um]	[um]	[um]	[m°]	[m°]	[um]	[uN]	[uN]	[V]	[V]	[V]	[°C]	[uN]	[um]	[N/m]	[°]	[°]	[uN]	[um]	[um]	[um]	[uN]	[N/m]	[um]	[um^2]	[MPa]	[MPa]
181	1.000000	0.002268	7.36681e+06	-47689.1	955.819	-29764.9	0.000000	0.000000	6.002816	-0.033954	NaN	0.000000	0.001623	0.001691	28.0823	0.073995	0.000971	76.2311	-155.708	-167.387	0.027644	0.000948	-1.768728	-1.770048	-0.033954	76.2311	-1.768394	-4.117822E+23	8.245659E-26	NaN
181	1.000000	0.014285	7.36681e+06	-47689.1	955.818	-29764.9	0.000000	0.000000	6.014837	0.073192	NaN	0.000000	0.001642	0.001659	28.1194	0.099981	0.001750	57.1387	23.3295	-167.346	0.033806	0.013077	-1.756711	-1.757919	0.073192	57.1387	-1.757672	-2.967061E+23	-2.466828E-25	NaN
181	1.000000	0.026241	7.36681e+06	-47689.1	955.819	-29764.9	0.000000	0.000000	6.026791	0.031832	NaN	0.000000	0.001624	0.001667	28.0842	0.043549	0.001955	22.2791	129.541	-166.851	-0.083076	0.024918	-1.744756	-1.746079	0.031832	22.2791	-1.745827	-2.065708E+23	-1.540962E-25	NaN
181	1.000000	0.038223	7.36681e+06	-47689.1	955.818	-29764.9	0.000000	0.000000	6.038771	-0.040165	NaN	0.000000	0.001621	0.001660	28.1186	0.027001	0.001952	13.8359	9.106170	-166.22	0.010096	0.036926	-1.732773	-1.734071	-0.040165	13.8359	-1.730596	-1.296633E+23	3.097621E-25	NaN
181	1.000000	0.050224	7.36681e+06	-47689.1	955.818	-29764.9	0.000000	0.000000	6.050774	0.032388	NaN	0.000000	0.001600	0.001670	28.0822	0.015128	0.002016	7.504776	-18.7765	-166.021	0.000747	0.048922	-1.720773	-1.722075	0.032388	7.504776	-1.724009	-1.060093E+23	-3.055231E-25	NaN
181	1.000000	0.062191	7.36681e+06	-47689.1	955.819	-29764.9	0.000000	0.000000	6.062742	0.033035	NaN	0.000000	0.001601	0.001685	28.1172	0.069234	0.001907	36.3133	108.643	-165.295	0.005724	0.060921	-1.708805	-1.710075	0.033035	36.3133	-1.709488	-6.799364E+22	-4.858495E-25	NaN
181	1.000000	0.074219	7.36681e+06	-47689.1	955.817	-29764.9	0.000000	0.000000	6.074768	0.021168	NaN	0.000000	0.001605	0.001703	28.0817	0.052167	0.002054	25.3977	-38.4768	-163.585	0.028435	0.072901	-1.696778	-1.698096	0.021168	25.3977	-1.697403	-4.698304E+22	-4.505370E-25	NaN
181	1.000000	0.086201	7.36681e+06	-47689.1	955.818	-29764.9	0.000000	0.000000	6.086750	-0.004500	NaN	0.000000	0.001641	0.001652	28.1178	0.059087	0.002041	28.9547	143.87	-165.778	0.036077	0.084908	-1.684796	-1.686088	-0.004500	28.9547	-1.684679	-3.183424E+22	1.413717E-25	NaN
181	1.000000	0.098214	7.36681e+06	-47689.1	955.818	-29764.9	0.000000	0.000000	6.098765	0.052022	NaN	0.000000	0.001622	0.001711	28.0826	0.035288	0.001930	18.2796	-101.675	-171.728	0.087362	0.096935	-1.672783	-1.674062	0.052022	18.2796	-1.674917	-2.361461E+22	-2.202949E-24	NaN
181	1.000000	0.110264	7.36681e+06	-47689.1	955.818	-29764.9	0.000000	0.000000	6.110813	0.002129	NaN	0.000000	0.001601	0.001663	28.1175	0.158730	0.002059	77.0778	30.8731	-166.516	0.018855	0.108886	-1.660733	-1.662111	0.002129	77.0778	-1.660754	-1.530954E+22	-1.390603E-25	NaN
181	1.000000	0.122241	7.36681e+06	-47689.1	955.818	-29764.9	0.000000	0.000000	6.122793	0.078908	NaN	0.000000	0.001577	0.001646	28.0828	0.037437	0.001933	19.3689	-26.1298	-166.972	0.010132	0.120905	-1.648756	-1.650092	0.078908	19.3689	-1.651811	-1.164404E+22	-6.776717E-24	NaN
181	1.000000	0.134215	7.36681e+06	-47689.1	955.818	-29764.9	0.000000	0.000000	6.134765	0.034888	NaN	0.000000	0.001600	0.001697	28.1159	0.015379	0.001941	7.921633	-176.069	-165.26	0.043037	0.132980	-1.636782	-1.638017	0.034888	7.921633	-1.640085	-8.132588E+21	-4.289866E-24	NaN
181	1.000000	0.146193	7.36681e+06	-47689.1	955.817	-29764.8	0.000000	0.000000	6.146747	0.122786	NaN	0.000000	0.001621	0.001648	28.0808	0.040692	0.001895	21.4729	-145.991	-167.505	0.057359	0.144918	-1.624804	-1.626079	0.122786	21.4729	-1.629092	-5.808843E+21	-2.113773E-23	NaN
181	1.000000	0.158229	7.36681e+06	-47689.1	955.818	-29764.8	0.000000	0.000000	6.158780	0.037819	NaN	0.000000	0.001643	0.001660	28.116	0.040770	0.001935	21.0667	-109.498	-167.343	-0.047177	0.156938	-1.612767	-1.614059	0.037819	21.0667	-1.614114	-3.672198E+21	-1.029872E-23	NaN
181	1.000000	0.170261	7.36681e+06	-47689.1	955.818	-29764.8	0.000000	0.000000	6.170808	-0.051614	NaN	0.000000	0.001598	0.001682	28.0807	0.102694	0.001922	53.4201	74.2893	-166.583	0.022462	0.168965	-1.600736	-1.602032	-0.051614	53.4201	-1.600011	-2.384354E+21	2.164677E-23	NaN
181	1.000000	0.182260	7.36681e+06	-47689.1	955.817	-29764.8	0.000000	0.000000	6.182809	-0.018595	NaN	0.000000	0.001596	0.001648	28.118	0.104694	0.001900	55.1103	-147.465	-168.733	0.058123	0.180944	-1.588736	-1.590053	-0.018595	55.1103	-1.588483	-1.675084E+21	1.110065E-23	NaN
181	1.000000	0.194262	7.36681e+06	-47689.1	955.819	-29764.8	0.000000	0.000000	6.194812	0.038191	NaN	0.000000	0.001593	0.001652	28.0828	0.074965	0.002042	36.7071	-9.330278	-166.549	0.111205	0.192955	-1.576735	-1.578041	0.038191	36.7071	-1.577515	-1.197102E+21	-3.190270E-23	NaN
181	1.000000	0.206244	7.36681e+06	-47689.1	955.818	-29764.8	0.000000	0.000000	6.206793	-0.001073	NaN	0.000000	0.001581	0.001651	28.1169	0.123214	0.001968	62.6133	84.2153	-162.969	0.100285	0.204944	-1.564753	-1.566053	-0.001073	62.6133	-1.564740	-8.093809E+20	1.325281E-24	NaN
181	1.000000	0.218254	7.36681e+06	-47689.1	955.817	-29764.8	0.000000	0.000000	6.218805	0.048045	NaN	0.000000	0.001595	0.001645	28.082	0.071485	0.002140	33.3993	-68.9567	-166.058	0.003841	0.216980	-1.552742	-1.554017	0.048045	33.3993	-1.553821	-5.792275E+20	-8.294635E-23	NaN
181	1.000000	0.230278	7.36681e+06	-47689.1	955.818	-29764.8	0.000000	0.000000	6.230825	-0.039271	NaN	0.000000	0.001582	0.001668	28.1171	0.011376	0.001940	5.863035	-32.5663	-167.015	0.035113	0.229006	-1.540719	-1.541990	-0.039271	5.863035	-1.535695	-3.323484E+20	1.181636E-22	NaN
181	1.000000	0.242277	7.36681e+06	-47689.1	955.817	-29764.8	0.000000	0.000000	6.242827	0.008087	NaN	0.000000	0.001617	0.001657	28.0827	0.081345	0.001997	40.738	4.763964	-165.113	0.035461	0.240989	-1.528719	-1.530007	0.008087	40.738	-1.528868	-2.695934E+20	-2.999637E-23	NaN
181	1.000000	0.254309	7.36681e+06	-47689.1	955.817	-29764.8	0.000000	0.000000	6.254860	0.060938	NaN	0.000000	0.001592	0.001690	28.1199	0.044186	0.002078	21.2653	61.7654	-169.448	-0.009143	0.253049	-1.516688	-1.517948	0.060938	21.2653	-1.518837	-1.982259E+20	-3.074154E-22	NaN
181	1.000000	0.266284	7.36681e+06	-47689.1	955.818	-29764.8	0.000000	0.000000	6.266833	-0.005144	NaN	0.000000	0.001593	0.001698	28.0848	0.048707	0.002026	24.0399	113.495	-164.504	0.061342	0.265023	-1.504713	-1.505974	-0.005144	24.0399	-1.504552	-1.279207E+20	4.020975E-23	NaN
181	1.000000	0.278296	7.36681e+06	-47689.1	955.818	-29764.8	0.000000	0.000000	6.278848	0.081354	NaN	0.000000	0.001599	0.001689	28.1188	0.075976	0.002017	37.6763	142.158	-168.452	0.017203	0.277037	-1.492701	-1.493959	0.081354	37.6763	-1.494320	-9.346820E+19	-8.703874E-22	NaN
181	1.000000	0.290302	7.36681e+06	-47689.1	955.817	-29764.8	0.000000	0.000000	6.290855	0.107942	NaN	0.000000	0.001610	0.001698	28.084	0.078418	0.001951	40.1878	94.6566	-166.969	0.050092	0.288974	-1.480695	-1.482023	0.107942	40.1878	-1.482710	-6.546407E+19	-1.648880E-21	NaN
181	1.000000	0.302301	7.36681e+06	-47689.1	955.818	-29764.8	0.000000	0.000000	6.302852	0.052143	NaN	0.000000	0.001582	0.001669	28.1175	0.147460	0.001992	74.0422	91.6394	-167.502	0.081075	0.301001	-1.468695	-1.469996	0.052143	74.0422	-1.469223	-4.328400E+19	-1.204675E-21	NaN
181	1.000000	0.314324	7.36681e+06	-47689.1	955.818	-29764.8	0.000000	0.000000	6.314875	0.049607	NaN	0.000000	0.001598	0.001659	28.0789	0.057581	0.002055	28.0245	114.203	-165.003	0.016264	0.312961	-1.456672	-1.458035	0.049607	28.0245	-1.458000	-3.067375E+19	-1.617244E-21	NaN
181	1.000000	0.326326	7.36681e+06	-47689.1	955.818	-29764.8	0.000000	0.000000	6.326877	0.049604	NaN	0.000000	0.001582	0.001657	28.0793	0.067190	0.002016	33.3317	90.9691	-163.659	0.073592	0.325028	-1.444670	-1.445969	0.049604	33.3317	-1.445786	-2.108554E+19	-2.352505E-21	NaN
181	1.000000	0.338307	7.36681e+06	-47689.1	955.818	-29764.8	0.000000	0.000000	6.338854	-0.027489	NaN	0.000000	0.001612	0.001675	28.0766	0.098546	0.002071	47.5933	66.4289	-164.937	-0.001332	0.337010	-1.432690	-1.433986	-0.027489	47.5933	-1.432257	-1.391963E+19	1.974871E-21	NaN
181	1.000000	0.350333	7.36681e+06	-47689.1	955.818	-29764.8	0.000000	0.000000	6.350882	0.025644	NaN	0.000000	0.001670	0.001647	28.0764	0.045623	0.002007	22.729	-56.1726	-167.946	0.005539	0.349013	-1.420664	-1.421983	0.025644	22.729	-1.421510	-1.000789E+19	-2.562339E-21	NaN
181	1.000000	0.362309	7.36681e+06	-47689.1	955.819	-29764.8	0.000000	0.000000	6.362859	0.020505	NaN	0.000000	0.001676	0.001654	28.0765	0.055306	0.001987	27.8279	-151.713	-165.599	-0.006064	0.361041	-1.408688	-1.409956	0.020505	27.8279	-1.409240	-6.866127E+18	-2.986361E-21	NaN
181	1.000000	0.374366	7.36681e+06	-47689.1	955.819	-29764.8	0.000000	0.000000	6.374913	-0.053130	NaN	0.000000	0.001647	0.001658	28.0762	0.080686	0.001945	41.4802	-123.044	-165.25	0.020059	0.373061	-1.396631	-1.397936	-0.053130	41.4802	-1.395670	-4.525916E+18	1.173907E-20	NaN
181	1.000000	0.386358	7.36681e+06	-47689.1	955.818	-29764.8	0.000000	0.000000	6.386910	0.061253	NaN	0.000000	0.001633	0.001671	28.0764	0.069021	0.001927	35.8118	-33.6469	-167.753	0.144408	0.385024	-1.384638	-1.385973	0.061253	35.8118	-1.385921	-3.354619E+18	-1.825944E-20	NaN
181	1.000000	0.398361	7.36681e+06	-47689.1	955.817	-29764.8	0.000000	0.000000	6.398912	0.051389	NaN	0.000000	0.001585	0.001718	28.0763	0.097046	0.002023	47.9769	160.802	-164.114	0.036525	0.397047	-1.372635	-1.373950	0.051389	47.9769	-1.373439	-2.286044E+18	-2.247926E-20	NaN
181	1.000000	0.410356	7.36681e+06	-47689.1	955.818	-29764.8	0.000000	0.000000	6.410905	0.004151	NaN	0.000000	0.001641	0.001670	28.0787	0.039073	0.002002	19.5214	-54.9305	-166.238	-0.033535	0.409108	-1.360641	-1.361889	0.004151	19.5214	-1.360800	-1.550248E+18	-2.677343E-21	NaN
181	1.000000	0.422336	7.36681e+06	-47689.1	955.818	-29764.8	0.000000	0.000000	6.422886	0.039017	NaN	0.000000	0.001650	0.001648	28.0769	0.029035	0.002091	13.8847	170.023	-164.998	0.060990	0.421079	-1.348661	-1.349918	0.039017	13.8847	-1.350769	-1.138913E+18	-3.425853E-20	NaN
181	1.000000	0.434372	7.36681e+06	-47689.1	955.817	-29764.8	0.000000	0.000000	6.434922	0.014392	NaN	0.000000	0.001571	0.001660	28.0767	0.063951	0.002016	31.7246	-136.214	-167.88	0.055060	0.433026	-1.336624	-1.337971	0.014392	31.7246	-1.336964	-7.450361E+17	-1.931769E-20	NaN
181	1.000000	0.446341	7.36681e+06	-47689.1	955.819	-29764.8	0.000000	0.000000	6.446890	0.002790	NaN	0.000000	0.001569	0.001675	28.0779	0.110286	0.002027	54.4214	82.0644	-166.729	-0.025259	0.445038	-1.324655	-1.325959	0.002790	54.4214	-1.324694	-5.108569E+17	-5.460970E-21	NaN
181	1.000000	0.458409	7.36681e+06	-47689.1	955.819	-29764.8	0.000000	0.000000	6.458957	-0.035944	NaN	0.000000	0.001545	0.001662	28.0785	0.163111	0.002041	79.9015	88.3966	-165.738	-0.070201	0.457067	-1.312587	-1.313929	-0.035944	79.9015	-1.312250	-3.483965E+17	1.031698E-19	NaN
181	1.000000	0.470391	7.36681e+06	-47689.1	955.818	-29764.8	0.000000	0.000000	6.470940	0.011046	NaN	0.000000	0.001570	0.001664	28.0778	0.060114	0.002093	28.7201	-124.674	-165.924	0.030990	0.469060	-1.300606	-1.301937	0.011046	28.7201	-1.300894	-2.456656E+17	-4.496440E-20	NaN
181	1.000000	0.482379	7.36681e+06	-47689.1	955.818	-29764.8	0.000000	0.000000	6.482930	0.067217	NaN	0.000000	0.001557	0.001670	28.0778	0.048392	0.002018	23.9758	92.0932	-166.084	0.018606	0.481014	-1.288618	-1.289983	0.067217	23.9758	-1.290721	-1.796338E+17	-3.741868E-19	NaN
181	1.000000	0.494370	7.36681e+06	-47689.1	955.817	-29764.8	0.000000	0.000000	6.494918	-0.033429	NaN	0.000000	0.001534	0.001655	28.0779	0.069008	0.002042	33.7926	85.694	-165.779	-0.041973	0.493087	-1.276626	-1.277910	-0.033429	33.7926	-1.275884	-1.137803E+17	2.938017E-19	NaN
181	1.000000	0.506415	7.36681e+06	-47689.1	955.818	-29764.8	0.000000	0.000000	6.506965	0.038828	NaN	0.000000	0.001549	0.001694	28.0778	0.046982	0.002000	23.4856	-124.927	-166.509	0.047054	0.505121	-1.264582	-1.265876	0.038828	23.4856	-1.265822	-8.346860E+16	-4.651800E-19	NaN
181	1.000000	0.518417	7.36681e+06	-47689.1	955.819	-29764.8	0.000000	0.000000	6.518968	0.064914	NaN	0.000000	0.001527	0.001655	28.0781	0.090092	0.002045	44.0576	139.199	-164.762	0.122445	0.517138	-1.252580	-1.253858	0.064914	44.0576	-1.253685	-5.743933E+16	-1.130137E-18	NaN
181	1.000000	0.530408	7.36681e+06	-47689.1	955.819	-29764.8	0.000000	0.000000	6.530960	0.074981	NaN	0.000000	0.001517	0.001675	28.0778	0.088341	0.001982	44.5797	-103.855	-164.386	0.028791	0.529154	-1.240589	-1.241843	0.074981	44.5797	-1.241850	-3.989326E+16	-1.879540E-18	NaN
181	1.000000	0.542409	7.36681e+06	-47689.1	955.819	-29764.8	0.000000	0.000000	6.542961	0.067569	NaN	0.000000	0.001546	0.001666	28.0783	0.020543	0.002144	9.583099	-45.6152	-167.403	-0.012916	0.541115	-1.228587	-1.229882	0.067569	9.583099	-1.233875	-3.120310E+16	-2.165449E-18	NaN
181	1.000000	0.554433	7.36681e+06	-47689.1	955.818	-29764.8	0.000000	0.000000	6.554983	0.030818	NaN	0.000000	0.001534	0.001675	28.0778	0.085400	0.001947	43.8516	-124.635	-167.556	0.009483	0.553100	-1.216564	-1.217897	0.030818	43.8516	-1.217091	-1.860213E+16	-1.656708E-18	NaN
181	1.000000	0.566438	7.36681e+06	-47689.1	955.818	-29764.8	0.000000	0.000000	6.566989	0.061495	NaN	0.000000	0.001578	0.001684	28.0778	0.047772	0.001961	24.3564	-79.6125	-164.742	0.065529	0.565148	-1.204559	-1.205848	0.061495	24.3564	-1.206453	-1.340135E+16	-4.588742E-18	NaN
181	1.000000	0.578409	7.36681e+06	-47689.1	955.817	-29764.8	0.000000	0.000000	6.578959	0.032641	NaN	0.000000	0.001539	0.001669	28.0777	0.070943	0.001904	37.2665	68.6337	-164.645	0.005473	0.577138	-1.192588	-1.193858	0.032641	37.2665	-1.193245	-8.918286E+15	-3.659971E-18	NaN
181	1.000000	0.590421	7.36681e+06	-47689.1	955.818	-29764.8	0.000000	0.000000	6.590971	0.021917	NaN	0.000000	0.001561	0.001681	28.0768	0.058409	0.002064	28.3023	27.713	-167.914	0.021236	0.589172	-1.180576	-1.181825	0.021917	28.3023	-1.181157	-6.142783E+15	-3.567911E-18	NaN
181	1.000000	0.602434	7.36681e+06	-47689.1	955.817	-29764.8	0.000000	0.000000	6.602986	0.074991	NaN	0.000000	0.001582	0.001703	28.0766	0.128163	0.002051	62.5001	107.784	-166.181	0.037472	0.601149	-1.168563	-1.169847	0.074991	62.5001	-1.169463	-4.282424E+15	-1.751131E-17	NaN
181	1.000000	0.614441	7.36681e+06	-47689.1	955.818	-29764.8	0.000000	0.000000	6.614994	0.091624	NaN	0.000000	0.001618	0.001693	28.0769	0.025315	0.001960	12.9185	148.88	-164.419	0.180678	0.613112	-1.156555	-1.157885	0.091624	12.9185	-1.161875	-3.388389E+15	-2.704053E-17	NaN
181	1.000000	0.626421	7.36681e+06	-47689.1	955.819	-29764.8	0.000000	0.000000	6.626972	0.042340	NaN	0.000000	0.001631	0.001662	28.0766	0.024530	0.002004	12.2387	-30.7696	-166.45	0.011821	0.625170	-1.144576	-1.145826	0.042340	12.2387	-1.147170	-2.152199E+15	-1.967312E-17	NaN
181	1.000000	0.638459	7.36681e+06	-47689.1	955.818	-29764.8	0.000000	0.000000	6.639007	-0.026958	NaN	0.000000	0.001626	0.001654	28.0764	0.011923	0.001910	6.243157	-138.034	-166.403	-6.155929E-6	0.637165	-1.132538	-1.133832	-0.026958	6.243157	-1.129299	-1.239434E+15	2.175053E-17	NaN
181	1.000000	0.650439	7.36681e+06	-47689.1	955.818	-29764.8	0.000000	0.000000	6.650987	-0.023822	NaN	0.000000	0.001605	0.001684	28.0762	0.107438	0.001986	54.0914	22.7099	-166.721	-0.032596	0.649144	-1.120558	-1.121853	-0.023822	54.0914	-1.120228	-9.365427E+14	2.543661E-17	NaN
181	1.000000	0.662436	7.36681e+06	-47689.1	955.819	-29764.8	0.000000	0.000000	6.662983	-0.035232	NaN	0.000000	0.001629	0.001686	28.0763	0.098357	0.002007	49.008	-84.7817	-165.751	-0.056064	0.661154	-1.108561	-1.109843	-0.035232	49.008	-1.108022	-6.423035E+14	5.485190E-17	NaN
181	1.000000	0.674478	7.36681e+06	-47689.1	955.818	-29764.8	0.000000	0.000000	6.675028	0.017106	NaN	0.000000	0.001633	0.001696	28.0763	0.083456	0.002041	40.8838	-64.4048	-163.484	0.043036	0.673192	-1.096519	-1.097804	0.017106	40.8838	-1.096832	-4.545107E+14	-3.763649E-17	NaN
181	1.000000	0.686466	7.36681e+06	-47689.1	955.817	-29764.8	0.000000	0.000000	6.687017	0.054768	NaN	0.000000	0.001597	0.001716	28.0762	0.079092	0.002050	38.5786	132.713	-165.1	0.022993	0.685181	-1.084531	-1.085816	0.054768	38.5786	-1.085595	-3.211193E+14	-1.705527E-16	NaN
181	1.000000	0.698475	7.36681e+06	-47689.1	955.819	-29764.8	0.000000	0.000000	6.699026	0.054352	NaN	0.000000	0.001622	0.001710	28.0762	0.040632	0.002018	20.1367	-144.999	-165.417	0.072313	0.697186	-1.072522	-1.073811	0.054352	20.1367	-1.074546	-2.281706E+14	-2.382073E-16	NaN
181	1.000000	0.710476	7.36681e+06	-47689.1	955.818	-29764.8	0.000000	0.000000	6.711026	0.045839	NaN	0.000000	0.001576	0.001717	28.0764	0.087476	0.001933	45.2639	17.7827	-168.531	0.071514	0.709141	-1.060521	-1.061856	0.045839	45.2639	-1.061281	-1.513666E+14	-3.028348E-16	NaN
181	1.000000	0.722456	7.36681e+06	-47689.1	955.817	-29764.8	0.000000	0.000000	6.723011	0.147589	NaN	0.000000	0.001618	0.001689	28.0776	0.042412	0.002100	20.1996	58.0117	-164.176	0.106383	0.721144	-1.048540	-1.049852	0.147589	20.1996	-1.054020	-1.209080E+14	-1.220672E-15	NaN
181	1.000000	0.734518	7.36681e+06	-47689.1	955.819	-29764.8	0.000000	0.000000	6.735068	0.018233	NaN	0.000000	0.001612	0.001683	28.0775	0.021819	0.001962	11.1196	-105.173	-163.25	0.056119	0.733151	-1.036479	-1.037846	0.018233	11.1196	-1.037709	-7.297175E+13	-2.498682E-16	NaN
181	1.000000	0.746512	7.36681e+06	-47689.1	955.818	-29764.8	0.000000	0.000000	6.747062	0.026442	NaN	0.000000	0.001558	0.001679	28.0778	0.089482	0.001888	47.3983	134.08	-165.132	0.030580	0.745136	-1.024485	-1.025861	0.026442	47.3983	-1.024903	-4.908136E+13	-5.387475E-16	NaN
181	1.000000	0.758503	7.36681e+06	-47689.1	955.818	-29764.8	0.000000	0.000000	6.759054	0.056731	NaN	0.000000	0.001558	0.001685	28.0773	0.039469	0.001921	20.5498	13.3614	-165.245	0.016135	0.757143	-1.012494	-1.013854	0.056731	20.5498	-1.014564	-3.562915E+13	-1.592278E-15	NaN
181	1.000000	0.770501	7.36681e+06	-47689.1	955.819	-29764.8	0.000000	0.000000	6.771049	-0.023938	NaN	0.000000	0.001599	0.001720	28.0776	0.052410	0.002030	25.8228	-175.243	-163.464	-0.022549	0.769291	-1.000495	-1.001706	-0.023938	25.8228	-0.999800	-2.254633E+13	1.061717E-15	NaN
181	1.000000	0.782514	7.36681e+06	-47689.1	955.819	-29764.8	0.000000	0.000000	6.783063	-0.002207	NaN	0.000000	0.001602	0.001678	28.0773	0.071399	0.001994	35.8025	28.5176	-163.17	0.021362	0.781206	-0.988483	-0.989791	-0.002207	35.8025	-0.988436	-1.585085E+13	1.392432E-16	NaN
181	1.000000	0.794537	7.36681e+06	-47689.1	955.819	-29764.8	0.000000	0.000000	6.795084	-0.031182	NaN	0.000000	0.001586	0.001655	28.0776	0.061380	0.002167	28.3243	-140.018	-166.476	-0.050913	0.793229	-0.976460	-0.977768	-0.031182	28.3243	-0.975634	-1.065593E+13	2.926244E-15	NaN
181	1.000000	0.806518	7.36681e+06	-47689.1	955.818	-29764.8	0.000000	0.000000	6.807068	0.018729	NaN	0.000000	0.001595	0.001682	28.0775	0.058526	0.001917	30.5244	-11.071	-166.382	0.016305	0.805197	-0.964478	-0.965800	0.018729	30.5244	-0.964938	-7.646154E+12	-2.449504E-15	NaN
181	1.000000	0.818499	7.36681e+06	-47689.1	955.819	-29764.8	0.000000	0.000000	6.819051	0.070826	NaN	0.000000	0.001573	0.001653	28.0776	0.053720	0.001992	26.9657	-2.672253	-166.533	0.078573	0.817200	-0.952497	-0.953796	0.070826	26.9657	-0.954467	-5.524215E+12	-1.282095E-14	NaN
181	1.000000	0.830520	7.36681e+06	-47689.1	955.818	-29764.8	0.000000	0.000000	6.831070	0.029956	NaN	0.000000	0.001586	0.001670	28.078	0.082514	0.001989	41.4929	-144.091	-165.051	0.040407	0.829238	-0.940477	-0.941759	0.029956	41.4929	-0.941018	-3.638100E+12	-8.233887E-15	NaN
181	1.000000	0.842556	7.36681e+06	-47689.1	955.818	-29764.8	0.000000	0.000000	6.843105	-0.000105	NaN	0.000000	0.001601	0.001666	28.0785	0.052048	0.002013	25.855	145.848	-162.259	0.055612	0.841298	-0.928440	-0.929699	-0.000105	25.855	-0.928437	-2.460953E+12	4.272465E-17	NaN
181	1.000000	0.854515	7.36681e+06	-47689.1	955.818	-29764.8	0.000000	0.000000	6.855064	-0.004660	NaN	0.000000	0.001593	0.001649	28.0766	0.092576	0.001964	47.1467	-122.004	-165.617	0.033393	0.853240	-0.916481	-0.917757	-0.004660	47.1467	-0.916407	-1.693147E+12	2.752034E-15	NaN
181	1.000000	0.866538	7.36681e+06	-47689.1	955.818	-29764.8	0.000000	0.000000	6.867086	-0.006117	NaN	0.000000	0.001584	0.001715	28.0766	0.092130	0.001938	47.542	112.81	-165.539	0.013847	0.865273	-0.904459	-0.905724	-0.006117	47.542	-0.904363	-1.164152E+12	5.254786E-15	NaN
181	1.000000	0.878559	7.36681e+06	-47689.1	955.818	-29764.8	0.000000	0.000000	6.879110	0.054080	NaN	0.000000	0.001569	0.001729	28.0765	0.073626	0.002027	36.3159	-64.9379	-163.87	0.044916	0.877238	-0.892438	-0.893759	0.054080	36.3159	-0.893555	-8.317008E+11	-6.502309E-14	NaN
181	1.000000	0.890561	7.36681e+06	-47689.1	955.818	-29764.8	0.000000	0.000000	6.891113	0.053129	NaN	0.000000	0.001639	0.001716	28.0766	0.095457	0.002105	45.3569	-10.7547	-165.718	0.009340	0.889274	-0.880435	-0.881722	0.053129	45.3569	-0.881314	-5.681638E+11	-9.350928E-14	NaN
181	1.000000	0.902566	7.36681e+06	-47689.1	955.818	-29764.8	0.000000	0.000000	6.903115	-0.004288	NaN	0.000000	0.001627	0.001703	28.0765	0.091882	0.002140	42.9393	167.857	-167.592	0.019801	0.901243	-0.868431	-0.869754	-0.004288	42.9393	-0.868356	-3.794893E+11	1.129903E-14	NaN
181	1.000000	0.914578	7.36681e+06	-47689.1	955.818	-29764.8	0.000000	0.000000	6.915129	0.051979	NaN	0.000000	0.001633	0.001694	28.0764	0.092145	0.001984	46.4475	-54.8139	-166.871	0.045108	0.913276	-0.856418	-0.857721	0.051979	46.4475	-0.857258	-2.685337E+11	-1.935669E-13	NaN
181	1.000000	0.926560	7.36681e+06	-47689.1	955.817	-29764.8	0.000000	0.000000	6.927109	0.013812	NaN	0.000000	0.001691	0.001668	28.0768	0.035637	0.002058	17.314	-121.732	-162.762	0.049334	0.925250	-0.844437	-0.845747	0.013812	17.314	-0.845035	-1.834431E+11	-7.529307E-14	NaN
181	1.000000	0.938579	7.36681e+06	-47689.1	955.818	-29764.8	0.000000	0.000000	6.939130	0.038288	NaN	0.000000	0.001671	0.001636	28.0769	0.019963	0.001973	10.116	84.0245	-166.676	0.108225	0.937254	-0.832417	-0.833742	0.038288	10.116	-0.835256	-1.352118E+11	-2.831735E-13	NaN
181	1.000000	0.950588	7.36681e+06	-47689.1	955.817	-29764.8	0.000000	0.000000	6.951139	0.063376	NaN	0.000000	0.001676	0.001638	28.0764	0.095053	0.002059	46.156	18.2151	-165.973	2.326118E-5	0.949242	-0.820409	-0.821755	0.063376	46.156	-0.821439	-8.784605E+10	-7.214482E-13	NaN
181	1.000000	0.962565	7.36681e+06	-47689.1	955.818	-29764.8	0.000000	0.000000	6.963113	-0.015221	NaN	0.000000	0.001669	0.001646	28.0765	0.088491	0.002003	44.1806	40.4776	-163.993	0.012211	0.961301	-0.808432	-0.809696	-0.015221	44.1806	-0.808174	-5.804874E+10	2.622040E-13	NaN
181	1.000000	0.974569	7.36681e+06	-47689.1	955.818	-29764.8	0.000000	0.000000	6.975119	0.036812	NaN	0.000000	0.001629	0.001677	28.0766	0.082754	0.002133	38.8029	-102.099	-166.426	0.065091	0.973343	-0.796428	-0.797653	0.036812	38.8029	-0.797139	-4.111753E+10	-8.952926E-13	NaN
181	1.000000	0.986592	7.36681e+06	-47689.1	955.818	-29764.8	0.000000	0.000000	6.987140	-0.012689	NaN	0.000000	0.001637	0.001653	28.0766	0.040594	0.002029	20.0054	-155.906	-164.381	-0.026860	0.985249	-0.784405	-0.785748	-0.012689	20.0054	-0.783929	-2.720314E+10	4.664503E-13	NaN
181	1.000000	0.998586	7.36681e+06	-47689.1	955.818	-29764.8	0.000000	0.000000	6.999135	0.020900	NaN	0.000000	0.001629	0.001667	28.0779	0.019492	0.002036	9.573974	34.9367	-166.409	0.018542	0.997323	-0.772411	-0.773674	0.020900	9.573974	-0.774048	-1.996829E+10	-1.046654E-12	NaN
181	1.000000	1.010601	7.36681e+06	-47689.1	955.817	-29764.8	0.000000	0.000000	7.011152	0.054904	NaN	0.000000	0.001620	0.001658	28.0777	0.011306	0.002029	5.571451	74.2606	-166.913	0.012378	1.009270	-0.760396	-0.761727	0.054904	5.571451	-0.767787	-1.641381E+10	-3.345015E-12	NaN
181	1.000000	1.022602	7.36681e+06	-47689.1	955.817	-29764.8	0.000000	0.000000	7.023155	0.100558	NaN	0.000000	0.001649	0.001673	28.078	0.033792	0.002057	16.4285	179.195	-164.816	-0.010971	1.021282	-0.748395	-0.749714	0.100558	16.4285	-0.752986	-1.032430E+10	-9.739926E-12	NaN
181	1.000000	1.034607	7.36681e+06	-47689.1	955.818	-29764.8	0.000000	0.000000	7.035158	0.063837	NaN	0.000000	0.001670	0.001681	28.0789	0.120586	0.001984	60.7792	-41.2355	-166.837	0.087319	1.033325	-0.736390	-0.737672	0.063837	60.7792	-0.737178	-6.289443E+9	-1.014991E-11	NaN
181	1.000000	1.046600	7.36681e+06	-47689.1	955.819	-29764.8	0.000000	0.000000	7.047152	0.066807	NaN	0.000000	0.001665	0.001695	28.0777	0.036546	0.001989	18.3697	79.7301	-168.239	0.137811	1.045351	-0.724396	-0.725646	0.066807	18.3697	-0.727124	-4.587832E+9	-1.456175E-11	NaN
181	1.000000	1.058635	7.36681e+06	-47689.1	955.818	-29764.8	0.000000	0.000000	7.059184	0.003550	NaN	0.000000	0.001588	0.001687	28.0778	0.059263	0.002036	29.1113	-73.8801	-168.705	0.028697	1.057320	-0.712362	-0.713677	0.003550	29.1113	-0.712453	-2.894193E+9	-1.226465E-12	NaN
181	1.000000	1.070603	7.36681e+06	-47689.1	955.818	-29764.8	0.000000	0.000000	7.071153	0.017207	NaN	0.000000	0.001589	0.001693	28.0781	0.052406	0.001790	29.2802	55.0288	-166.24	0.009968	1.069300	-0.700394	-0.701697	0.017207	29.2802	-0.700834	-2.008751E+9	-8.565930E-12	NaN
181	1.000000	1.082635	7.36681e+06	-47689.1	955.816	-29764.8	0.000000	0.000000	7.083184	0.001415	NaN	0.000000	0.001555	0.001689	28.0778	0.070124	0.001987	35.2914	-66.8401	-168.098	0.017649	1.081361	-0.688362	-0.689636	0.001415	35.2914	-0.688392	-1.358135E+9	-1.041678E-12	NaN
181	1.000000	1.094629	7.36681e+06	-47689.1	955.817	-29764.8	0.000000	0.000000	7.095179	0.012634	NaN	0.000000	0.001571	0.001699	28.0777	0.034791	0.001988	17.4982	35.0532	-164.999	0.058793	1.093274	-0.676367	-0.677722	0.012634	17.4982	-0.676909	-9.460743E+8	-1.335401E-11	NaN
181	1.000000	1.106638	7.36681e+06	-47689.1	955.817	-29764.8	0.000000	0.000000	7.107187	0.007424	NaN	0.000000	0.001612	0.001667	28.0776	0.116391	0.002024	57.5009	-150.869	-168.648	0.059419	1.105318	-0.664359	-0.665678	0.007424	57.5009	-0.664456	-6.389865E+8	-1.161885E-11	NaN
181	1.000000	1.118659	7.36681e+06	-47689.1	955.816	-29764.8	0.000000	0.000000	7.119207	-0.022896	NaN	0.000000	0.001584	0.001679	28.0777	0.110071	0.001961	56.1399	-16.8417	-168.256	-0.025955	1.117352	-0.652338	-0.653645	-0.022896	56.1399	-0.652032	-4.318042E+8	5.302408E-11	NaN
181	1.000000	1.130654	7.36681e+06	-47689.1	955.816	-29764.8	0.000000	0.000000	7.131201	-0.024399	NaN	0.000000	0.001569	0.001673	28.0767	0.085327	0.002069	41.2329	-171.799	-165.413	-0.003897	1.129324	-0.640343	-0.641672	-0.024399	41.2329	-0.639899	-2.943797E+8	8.288253E-11	NaN
181	1.000000	1.142692	7.36681e+06	-47689.1	955.817	-29764.8	0.000000	0.000000	7.143241	0.016019	NaN	0.000000	0.001564	0.001695	28.0766	0.043418	0.001934	22.4547	36.7837	-168.068	0.037782	1.141385	-0.628305	-0.629612	0.016019	22.4547	-0.628840	-2.075366E+8	-7.718458E-11	NaN
181	1.000000	1.154646	7.36681e+06	-47689.1	955.817	-29764.8	0.000000	0.000000	7.155195	-0.010492	NaN	0.000000	0.001614	0.001719	28.0763	0.023846	0.002004	11.8987	165.843	-165.355	-0.057502	1.153390	-0.616350	-0.617607	-0.010492	11.8987	-0.615689	-1.368871E+8	7.664993E-11	NaN
181	1.000000	1.166688	7.36681e+06	-47689.1	955.818	-29764.8	0.000000	0.000000	7.167240	0.060655	NaN	0.000000	0.001587	0.001684	28.0763	0.037758	0.002030	18.5993	-162.027	-168.059	0.077670	1.165380	-0.604308	-0.605616	0.060655	18.5993	-0.606754	-1.031453E+8	-5.880512E-10	NaN
181	1.000000	1.178681	7.36681e+06	-47689.1	955.818	-29764.8	0.000000	0.000000	7.179229	-0.031620	NaN	0.000000	0.001612	0.001756	28.0765	0.035639	0.002024	17.6074	173.538	-165.956	0.015889	1.177373	-0.592316	-0.593624	-0.031620	17.6074	-0.590969	-6.252028E+7	5.057537E-10	NaN
181	1.000000	1.190676	7.36681e+06	-47689.1	955.819	-29764.8	0.000000	0.000000	7.191225	0.000187	NaN	0.000000	0.001580	0.001731	28.0766	0.023814	0.001865	12.7671	169.668	-164.813	0.001257	1.189393	-0.580321	-0.581604	0.000187	12.7671	-0.580332	-4.459702E+7	-4.196296E-12	NaN
181	1.000000	1.202693	7.36681e+06	-47689.1	955.818	-29764.8	0.000000	0.000000	7.203242	0.009798	NaN	0.000000	0.001549	0.001713	28.0764	0.068794	0.002044	33.6501	-6.864365	-164.925	-0.000172	1.201338	-0.568304	-0.569659	0.009798	33.6501	-0.568522	-3.063450E+7	-3.198485E-10	NaN
181	1.000000	1.214713	7.36681e+06	-47689.1	955.818	-29764.8	0.000000	0.000000	7.215261	-0.017126	NaN	0.000000	0.001564	0.001720	28.0764	0.030988	0.002020	15.3389	42.2763	-167.423	-0.027060	1.213389	-0.556284	-0.557608	-0.017126	15.3389	-0.555447	-2.020087E+7	8.477701E-10	NaN
181	1.000000	1.226705	7.36681e+06	-47689.1	955.817	-29764.8	0.000000	0.000000	7.227254	0.017647	NaN	0.000000	0.001559	0.001718	28.0765	0.103402	0.002065	50.0734	-52.27	-165.985	0.065943	1.225401	-0.544292	-0.545596	0.017647	50.0734	-0.544556	-1.427346E+7	-1.236376E-9	NaN
181	1.000000	1.238685	7.36681e+06	-47689.1	955.817	-29764.8	0.000000	0.000000	7.239235	0.006554	NaN	0.000000	0.001567	0.001708	28.0765	0.132219	0.001845	71.6795	7.156926	-163.876	-0.020976	1.237374	-0.532311	-0.533623	0.006554	71.6795	-0.532380	-9.67432e+06	-6.774340E-10	NaN
181	1.000000	1.250713	7.36681e+06	-47689.1	955.818	-29764.8	0.000000	0.000000	7.251263	0.032920	NaN	0.000000	0.001607	0.001697	28.0764	0.028412	0.001879	15.1219	-152.084	-166.905	0.001930	1.249354	-0.520284	-0.521643	0.032920	15.1219	-0.521917	-6.92235e+06	-4.755629E-9	NaN
181	1.000000	1.262686	7.36682e+06	-47689.1	955.818	-29764.8	0.000000	0.000000	7.263234	-0.007795	NaN	0.000000	0.001551	0.001730	28.0767	0.058704	0.001950	30.1025	31.2697	-165.456	-0.009287	1.261462	-0.508311	-0.509534	-0.007795	30.1025	-0.508117	-4.44818e+06	1.752437E-9	NaN
181	1.000000	1.274691	7.36682e+06	-47689.1	955.817	-29764.8	0.000000	0.000000	7.275240	0.007016	NaN	0.000000	0.001574	0.001739	28.0776	0.068255	0.002129	32.0669	35.5946	-166.049	0.025849	1.273428	-0.496306	-0.497569	0.007016	32.0669	-0.496470	-3.06026e+06	-2.292767E-9	NaN
181	1.000000	1.286710	7.36682e+06	-47689.1	955.818	-29764.8	0.000000	0.000000	7.287261	0.067605	NaN	0.000000	0.001591	0.001708	28.0779	0.040097	0.002003	20.0207	-148.587	-165.602	0.031100	1.285421	-0.484287	-0.485576	0.067605	20.0207	-0.486820	-2.24356e+06	-3.013287E-8	NaN
181	1.000000	1.298723	7.36682e+06	-47689.1	955.817	-29764.8	0.000000	0.000000	7.299272	0.005685	NaN	0.000000	0.001617	0.001726	28.0776	0.087835	0.002071	42.4072	145.671	-162.193	-0.003705	1.297404	-0.472274	-0.473593	0.005685	42.4072	-0.472375	-1.40833e+06	-4.036404E-9	NaN
181	1.000000	1.310713	7.36682e+06	-47689.1	955.818	-29764.8	0.000000	0.000000	7.311263	0.018137	NaN	0.000000	0.001562	0.001734	28.0779	0.067889	0.001844	36.8202	74.4986	-164.223	0.021178	1.309404	-0.460283	-0.461593	0.018137	36.8202	-0.460653	-964251	-1.880897E-8	NaN
181	1.000000	1.322728	7.36682e+06	-47689.1	955.817	-29764.8	0.000000	0.000000	7.323280	0.074587	NaN	0.000000	0.001587	0.001730	28.0781	0.076020	0.001956	38.868	146.872	-164.134	0.069237	1.321399	-0.448269	-0.449598	0.074587	38.868	-0.449708	-676449	-1.102624E-7	NaN
181	1.000000	1.334769	7.36682e+06	-47689.1	955.818	-29764.8	0.000000	0.000000	7.335322	0.097720	NaN	0.000000	0.001566	0.001730	28.0778	0.023587	0.002113	11.1619	118.047	-167.625	0.119249	1.333434	-0.436227	-0.437563	0.097720	11.1619	-0.442793	-540477	-1.808024E-7	NaN
181	1.000000	1.346713	7.36682e+06	-47689.1	955.818	-29764.8	0.000000	0.000000	7.347262	-0.013014	NaN	0.000000	0.001582	0.001701	28.0779	0.093856	0.001989	47.19	-158.753	-166.021	-0.074819	1.345456	-0.424283	-0.425540	-0.013014	47.19	-0.424077	-293902	4.427951E-8	NaN
181	1.000000	1.358771	7.36682e+06	-47689.1	955.817	-29764.8	0.000000	0.000000	7.359322	0.037332	NaN	0.000000	0.001554	0.001710	28.0776	0.040755	0.001993	20.454	-156.481	-160.903	0.079115	1.357406	-0.412225	-0.413591	0.037332	20.454	-0.413594	-208684	-1.788913E-7	NaN
181	1.000000	1.370748	7.36682e+06	-47689.1	955.818	-29764.8	0.000000	0.000000	7.371298	0.016591	NaN	0.000000	0.001589	0.001635	28.0775	0.081313	0.002004	40.5721	124.648	-166.613	0.061966	1.369405	-0.400248	-0.401591	0.016591	40.5721	-0.400555	-136116	-1.218911E-7	NaN
181	1.000000	1.382805	7.36682e+06	-47689.1	955.817	-29764.8	0.000000	0.000000	7.383354	0.001394	NaN	0.000000	0.001555	0.001672	28.0778	0.055715	0.001988	28.0304	-145.637	-166.031	-0.008251	1.381462	-0.388191	-0.389535	0.001394	28.0304	-0.388229	-90744.8	-1.536151E-8	NaN
181	1.000000	1.394766	7.36682e+06	-47689.1	955.818	-29764.8	0.000000	0.000000	7.395316	0.018850	NaN	0.000000	0.001572	0.001684	28.0777	0.057871	0.002006	28.8428	42.5467	-165.615	0.048240	1.393461	-0.376231	-0.377535	0.018850	28.8428	-0.376721	-62058.8	-3.037437E-7	NaN
181	1.000000	1.406765	7.36682e+06	-47689.1	955.818	-29764.8	0.000000	0.000000	7.407318	0.090379	NaN	0.000000	0.001564	0.001670	28.0767	0.042114	0.002088	20.1651	26.934	-166.379	0.012338	1.405481	-0.364232	-0.365516	0.090379	20.1651	-0.367593	-45861.4	-1.970693E-6	NaN
181	1.000000	1.418781	7.36682e+06	-47689.1	955.818	-29764.8	0.000000	0.000000	7.419333	0.074727	NaN	0.000000	0.001631	0.001670	28.0766	0.046119	0.001942	23.7464	105.93	-168.27	0.046926	1.417451	-0.352216	-0.353546	0.074727	23.7464	-0.354576	-29740.9	-2.512591E-6	NaN
181	1.000000	1.430788	7.36682e+06	-47689.1	955.818	-29764.8	0.000000	0.000000	7.431337	-0.008117	NaN	0.000000	0.001657	0.001678	28.0765	0.062509	0.001980	31.571	-85.6312	-165.472	0.029779	1.429425	-0.340208	-0.341571	-0.008117	31.571	-0.340015	-18271.7	4.442517E-7	NaN
181	1.000000	1.442791	7.36682e+06	-47689.1	955.819	-29764.8	0.000000	0.000000	7.443338	-0.047499	NaN	0.000000	0.001618	0.001689	28.0766	0.011420	0.001969	5.800606	104.858	-166.646	-0.041774	1.441441	-0.328205	-0.329556	-0.047499	5.800606	-0.322064	-9977.02	4.760871E-6	NaN
181	1.000000	1.454764	7.36682e+06	-47689.1	955.818	-29764.8	0.000000	0.000000	7.455314	0.023497	NaN	0.000000	0.001633	0.001718	28.0764	0.060929	0.001907	31.9437	-162.136	-162.649	0.003268	1.453505	-0.316232	-0.317492	0.023497	31.9437	-0.316784	-8341.88	-2.816744E-6	NaN
181	1.000000	1.466804	7.36682e+06	-47689.1	955.818	-29764.8	0.000000	0.000000	7.467351	-0.050674	NaN	0.000000	0.001652	0.001645	28.0766	0.089299	0.002039	43.7971	-168.258	-166.676	-0.083973	1.465488	-0.304193	-0.305508	-0.050674	43.7971	-0.303325	-5273.32	9.609424E-6	NaN
181	1.000000	1.478825	7.36682e+06	-47689.1	955.818	-29764.8	0.000000	0.000000	7.479377	0.090369	NaN	0.000000	0.001655	0.001661	28.0764	0.084634	0.002023	41.84	108.328	-165.507	0.061380	1.477437	-0.292172	-0.293560	0.090369	41.84	-0.293792	-3802.26	-2.376728E-5	NaN
181	1.000000	1.490792	7.36682e+06	-47689.1	955.817	-29764.8	0.000000	0.000000	7.491338	-0.061683	NaN	0.000000	0.001591	0.001673	28.0767	0.025284	0.002050	12.3308	173.338	-165.464	-0.064687	1.489489	-0.280205	-0.281507	-0.061683	12.3308	-0.276453	-2086.35	2.956484E-5	NaN
181	1.000000	1.502803	7.36682e+06	-47689.1	955.818	-29764.8	0.000000	0.000000	7.503354	0.051438	NaN	0.000000	0.001553	0.001746	28.0767	0.107366	0.001957	54.8646	56.6569	-164.08	0.075267	1.501522	-0.268194	-0.269475	0.051438	54.8646	-0.268897	-1602.4	-3.210052E-5	NaN
181	1.000000	1.514809	7.36682e+06	-47689.1	955.818	-29764.8	0.000000	0.000000	7.515358	0.007083	NaN	0.000000	0.001573	0.001683	28.0768	0.114191	0.002073	55.0827	126.335	-163.3	0.032583	1.513507	-0.256188	-0.257490	0.007083	55.0827	-0.256284	-1027.73	-6.891534E-6	NaN
181	1.000000	1.526828	7.36682e+06	-47689.1	955.817	-29764.8	0.000000	0.000000	7.527379	0.047394	NaN	0.000000	0.001596	0.001690	28.0768	0.073113	0.002056	35.5649	-10.5016	-166.155	0.101788	1.525564	-0.244169	-0.245433	0.047394	35.5649	-0.245168	-691.933	-6.849536E-5	NaN
181	1.000000	1.538851	7.36682e+06	-47689.1	955.818	-29764.8	0.000000	0.000000	7.539401	0.034379	NaN	0.000000	0.001590	0.001685	28.0777	0.083012	0.001898	43.7403	-112.215	-166.042	0.026964	1.537551	-0.232146	-0.233445	0.034379	43.7403	-0.232736	-442.229	-7.774005E-5	NaN
181	1.000000	1.550811	7.36682e+06	-47689.1	955.818	-29764.8	0.000000	0.000000	7.551363	0.071680	NaN	0.000000	0.001584	0.001682	28.0778	0.022306	0.002008	11.1074	117.361	-166.264	-0.009052	1.549543	-0.220186	-0.221454	0.071680	11.1074	-0.225026	-334	-0.000215	NaN
181	1.000000	1.562848	7.36682e+06	-47689.1	955.818	-29764.8	0.000000	0.000000	7.563398	0.016831	NaN	0.000000	0.001599	0.001677	28.0775	0.039419	0.002087	18.8881	-134.422	-165.652	0.086421	1.561515	-0.208148	-0.209481	0.016831	18.8881	-0.208817	-183.502	-9.171851E-5	NaN
181	1.000000	1.574876	7.36682e+06	-47689.1	955.818	-29764.8	0.000000	0.000000	7.575426	0.032800	NaN	0.000000	0.001645	0.001683	28.0777	0.173380	0.001924	90.1027	-17.47	-167.402	0.017967	1.573559	-0.196121	-0.197438	0.032800	90.1027	-0.196394	-114.885	-0.000286	NaN
181	1.000000	1.586848	7.36682e+06	-47689.1	955.818	-29764.8	0.000000	0.000000	7.587398	0.029726	NaN	0.000000	0.001649	0.001713	28.0778	0.091078	0.002045	44.5447	-104.32	-166.042	0.044232	1.585574	-0.184148	-0.185423	0.029726	44.5447	-0.184649	-73.15	-0.000406	NaN
181	1.000000	1.598861	7.36682e+06	-47689.1	955.817	-29764.8	0.000000	0.000000	7.599412	0.062237	NaN	0.000000	0.001658	0.001735	28.0779	0.049822	0.001949	25.565	-59.7887	-165.211	-0.043867	1.597569	-0.172136	-0.173428	0.062237	25.565	-0.173962	-48.0976	-0.001294	NaN
181	1.000000	1.610868	7.36682e+06	-47689.1	955.817	-29764.8	0.000000	0.000000	7.611418	0.034393	NaN	0.000000	0.001652	0.001713	28.078	0.058724	0.001900	30.914	-109.116	-165.654	0.067158	1.609580	-0.160128	-0.161417	0.034393	30.914	-0.160963	-28.5152	-0.001206	NaN
181	1.000000	1.622879	7.36682e+06	-47689.1	955.818	-29764.8	0.000000	0.000000	7.623430	0.041569	NaN	0.000000	0.001651	0.001689	28.0777	0.076712	0.002109	36.375	170.081	-166.511	0.003265	1.621541	-0.148118	-0.149455	0.041569	36.375	-0.148975	-17.3492	-0.002396	NaN
181	1.000000	1.634867	7.36682e+06	-47689.1	955.818	-29764.8	0.000000	0.000000	7.635418	0.053348	NaN	0.000000	0.001647	0.001690	28.0776	0.121809	0.002000	60.8931	-175.628	-164.856	-0.008529	1.633559	-0.136129	-0.137437	0.053348	60.8931	-0.136786	-10.2871	-0.005186	NaN
181	1.000000	1.646879	7.36682e+06	-47689.1	955.817	-29764.8	0.000000	0.000000	7.647427	-0.009705	NaN	0.000000	0.001637	0.001720	28.0774	0.021892	0.002013	10.8769	-11.2084	-167.318	0.011417	1.645569	-0.124118	-0.125427	-0.009705	10.8769	-0.123448	-5.665012	0.001713	NaN
181	1.000000	1.658873	7.36682e+06	-47689.1	955.817	-29764.8	0.000000	0.000000	7.659422	0.019423	NaN	0.000000	0.001580	0.001720	28.0777	0.033017	0.002084	15.8437	110.001	-164.265	-0.048939	1.657585	-0.112124	-0.113412	0.019423	15.8437	-0.113043	-3.480137	-0.005581	NaN
181	1.000000	1.670887	7.36682e+06	-47689.1	955.819	-29764.8	0.000000	0.000000	7.671438	0.053285	NaN	0.000000	0.001565	0.001678	28.0777	0.059808	0.001779	33.622	61.7721	-166.026	0.012062	1.669621	-0.100110	-0.101376	0.053285	33.622	-0.101298	-1.951873	-0.027299	NaN
181	1.000000	1.682920	7.36682e+06	-47689.1	955.818	-29764.8	0.000000	0.000000	7.683470	0.029401	NaN	0.000000	0.001570	0.001727	28.0765	0.050715	0.002116	23.9726	-117.437	-164.083	0.057905	1.681576	-0.088076	-0.089421	0.029401	23.9726	-0.088996	-1.023742	-0.028719	NaN
181	1.000000	1.694906	7.36682e+06	-47689.1	955.819	-29764.8	0.000000	0.000000	7.695455	0.000459	NaN	0.000000	0.001576	0.001718	28.0765	0.086104	0.002016	42.7144	161.502	-163.376	0.038552	1.693591	-0.076090	-0.077406	0.000459	42.7144	-0.076098	-0.492981	-0.000930	NaN
181	1.000000	1.706908	7.36682e+06	-47689.1	955.818	-29764.8	0.000000	0.000000	7.707458	0.025097	NaN	0.000000	0.001620	0.001692	28.0767	0.061161	0.002092	29.2295	105.121	-167.641	0.126312	1.705618	-0.064089	-0.065379	0.025097	29.2295	-0.064733	-0.244994	-0.102440	NaN
181	1.000000	1.718918	7.36682e+06	-47689.1	955.818	-29764.8	0.000000	0.000000	7.719468	0.022300	NaN	0.000000	0.001657	0.001680	28.0767	0.077748	0.002045	38.0184	-128.548	-166.996	-0.028708	1.717636	-0.052078	-0.053361	0.022300	38.0184	-0.052518	-0.108645	-0.205253	NaN
181	1.000000	1.730906	7.36682e+06	-47689.1	955.818	-29764.8	0.000000	0.000000	7.731457	0.042767	NaN	0.000000	0.001663	0.001697	28.0766	0.087354	0.001969	44.3609	-176.193	-164.118	-0.005682	1.729615	-0.040090	-0.041381	0.042767	44.3609	-0.040813	-0.047872	-0.893349	NaN
181	1.000000	1.742920	7.36682e+06	-47689.1	955.818	-29764.8	0.000000	0.000000	7.743471	0.038963	NaN	0.000000	0.001622	0.001635	28.0767	0.078659	0.002084	37.751	-127.258	-164.216	-0.046858	1.741682	-0.028077	-0.029315	0.038963	37.751	-0.028851	-0.021389	-1.821695	NaN
181	1.000000	1.754891	7.36682e+06	-47689.1	955.818	-29764.8	0.000000	0.000000	7.755440	0.005692	NaN	0.000000	0.001625	0.001667	28.0772	0.016978	0.001921	8.837636	-114.224	-165.677	-0.027022	1.753603	-0.016106	-0.017394	0.005692	8.837636	-0.016589	-0.010250	-0.555326	NaN
181	1.000000	1.766924	7.36682e+06	-47689.1	955.818	-29764.8	0.000000	0.000000	7.767474	0.009521	NaN	0.000000	0.001636	0.001674	28.0766	0.056519	0.002020	27.9776	-159.092	-167.271	-0.016940	1.765546	-0.004072	-0.005451	0.009521	27.9776	-0.004328	-0.002990	-3.184405	NaN
181	1.000000	1.778813	7.36682e+06	-47689.1	955.817	-29764.8	0.000000	0.000000	7.779708	8.431708	NaN	0.000000	0.001605	0.001703	28.0767	8.444592	0.001670	5056.27	12.1773	-174.701	6.822597	1.777600	0.007816	0.006604	8.431708	5056.27	0.006565	0.005608	1503.56	61688.8
181	2.000000	1.782474	7.36682e+06	-47689.1	955.817	-29764.8	0.000000	0.000000	7.783588	13.7456	NaN	0.000000	0.001647	0.001705	28.0767	12.9492	0.001734	7466.07	9.877629	-177.908	13.6536	1.782143	0.011478	0.011147	13.7456	7466.07	0.010097	0.009289	1479.69	70773.3
181	2.000000	1.785432	7.36682e+06	-47689.1	955.818	-29764.8	0.000000	0.000000	7.786732	18.2729	NaN	0.000000	0.001599	0.001682	28.0767	15.5706	0.001745	8923.68	2.979493	-173.407	17.3741	1.785089	0.014435	0.014092	18.2729	8923.68	0.012899	0.012585	1451.96	72675.9
181	2.000000	1.788392	7.36682e+06	-47689.1	955.819	-29764.8	0.000000	0.000000	7.789936	24.1961	NaN	0.000000	0.001609	0.001685	28.0794	18.7262	0.001773	10563.7	6.193685	-176.942	23.6038	1.788140	0.017395	0.017143	24.1961	10563.7	0.015677	0.016199	1493.65	75830.2
181	2.000000	1.791402	7.36682e+06	-47689.1	955.818	-29764.8	0.000000	0.000000	7.793190	30.13	NaN	0.000000	0.001575	0.001669	28.0778	21.5243	0.001708	12605.5	7.308313	179.591	28.4735	1.791099	0.020406	0.020103	30.13	12605.5	0.018613	0.020409	1476.28	80615.6
181	2.000000	1.794408	7.36682e+06	-47689.1	955.818	-29764.8	0.000000	0.000000	7.796391	34.8893	NaN	0.000000	0.001618	0.001660	28.0777	23.9039	0.001752	13646.2	5.216666	-178.886	34.5774	1.794141	0.023411	0.023144	34.8893	13646.2	0.021494	0.024944	1398.71	78941
181	2.000000	1.797372	7.36682e+06	-47689.1	955.819	-29764.8	0.000000	0.000000	7.799734	44.1111	NaN	0.000000	0.001615	0.001690	28.078	27.0515	0.001775	15237.2	5.327388	-179.532	43.5722	1.797091	0.026375	0.026094	44.1111	15237.2	0.024204	0.029583	1491.09	80938.7
181	2.000000	1.800355	7.36682e+06	-47689.1	955.819	-29764.8	0.000000	0.000000	7.803060	52.4374	NaN	0.000000	0.001615	0.001690	28.0777	29.4165	0.001662	17696.6	4.890183	179.993	52.186	1.800046	0.029358	0.029050	52.4374	17696.6	0.027136	0.035016	1497.52	86402.8
181	2.000000	1.803307	7.36682e+06	-47689.1	955.819	-29764.8	0.000000	0.000000	7.806579	66.2237	NaN	0.000000	0.001593	0.001717	28.079	31.9335	0.001713	18639.7	0.948794	-177.1	62.7327	1.802982	0.032310	0.031985	66.2237	18639.7	0.029646	0.040013	1655.07	85136.2
181	2.000000	1.806313	7.36682e+06	-47689.1	955.818	-29764.8	0.000000	0.000000	7.809888	73.6105	NaN	0.000000	0.001592	0.001688	28.078	36.333	0.001923	18893.1	6.042730	178.278	71.998	1.806035	0.035316	0.035039	73.6105	18893.1	0.032394	0.045851	1605.41	80612.2
181	2.000000	1.809305	7.36682e+06	-47689.1	955.82	-29764.8	0.000000	0.000000	7.813193	81.211	NaN	0.000000	0.001602	0.001680	28.078	38.6491	0.001954	19777.8	5.368635	178.715	78.975	1.809039	0.038308	0.038042	81.211	19777.8	0.035229	0.052280	1553.38	79028.5
181	2.000000	1.812358	7.36682e+06	-47689.1	955.819	-29764.8	0.000000	0.000000	7.816560	88.8536	NaN	0.000000	0.001589	0.001709	28.0779	40.4382	0.001754	23057.4	6.026300	175.452	89.3791	1.812119	0.041362	0.041122	88.8536	23057.4	0.038472	0.060138	1477.49	85903
181	2.000000	1.815347	7.36682e+06	-47689.1	955.819	-29764.8	0.000000	0.000000	7.820042	100.854	NaN	0.000000	0.001597	0.001712	28.0782	42.8248	0.001803	23755.2	-0.511038	-177.565	99.1983	1.814991	0.044350	0.043995	100.854	23755.2	0.041166	0.067076	1503.57	83800.7
181	2.000000	1.818330	7.36682e+06	-47689.1	955.818	-29764.8	0.000000	0.000000	7.823566	114.007	NaN	0.000000	0.001585	0.001703	28.0785	45.1287	0.001843	24483	-0.267918	-178.044	114.183	1.818050	0.047334	0.047053	114.007	24483	0.043841	0.074332	1533.75	82044.5
181	2.000000	1.821367	7.36682e+06	-47689.1	955.82	-29764.8	0.000000	0.000000	7.826972	122.972	NaN	0.000000	0.001600	0.001711	28.077	47.6747	0.001839	25927.6	2.551330	178.823	123.965	1.821032	0.050371	0.050035	122.972	25927.6	0.046814	0.082819	1484.82	82313.4
181	2.000000	1.824327	7.36682e+06	-47689.1	955.82	-29764.8	0.000000	0.000000	7.830640	140.205	NaN	0.000000	0.001620	0.001740	28.0768	50.2481	0.001825	27536.5	6.107039	174.723	139.294	1.823963	0.053330	0.052966	140.205	27536.5	0.049511	0.090909	1542.26	83441
181	2.000000	1.827262	7.36682e+06	-47689.1	955.819	-29764.8	0.000000	0.000000	7.833960	149.56	NaN	0.000000	0.001647	0.001693	28.0767	52.9069	0.001792	29521.7	5.061963	175.231	146.764	1.826985	0.056265	0.055988	149.56	29521.7	0.052466	0.100187	1492.81	85213.6
181	2.000000	1.830297	7.36682e+06	-47689.1	955.819	-29764.8	0.000000	0.000000	7.837363	158.509	NaN	0.000000	0.001632	0.001668	28.0766	55.4344	0.001803	30739.3	4.755629	175.636	158.514	1.830079	0.059300	0.059082	158.509	30739.3	0.055433	0.109943	1441.74	84700.2
181	2.000000	1.833316	7.36682e+06	-47689.1	955.819	-29764.8	0.000000	0.000000	7.840864	170.26	NaN	0.000000	0.001656	0.001691	28.077	58.6909	0.001714	34238.8	5.617996	172.7	170.283	1.833066	0.062319	0.062069	170.26	34238.8	0.058589	0.120799	1409.46	90003.7
181	2.000000	1.836230	7.36682e+06	-47689.1	955.819	-29764.8	0.000000	0.000000	7.844589	189.949	NaN	0.000000	0.001639	0.001660	28.0769	61.2894	0.001877	32650.5	4.118997	175.397	184.603	1.835947	0.065234	0.064950	189.949	32650.5	0.060871	0.128948	1473.06	83072.1
181	2.000000	1.839282	7.36682e+06	-47689.1	955.82	-29764.8	0.000000	0.000000	7.848236	204.444	NaN	0.000000	0.001648	0.001715	28.077	64.2036	0.001762	36445.4	10.7897	167.472	203.396	1.839091	0.068285	0.068094	204.444	36445.4	0.064078	0.140837	1451.63	88727.2
181	2.000000	1.842197	7.36682e+06	-47689.1	955.82	-29764.8	0.000000	0.000000	7.852024	225.653	NaN	0.000000	0.001633	0.001708	28.0769	67.5371	0.001836	36780.1	8.082619	170.179	219.697	1.841877	0.071201	0.070880	225.653	36780.1	0.066599	0.150531	1499.05	86611.1
181	2.000000	1.845266	7.36682e+06	-47689.1	955.819	-29764.8	0.000000	0.000000	7.855691	240.211	NaN	0.000000	0.001633	0.001698	28.0769	69.5655	0.001830	38020.5	1.995834	175.809	237.23	1.845030	0.074270	0.074033	240.211	38020.5	0.069531	0.162186	1481.08	86254.9
181	2.000000	1.848397	7.36682e+06	-47689.1	955.821	-29764.8	0.000000	0.000000	7.859276	251.253	NaN	0.000000	0.001616	0.001659	28.0769	73.4077	0.001957	37514.8	5.341979	173.444	256.515	1.848063	0.077400	0.077066	251.253	37514.8	0.072377	0.173892	1444.88	82193.2
181	2.000000	1.851241	7.36682e+06	-47689.1	955.82	-29764.8	0.000000	0.000000	7.863059	274.106	NaN	0.000000	0.001669	0.001675	28.0765	74.1558	0.001899	39040	4.535735	174.459	271.352	1.850920	0.080244	0.079923	274.106	39040	0.074978	0.184926	1482.25	82943.9
181	2.000000	1.854219	7.36682e+06	-47689.1	955.82	-29764.8	0.000000	0.000000	7.866548	286.543	NaN	0.000000	0.001709	0.001698	28.0767	76.0549	0.001826	41657.4	5.116531	172.583	283.117	1.853982	0.083222	0.082985	286.543	41657.4	0.078063	0.198425	1444.09	85441.3
181	2.000000	1.857269	7.36682e+06	-47689.1	955.82	-29764.8	0.000000	0.000000	7.870459	307.477	NaN	0.000000	0.001649	0.001688	28.0778	79.3074	0.001788	44353.3	4.996081	171.913	305.513	1.857025	0.086272	0.086028	307.477	44353.3	0.081073	0.212024	1450.2	88004.9
181	2.000000	1.860292	7.36682e+06	-47689.1	955.82	-29764.8	0.000000	0.000000	7.874330	328.093	NaN	0.000000	0.001634	0.001659	28.078	81.5916	0.001889	43187.5	1.642957	176.467	328.324	1.860010	0.089295	0.089014	328.093	43187.5	0.083598	0.223758	1466.29	83414.6
181	2.000000	1.863225	7.36682e+06	-47689.1	955.82	-29764.8	0.000000	0.000000	7.877974	345.393	NaN	0.000000	0.001584	0.001642	28.0781	86.2016	0.001885	45736.7	8.644157	168.826	343.556	1.862856	0.092229	0.091860	345.393	45736.7	0.086565	0.237922	1451.71	85668.4
181	2.000000	1.866250	7.36682e+06	-47689.1	955.82	-29764.8	0.000000	0.000000	7.881901	367.336	NaN	0.000000	0.001619	0.001665	28.078	87.3172	0.001848	47253.7	2.897102	174.03	365.222	1.865985	0.095254	0.094988	367.336	47253.7	0.089423	0.251953	1457.96	86010.1
181	2.000000	1.869265	7.36682e+06	-47689.1	955.82	-29764.8	0.000000	0.000000	7.885752	387.658	NaN	0.000000	0.001598	0.001620	28.0784	89.0359	0.001748	50926.4	2.932964	173.069	387.24	1.868990	0.098269	0.097993	387.658	50926.4	0.092560	0.267779	1447.68	89914.1
181	2.000000	1.872230	7.36682e+06	-47689.1	955.82	-29764.8	0.000000	0.000000	7.889596	409.029	NaN	0.000000	0.001611	0.001619	28.0779	92.9679	0.001834	50691.8	3.551537	172.709	406.942	1.871917	0.101233	0.100921	409.029	50691.8	0.095182	0.281355	1453.78	87314
181	2.000000	1.875225	7.36682e+06	-47689.1	955.82	-29764.8	0.000000	0.000000	7.893326	426.929	NaN	0.000000	0.001624	0.001653	28.0781	96.4193	0.001823	52901.5	6.125840	169.707	424.366	1.875046	0.104228	0.104049	426.929	52901.5	0.098175	0.297237	1436.33	88652.2
181	2.000000	1.878234	7.36682e+06	-47689.1	955.819	-29764.8	0.000000	0.000000	7.897542	456.259	NaN	0.000000	0.001582	0.001658	28.078	99.1835	0.001825	54351.8	7.376493	168.45	455.226	1.877959	0.107238	0.106963	456.259	54351.8	0.100942	0.312278	1461.07	88862.1