File: remote_trans/data/nanoindenter/0828-1/data/Data_2025-08-06,11h17m57s/2025-07-22_16-23-58_1_630.txt
2025-07-22, 16:23:58, 1
Index	Phase	Displacement	Time	Pos X	Pos Y	Pos Z	Rot A	Rot B	Piezo Z	Force A	Force B	Gripper	Voltage A	Voltage B	Temperature	Amplitude force	Amplitude pos	Stiffness	Phase shift	Phase excitation	Force A raw	Displacement raw	HMax	HMax raw	Real Force	Real Stiffness	Contact Depth	Area	Hardness	Reduced Mod.
[#]	[#]	[um]	[s]	[um]	[um]	[um]	[m°]	[m°]	[um]	[uN]	[uN]	[V]	[V]	[V]	[°C]	[uN]	[um]	[N/m]	[°]	[°]	[uN]	[um]	[um]	[um]	[uN]	[N/m]	[um]	[um^2]	[MPa]	[MPa]
630	1.000000	0.002821	7.37121e+06	-45589.1	1005.82	-29771.9	0.000000	0.000000	6.002815	0.052612	NaN	0.000000	0.001646	0.001675	28.0815	0.043952	0.001109	39.6403	55.3159	-168.168	0.015914	0.001541	-1.105539	-1.106819	0.052612	39.6403	-1.106534	-6.134383E+14	-8.576638E-17	NaN
630	1.000000	0.012872	7.37121e+06	-45589.1	1005.82	-29771.9	0.000000	0.000000	6.012863	-0.020938	NaN	0.000000	0.001652	0.001677	28.081	0.022065	0.001313	16.805	-132.483	18.0377	-0.019168	0.011396	-1.095487	-1.096964	-0.020938	16.805	-1.094553	-4.235865E+14	4.943055E-17	NaN
630	1.000000	0.022776	7.37121e+06	-45589.1	1005.82	-29771.9	0.000000	0.000000	6.022768	0.020273	NaN	0.000000	0.001665	0.001685	28.0809	0.143216	0.001794	79.8338	-168.949	-164.206	0.117840	0.021490	-1.085584	-1.086870	0.020273	79.8338	-1.085775	-3.229033E+14	-6.278425E-17	NaN
630	1.000000	0.032763	7.37121e+06	-45589.1	1005.82	-29771.9	0.000000	0.000000	6.032754	0.004282	NaN	0.000000	0.001625	0.001695	28.0809	0.153186	0.001817	84.3283	-38.4407	14.1721	0.080833	0.031417	-1.075597	-1.076943	0.004282	84.3283	-1.075635	-2.359898E+14	-1.814561E-17	NaN
630	1.000000	0.042737	7.37121e+06	-45589.1	1005.82	-29771.9	0.000000	0.000000	6.042730	0.044249	NaN	0.000000	0.001639	0.001678	28.081	0.036040	0.001933	18.6459	133.419	-166.339	0.050119	0.041450	-1.065623	-1.066910	0.044249	18.6459	-1.067403	-1.829350E+14	-2.418858E-16	NaN
630	1.000000	0.052728	7.37121e+06	-45589.1	1005.82	-29771.9	0.000000	0.000000	6.052718	-0.022763	NaN	0.000000	0.001564	0.001658	28.081	0.015579	0.002022	7.703578	-57.0481	11.7564	0.002910	0.051382	-1.055632	-1.056978	-0.022763	7.703578	-1.053416	-1.186661E+14	1.918251E-16	NaN
630	1.000000	0.062741	7.37121e+06	-45589.1	1005.82	-29771.9	0.000000	0.000000	6.062735	0.083693	NaN	0.000000	0.001554	0.001659	28.0806	0.099120	0.001918	51.674	-98.9505	-170.114	-0.034074	0.061521	-1.045619	-1.046839	0.083693	51.674	-1.046834	-9.679426E+13	-8.646487E-16	NaN
630	1.000000	0.072770	7.37121e+06	-45589.1	1005.82	-29771.9	0.000000	0.000000	6.072760	-0.015698	NaN	0.000000	0.001575	0.001650	28.0808	0.048434	0.001893	25.5847	54.3347	12.1248	-0.095542	0.071428	-1.035590	-1.036932	-0.015698	25.5847	-1.035130	-6.737124E+13	2.330096E-16	NaN
630	1.000000	0.082766	7.37121e+06	-45589.1	1005.82	-29771.9	0.000000	0.000000	6.082758	0.018184	NaN	0.000000	0.001565	0.001705	28.0807	0.044111	0.002137	20.6407	54.9709	-166.491	-0.016692	0.081475	-1.025594	-1.026885	0.018184	20.6407	-1.026255	-5.118045E+13	-3.552956E-16	NaN
630	1.000000	0.092778	7.37121e+06	-45589.1	1005.82	-29771.9	0.000000	0.000000	6.092770	0.022097	NaN	0.000000	0.001607	0.001655	28.0807	0.115228	0.002116	54.4518	-51.64	9.292442	-0.018049	0.091372	-1.015582	-1.016988	0.022097	54.4518	-1.015886	-3.711899E+13	-5.953029E-16	NaN
630	1.000000	0.102779	7.37121e+06	-45589.1	1005.82	-29771.9	0.000000	0.000000	6.102773	0.068923	NaN	0.000000	0.001595	0.001660	28.0818	0.032345	0.002045	15.8197	141.784	-167.483	-0.017469	0.101454	-1.005581	-1.006906	0.068923	15.8197	-1.008848	-2.984574E+13	-2.309304E-15	NaN
630	1.000000	0.112785	7.37121e+06	-45589.1	1005.82	-29771.9	0.000000	0.000000	6.112776	-0.004783	NaN	0.000000	0.001607	0.001654	28.0819	0.066276	0.001959	33.8251	135.839	12.1806	0.067826	0.111397	-0.995574	-0.996962	-0.004783	33.8251	-0.995468	-1.971305E+13	2.426408E-16	NaN
630	1.000000	0.122835	7.37121e+06	-45589.1	1005.82	-29771.9	0.000000	0.000000	6.122826	-0.010874	NaN	0.000000	0.001545	0.001681	28.082	0.015825	0.002110	7.501554	-55.5707	-165.29	0.000948	0.121474	-0.985525	-0.986886	-0.010874	7.501554	-0.984438	-1.400204E+13	7.766249E-16	NaN
630	1.000000	0.132801	7.37121e+06	-45589.1	1005.82	-29771.9	0.000000	0.000000	6.132791	-0.019723	NaN	0.000000	0.001569	0.001673	28.0819	0.022105	0.002005	11.0251	136.103	15.017	-0.114103	0.131422	-0.975559	-0.976938	-0.019723	11.0251	-0.974217	-1.019761E+13	1.934129E-15	NaN
630	1.000000	0.142803	7.37121e+06	-45589.1	1005.82	-29771.9	0.000000	0.000000	6.142795	0.022701	NaN	0.000000	0.001607	0.001656	28.0824	0.065737	0.002068	31.7931	113.498	-164.367	0.011971	0.141510	-0.965557	-0.966850	0.022701	31.7931	-0.966092	-7.924942E+12	-2.864543E-15	NaN
630	1.000000	0.152782	7.37121e+06	-45589.1	1005.82	-29771.9	0.000000	0.000000	6.152773	0.005503	NaN	0.000000	0.001594	0.001668	28.0821	0.022648	0.001946	11.6379	-108.014	13.06	-0.033819	0.151436	-0.955578	-0.956924	0.005503	11.6379	-0.955932	-5.781312E+12	-9.518115E-16	NaN
630	1.000000	0.162776	7.37121e+06	-45589.1	1005.82	-29771.9	0.000000	0.000000	6.162768	0.024938	NaN	0.000000	0.001594	0.001637	28.082	0.058061	0.001961	29.603	124.826	-166.7	0.010891	0.161511	-0.945584	-0.946849	0.024938	29.603	-0.946216	-4.275480E+12	-5.832693E-15	NaN
630	1.000000	0.172816	7.37121e+06	-45589.1	1005.82	-29771.9	0.000000	0.000000	6.172808	0.019113	NaN	0.000000	0.001611	0.001634	28.082	0.038772	0.002116	18.3257	-137.004	12.3038	-0.010907	0.171392	-0.935544	-0.936967	0.019113	18.3257	-0.936326	-3.144639E+12	-6.077835E-15	NaN
630	1.000000	0.182800	7.37121e+06	-45589.1	1005.82	-29771.9	0.000000	0.000000	6.182793	0.052532	NaN	0.000000	0.001598	0.001629	28.0822	0.128573	0.002009	63.9935	73.4705	-166.311	0.024048	0.181513	-0.925560	-0.926847	0.052532	63.9935	-0.926176	-2.293919E+12	-2.290039E-14	NaN
630	1.000000	0.192813	7.37121e+06	-45589.1	1005.82	-29771.9	0.000000	0.000000	6.192804	0.009655	NaN	0.000000	0.001601	0.001663	28.0817	0.084248	0.002038	41.3432	-87.3271	12.7534	-0.036904	0.191427	-0.915547	-0.916933	0.009655	41.3432	-0.915722	-1.657460E+12	-5.825144E-15	NaN
630	1.000000	0.202828	7.37121e+06	-45589.1	1005.82	-29771.9	0.000000	0.000000	6.202820	0.026751	NaN	0.000000	0.001533	0.001682	28.0821	0.051153	0.001944	26.3106	0.473103	-166.482	0.025212	0.201507	-0.905532	-0.906853	0.026751	26.3106	-0.906294	-1.236256E+12	-2.163840E-14	NaN
630	1.000000	0.212805	7.37121e+06	-45589.1	1005.82	-29771.9	0.000000	0.000000	6.212797	0.015467	NaN	0.000000	0.001621	0.001668	28.082	0.067537	0.002085	32.3919	-158.315	14.0761	-0.001112	0.211501	-0.895555	-0.896859	0.015467	32.3919	-0.895913	-8.950292E+11	-1.728101E-14	NaN
630	1.000000	0.222807	7.37121e+06	-45589.1	1005.82	-29771.9	0.000000	0.000000	6.222800	0.040302	NaN	0.000000	0.001634	0.001700	28.0823	0.122655	0.002097	58.4883	121.082	-163.044	-0.010768	0.221507	-0.885552	-0.886853	0.040302	58.4883	-0.886069	-6.588294E+11	-6.117189E-14	NaN
630	1.000000	0.232858	7.37121e+06	-45589.1	1005.82	-29771.9	0.000000	0.000000	6.232852	0.073481	NaN	0.000000	0.001604	0.001696	28.0808	0.075005	0.001853	40.4675	-40.5512	11.2565	0.126735	0.231445	-0.875502	-0.876915	0.073481	40.4675	-0.876864	-4.946468E+11	-1.485530E-13	NaN
630	1.000000	0.242837	7.37121e+06	-45589.1	1005.82	-29771.9	0.000000	0.000000	6.242829	0.027919	NaN	0.000000	0.001571	0.001692	28.0811	0.062498	0.001935	32.3005	-156.427	-162.678	-0.006595	0.241543	-0.865523	-0.866817	0.027919	32.3005	-0.866171	-3.545195E+11	-7.875085E-14	NaN
630	1.000000	0.252854	7.37121e+06	-45589.1	1005.82	-29771.9	0.000000	0.000000	6.252846	0.030520	NaN	0.000000	0.001592	0.001702	28.0809	0.182411	0.002073	87.9916	-103.976	13.1881	0.003578	0.251477	-0.855506	-0.856882	0.030520	87.9916	-0.855766	-2.563347E+11	-1.190639E-13	NaN
630	1.000000	0.262810	7.37122e+06	-45589.1	1005.82	-29771.9	0.000000	0.000000	6.262805	0.085071	NaN	0.000000	0.001590	0.001699	28.0811	0.043792	0.001913	22.892	61.8436	-167.18	-0.000486	0.261521	-0.845550	-0.846839	0.085071	22.892	-0.848337	-2.033379E+11	-4.183725E-13	NaN
630	1.000000	0.272867	7.37122e+06	-45589.1	1005.82	-29771.9	0.000000	0.000000	6.272861	0.078363	NaN	0.000000	0.001662	0.001693	28.081	0.021856	0.001993	10.9663	-46.5173	17.3775	0.075895	0.271464	-0.835493	-0.836895	0.078363	10.9663	-0.840852	-1.610051E+11	-4.867102E-13	NaN
630	1.000000	0.282851	7.37122e+06	-45589.1	1005.82	-29771.9	0.000000	0.000000	6.282843	0.005222	NaN	0.000000	0.001658	0.001719	28.081	0.116454	0.001991	58.4993	128.799	-168.198	-0.049970	0.281562	-0.825508	-0.826798	0.005222	58.4993	-0.825575	-9.995504E+10	-5.223959E-14	NaN
630	1.000000	0.292858	7.37122e+06	-45589.1	1005.82	-29771.9	0.000000	0.000000	6.292849	-0.023881	NaN	0.000000	0.001646	0.001753	28.081	0.103725	0.001961	52.8859	31.6089	16.4277	0.003060	0.291488	-0.815501	-0.816872	-0.023881	52.8859	-0.815163	-7.221152E+10	3.307092E-13	NaN
630	1.000000	0.302835	7.37122e+06	-45589.1	1005.82	-29771.9	0.000000	0.000000	6.302829	0.061966	NaN	0.000000	0.001617	0.001713	28.0812	0.106512	0.001945	54.7679	134.826	-166.501	-0.029469	0.301597	-0.805525	-0.806763	0.061966	54.7679	-0.806373	-5.487373E+10	-1.129238E-12	NaN
630	1.000000	0.312866	7.37122e+06	-45589.1	1005.82	-29771.9	0.000000	0.000000	6.312860	0.057818	NaN	0.000000	0.001580	0.001688	28.0811	0.061394	0.002214	27.7242	80.0316	12.6509	0.065892	0.311464	-0.795493	-0.796896	0.057818	27.7242	-0.797057	-4.101239E+10	-1.409758E-12	NaN
630	1.000000	0.322894	7.37122e+06	-45589.1	1005.82	-29771.9	0.000000	0.000000	6.322886	0.021535	NaN	0.000000	0.001586	0.001675	28.0813	0.046536	0.002104	22.1144	-136.753	-164.751	0.016535	0.321550	-0.785466	-0.786810	0.021535	22.1144	-0.786196	-2.920205E+10	-7.374571E-13	NaN
630	1.000000	0.332870	7.37122e+06	-45589.1	1005.82	-29771.9	0.000000	0.000000	6.332864	0.051708	NaN	0.000000	0.001588	0.001713	28.0808	0.059924	0.001930	31.0532	7.025208	17.6591	0.058959	0.331480	-0.775489	-0.776880	0.051708	31.0532	-0.776738	-2.172217E+10	-2.380442E-12	NaN
630	1.000000	0.342886	7.37122e+06	-45589.1	1005.82	-29771.9	0.000000	0.000000	6.342878	0.034101	NaN	0.000000	0.001569	0.001711	28.0808	0.034951	0.001918	18.2256	-74.6985	-163.241	0.021263	0.341541	-0.765474	-0.766819	0.034101	18.2256	-0.766877	-1.595313E+10	-2.137557E-12	NaN
630	1.000000	0.352889	7.37122e+06	-45589.1	1005.82	-29771.9	0.000000	0.000000	6.352880	-0.004904	NaN	0.000000	0.001547	0.001697	28.0808	0.076234	0.001979	38.5226	51.4598	14.6923	0.019778	0.351480	-0.755471	-0.756880	-0.004904	38.5226	-0.755375	-1.112697E+10	4.407315E-13	NaN
630	1.000000	0.362894	7.37122e+06	-45589.1	1005.82	-29771.9	0.000000	0.000000	6.362888	0.046979	NaN	0.000000	0.001539	0.001704	28.0807	0.037309	0.002088	17.8687	-0.532028	-168.257	0.028428	0.361576	-0.745465	-0.746784	0.046979	17.8687	-0.747437	-8.676214E+9	-5.414647E-12	NaN
630	1.000000	0.372930	7.37122e+06	-45589.1	1005.82	-29771.9	0.000000	0.000000	6.372921	-0.004425	NaN	0.000000	0.001547	0.001679	28.082	0.025801	0.001876	13.7508	160.527	11.6038	-0.126368	0.371478	-0.735430	-0.736881	-0.004425	13.7508	-0.735188	-5.908925E+9	7.489232E-13	NaN
630	1.000000	0.382893	7.37122e+06	-45589.1	1005.82	-29771.9	0.000000	0.000000	6.382885	0.021662	NaN	0.000000	0.001602	0.001734	28.082	0.030145	0.002007	15.0182	59.2738	-165.579	0.045876	0.381598	-0.725467	-0.726761	0.021662	15.0182	-0.726549	-4.505710E+9	-4.807753E-12	NaN
630	1.000000	0.392897	7.37122e+06	-45589.1	1005.82	-29771.9	0.000000	0.000000	6.392887	-0.029887	NaN	0.000000	0.001537	0.001745	28.0821	0.011539	0.002031	5.680274	-115.589	16.5322	-0.022717	0.391570	-0.715463	-0.716790	-0.029887	5.680274	-0.711517	-2.810243E+9	1.063508E-11	NaN
630	1.000000	0.402892	7.37122e+06	-45589.1	1005.82	-29771.9	0.000000	0.000000	6.402884	0.018765	NaN	0.000000	0.001567	0.001751	28.0819	0.105796	0.001982	53.3821	114.592	-167.31	0.030891	0.401643	-0.705468	-0.706717	0.018765	53.3821	-0.705732	-2.343108E+9	-8.008701E-12	NaN
630	1.000000	0.412889	7.37122e+06	-45589.1	1005.82	-29771.9	0.000000	0.000000	6.412881	0.013517	NaN	0.000000	0.001568	0.001732	28.0819	0.079109	0.001926	41.0658	61.2442	13.8168	0.028173	0.411601	-0.695471	-0.696759	0.013517	41.0658	-0.695718	-1.710187E+9	-7.904088E-12	NaN
630	1.000000	0.422935	7.37122e+06	-45589.1	1005.82	-29771.9	0.000000	0.000000	6.422928	0.032603	NaN	0.000000	0.001572	0.001738	28.0818	0.083100	0.001915	43.4009	83.2606	-163.619	0.014935	0.421596	-0.685424	-0.686763	0.032603	43.4009	-0.685988	-1.259154E+9	-2.589246E-11	NaN
630	1.000000	0.432922	7.37122e+06	-45589.1	1005.82	-29771.9	0.000000	0.000000	6.432916	0.074074	NaN	0.000000	0.001547	0.001735	28.0818	0.081983	0.001986	41.2831	119.327	13.6502	0.078419	0.431592	-0.675438	-0.676768	0.074074	41.2831	-0.676784	-9.423544E+8	-7.860544E-11	NaN
630	1.000000	0.442934	7.37122e+06	-45589.1	1005.82	-29771.9	0.000000	0.000000	6.442925	-0.012756	NaN	0.000000	0.001546	0.001734	28.0818	0.005322	0.002059	2.584250	130.986	-167.245	0.037404	0.441614	-0.665425	-0.666746	-0.012756	2.584250	-0.661723	-5.862353E+8	2.175886E-11	NaN
630	1.000000	0.452919	7.37122e+06	-45589.1	1005.82	-29771.9	0.000000	0.000000	6.452911	0.025396	NaN	0.000000	0.001580	0.001695	28.0818	0.073727	0.001993	37.0014	113.749	11.7805	0.048166	0.451547	-0.655441	-0.656812	0.025396	37.0014	-0.655956	-4.887264E+8	-5.196401E-11	NaN
630	1.000000	0.462922	7.37122e+06	-45589.1	1005.82	-29771.9	0.000000	0.000000	6.462913	0.007327	NaN	0.000000	0.001620	0.001737	28.0818	0.020257	0.001909	10.6109	-36.8617	-166.106	0.038901	0.461636	-0.645438	-0.646724	0.007327	10.6109	-0.645956	-3.564388E+8	-2.055692E-11	NaN
630	1.000000	0.472923	7.37122e+06	-45589.1	1005.82	-29771.9	0.000000	0.000000	6.472913	-0.022068	NaN	0.000000	0.001570	0.001720	28.0818	0.044782	0.001899	23.5837	27.0119	13.8532	0.049960	0.471555	-0.635437	-0.636805	-0.022068	23.5837	-0.634735	-2.500530E+8	8.825240E-11	NaN
630	1.000000	0.482925	7.37122e+06	-45589.1	1005.82	-29771.9	0.000000	0.000000	6.482920	0.083389	NaN	0.000000	0.001639	0.001758	28.0816	0.042171	0.001966	21.4495	172.535	-162.688	0.035585	0.481637	-0.625434	-0.626723	0.083389	21.4495	-0.628350	-2.043453E+8	-4.080809E-10	NaN
630	1.000000	0.492928	7.37122e+06	-45589.1	1005.82	-29771.9	0.000000	0.000000	6.492924	0.092945	NaN	0.000000	0.001659	0.001700	28.0818	0.031121	0.001953	15.9329	-11.8732	12.7471	0.107653	0.491595	-0.615431	-0.616764	0.092945	15.9329	-0.619806	-1.559458E+8	-5.960089E-10	NaN
630	1.000000	0.502952	7.37122e+06	-45589.1	1005.82	-29771.9	0.000000	0.000000	6.502944	0.034277	NaN	0.000000	0.001674	0.001703	28.0815	0.034886	0.002078	16.7885	-102.147	-163.967	-0.010405	0.501617	-0.605408	-0.606743	0.034277	16.7885	-0.606940	-1.037528E+8	-3.303703E-10	NaN
630	1.000000	0.512972	7.37122e+06	-45589.1	1005.82	-29771.9	0.000000	0.000000	6.512964	0.016813	NaN	0.000000	0.001674	0.001718	28.0807	0.088263	0.001991	44.3273	-157.615	11.4696	0.011657	0.511591	-0.595388	-0.596769	0.016813	44.3273	-0.595672	-7.258433E+7	-2.316326E-10	NaN
630	1.000000	0.522947	7.37122e+06	-45589.1	1005.82	-29771.9	0.000000	0.000000	6.522939	0.020195	NaN	0.000000	0.001664	0.001712	28.0807	0.063965	0.002017	31.7111	-77.4992	-164.028	-0.001658	0.521652	-0.585413	-0.586707	0.020195	31.7111	-0.585890	-5.321045E+7	-3.795290E-10	NaN
630	1.000000	0.532952	7.37122e+06	-45589.1	1005.82	-29771.9	0.000000	0.000000	6.532943	0.000600	NaN	0.000000	0.001636	0.001709	28.0807	0.047015	0.002026	23.2112	105.666	8.724846	-0.043791	0.531608	-0.575408	-0.576752	0.000600	23.2112	-0.575427	-3.815910E+7	-1.573611E-11	NaN
630	1.000000	0.542967	7.37122e+06	-45589.1	1005.82	-29771.9	0.000000	0.000000	6.542961	0.047327	NaN	0.000000	0.001613	0.001738	28.0806	0.121178	0.002026	59.7977	136.873	-167.273	0.052975	0.541599	-0.565392	-0.566761	0.047327	59.7977	-0.565986	-2.825899E+7	-1.674757E-9	NaN
630	1.000000	0.552969	7.37122e+06	-45589.1	1005.82	-29771.9	0.000000	0.000000	6.552963	0.062018	NaN	0.000000	0.001599	0.001738	28.081	0.092655	0.001976	46.8966	161.123	9.431770	0.056174	0.551604	-0.555391	-0.556756	0.062018	46.8966	-0.556383	-2.081272E+7	-2.979792E-9	NaN
630	1.000000	0.562967	7.37122e+06	-45589.1	1005.82	-29771.9	0.000000	0.000000	6.562959	0.018197	NaN	0.000000	0.001579	0.001744	28.0806	0.096621	0.001917	50.3913	-110.614	-168.595	0.134216	0.561629	-0.545393	-0.546730	0.018197	50.3913	-0.545664	-1.478686E+7	-1.230618E-9	NaN
630	1.000000	0.572964	7.37122e+06	-45589.1	1005.82	-29771.9	0.000000	0.000000	6.572954	-0.027684	NaN	0.000000	0.001590	0.001715	28.0807	0.026241	0.002017	13.0086	-118.049	15.8567	-0.024415	0.571610	-0.535396	-0.536750	-0.027684	13.0086	-0.533799	-1.012341E+7	2.734690E-9	NaN
630	1.000000	0.582949	7.37122e+06	-45589.1	1005.82	-29771.9	0.000000	0.000000	6.582942	0.028003	NaN	0.000000	0.001596	0.001706	28.0807	0.109397	0.002026	54.0031	-81.6857	-167.837	0.055056	0.581696	-0.525410	-0.526663	0.028003	54.0031	-0.525799	-7.83826e+06	-3.572560E-9	NaN
630	1.000000	0.592999	7.37122e+06	-45589.1	1005.82	-29771.9	0.000000	0.000000	6.592990	-0.004982	NaN	0.000000	0.001599	0.001745	28.0808	0.047409	0.002008	23.6068	-136.961	17.5382	-0.014666	0.591663	-0.515361	-0.516697	-0.004982	23.6068	-0.515203	-5.58283e+06	8.923486E-10	NaN
630	1.000000	0.602997	7.37122e+06	-45589.1	1005.82	-29771.9	0.000000	0.000000	6.602987	-0.031369	NaN	0.000000	0.001598	0.001690	28.0807	0.036191	0.002145	16.8688	-145.308	-167.977	-0.002948	0.601672	-0.505363	-0.506688	-0.031369	16.8688	-0.503968	-3.8937e+06	8.056269E-9	NaN
630	1.000000	0.612996	7.37122e+06	-45589.1	1005.82	-29771.9	0.000000	0.000000	6.612988	0.013017	NaN	0.000000	0.001598	0.001728	28.0808	0.051730	0.002117	24.4386	-161.426	15.5329	0.042162	0.611595	-0.495363	-0.496765	0.013017	24.4386	-0.495763	-2.99149e+06	-4.351509E-9	NaN
630	1.000000	0.622999	7.37122e+06	-45589.1	1005.82	-29771.9	0.000000	0.000000	6.622991	0.021382	NaN	0.000000	0.001618	0.001752	28.0811	0.057928	0.001951	29.6857	109.797	-163.095	0.038330	0.621713	-0.485361	-0.486647	0.021382	29.6857	-0.485901	-2.17818e+06	-9.816632E-9	NaN
630	1.000000	0.632976	7.37122e+06	-45589.1	1005.82	-29771.9	0.000000	0.000000	6.632966	-0.023048	NaN	0.000000	0.001616	0.001729	28.0809	0.091951	0.001926	47.7456	36.7538	11.7975	0.011538	0.631600	-0.475384	-0.476759	-0.023048	47.7456	-0.475022	-1.53394e+06	1.502537E-8	NaN
630	1.000000	0.643032	7.37122e+06	-45589.1	1005.82	-29771.9	0.000000	0.000000	6.643022	-0.023204	NaN	0.000000	0.001601	0.001704	28.0821	0.050190	0.001908	26.3102	118.835	-168.243	-0.023401	0.641679	-0.465328	-0.466681	-0.023204	26.3102	-0.464667	-1.09791e+06	2.113445E-8	NaN
630	1.000000	0.652996	7.37122e+06	-45589.1	1005.82	-29771.9	0.000000	0.000000	6.652983	-0.109762	NaN	0.000000	0.001576	0.001727	28.0821	0.115588	0.002059	56.1284	141.067	10.9113	-0.075851	0.651628	-0.455363	-0.456732	-0.109762	56.1284	-0.453897	-774808	1.416633E-7	NaN
630	1.000000	0.663015	7.37122e+06	-45589.1	1005.82	-29771.9	0.000000	0.000000	6.663005	-0.030887	NaN	0.000000	0.001600	0.001702	28.082	0.020231	0.001963	10.3037	-120.66	-164.28	0.032416	0.661705	-0.445345	-0.446655	-0.030887	10.3037	-0.443096	-545819	5.658845E-8	NaN
630	1.000000	0.673028	7.37122e+06	-45589.1	1005.82	-29771.9	0.000000	0.000000	6.673018	-0.039926	NaN	0.000000	0.001628	0.001698	28.0821	0.031554	0.001993	15.8333	-169.567	13.4014	-0.046619	0.671695	-0.435331	-0.436665	-0.039926	15.8333	-0.433440	-398758	1.001249E-7	NaN
630	1.000000	0.683057	7.37122e+06	-45589.1	1005.82	-29771.9	0.000000	0.000000	6.683047	-0.022621	NaN	0.000000	0.001640	0.001723	28.082	0.036926	0.002109	17.5125	-77.1838	-166.241	-0.065490	0.681740	-0.425303	-0.426620	-0.022621	17.5125	-0.424334	-296380	7.632457E-8	NaN
630	1.000000	0.693031	7.37122e+06	-45589.1	1005.82	-29771.9	0.000000	0.000000	6.693024	0.055936	NaN	0.000000	0.001673	0.001749	28.0822	0.138806	0.001918	72.3779	-56.3706	12.3429	-0.014247	0.691618	-0.415329	-0.416742	0.055936	72.3779	-0.415909	-225091	-2.485045E-7	NaN
630	1.000000	0.703022	7.37122e+06	-45589.1	1005.82	-29771.9	0.000000	0.000000	6.703016	0.070287	NaN	0.000000	0.001674	0.001762	28.0819	0.053768	0.002037	26.396	70.5182	-168.182	0.041121	0.701740	-0.405338	-0.406620	0.070287	26.396	-0.407335	-170016	-4.134160E-7	NaN
630	1.000000	0.713050	7.37122e+06	-45589.1	1005.82	-29771.9	0.000000	0.000000	6.713045	0.087702	NaN	0.000000	0.001684	0.001729	28.0821	0.019884	0.002031	9.791487	-113.756	14.9551	0.090862	0.711667	-0.395309	-0.396693	0.087702	9.791487	-0.402027	-142855	-6.139237E-7	NaN
630	1.000000	0.723032	7.37122e+06	-45589.1	1005.82	-29771.9	0.000000	0.000000	6.723022	-0.016804	NaN	0.000000	0.001647	0.001763	28.0822	0.062940	0.002124	29.6296	168.374	-165.106	0.013716	0.721713	-0.385328	-0.386647	-0.016804	29.6296	-0.384903	-81319.2	2.066389E-7	NaN
630	1.000000	0.733018	7.37122e+06	-45589.1	1005.82	-29771.9	0.000000	0.000000	6.733011	0.024483	NaN	0.000000	0.001669	0.001758	28.0819	0.052799	0.001996	26.4539	150.362	13.9347	0.040149	0.731756	-0.375341	-0.376604	0.024483	26.4539	-0.376035	-60667.1	-4.035629E-7	NaN
630	1.000000	0.743060	7.37122e+06	-45589.1	1005.82	-29771.9	0.000000	0.000000	6.743052	0.024666	NaN	0.000000	0.001683	0.001765	28.0818	0.138404	0.001900	72.8534	-35.6935	-166.953	0.044728	0.741704	-0.365300	-0.366655	0.024666	72.8534	-0.365554	-42859.2	-5.755231E-7	NaN
630	1.000000	0.753061	7.37122e+06	-45589.1	1005.82	-29771.9	0.000000	0.000000	6.753052	-0.007298	NaN	0.000000	0.001686	0.001728	28.0818	0.055865	0.002101	26.5903	61.1532	13.5025	-0.062857	0.751693	-0.355299	-0.356667	-0.007298	26.5903	-0.355093	-30258.1	2.412047E-7	NaN
630	1.000000	0.763068	7.37122e+06	-45589.1	1005.82	-29771.9	0.000000	0.000000	6.763057	-0.051675	NaN	0.000000	0.001625	0.001734	28.0822	0.073292	0.001890	38.777	-47.6789	-166.266	0.025566	0.761682	-0.345292	-0.346678	-0.051675	38.777	-0.344292	-21089.2	2.450328E-6	NaN
630	1.000000	0.773059	7.37122e+06	-45589.1	1005.82	-29771.9	0.000000	0.000000	6.773051	0.029384	NaN	0.000000	0.001624	0.001744	28.0818	0.050127	0.001955	25.6437	-92.5916	11.8672	0.055645	0.771672	-0.335301	-0.336688	0.029384	25.6437	-0.336161	-16052.3	-1.830511E-6	NaN
630	1.000000	0.783045	7.37122e+06	-45589.1	1005.82	-29771.9	0.000000	0.000000	6.783034	-0.038266	NaN	0.000000	0.001564	0.001741	28.0807	0.067944	0.002037	33.3587	153.846	-167.987	0.023506	0.781714	-0.325315	-0.326646	-0.038266	33.3587	-0.324455	-10817.6	3.537392E-6	NaN
630	1.000000	0.793087	7.37122e+06	-45589.1	1005.82	-29771.9	0.000000	0.000000	6.793078	-0.021603	NaN	0.000000	0.001581	0.001723	28.0809	0.069024	0.001947	35.4517	145.773	12.8465	0.018770	0.791735	-0.315272	-0.316624	-0.021603	35.4517	-0.314815	-7802.29	2.768867E-6	NaN
630	1.000000	0.803088	7.37122e+06	-45589.1	1005.82	-29771.9	0.000000	0.000000	6.803081	0.031134	NaN	0.000000	0.001583	0.001749	28.0814	0.024784	0.002049	12.0966	158.287	-165.967	0.027258	0.801795	-0.305272	-0.306565	0.031134	12.0966	-0.307202	-6020.26	-5.171479E-6	NaN
630	1.000000	0.813087	7.37122e+06	-45589.1	1005.82	-29771.9	0.000000	0.000000	6.813080	0.045272	NaN	0.000000	0.001573	0.001705	28.0808	0.070980	0.001905	37.2632	132.118	16.9097	0.039730	0.811732	-0.295273	-0.296628	0.045272	37.2632	-0.296184	-4128.27	-1.096645E-5	NaN
630	1.000000	0.823054	7.37122e+06	-45589.1	1005.82	-29771.9	0.000000	0.000000	6.823046	0.026393	NaN	0.000000	0.001572	0.001742	28.0809	0.079621	0.001994	39.9304	26.5099	-165.743	-0.103593	0.821720	-0.285306	-0.286639	0.026393	39.9304	-0.285801	-2886.1	-9.144764E-6	NaN
630	1.000000	0.833081	7.37122e+06	-45589.1	1005.82	-29771.9	0.000000	0.000000	6.833076	0.080344	NaN	0.000000	0.001570	0.001763	28.0808	0.089600	0.001980	45.2431	-66.9848	14.6376	-0.027669	0.831713	-0.275279	-0.276646	0.080344	45.2431	-0.276611	-2097.84	-3.829845E-5	NaN
630	1.000000	0.843076	7.37122e+06	-45589.1	1005.82	-29771.9	0.000000	0.000000	6.843067	-0.018024	NaN	0.000000	0.001565	0.001747	28.0809	0.057009	0.002089	27.2858	-100.81	-165.952	0.031909	0.841744	-0.265283	-0.266615	-0.018024	27.2858	-0.264788	-1387.24	1.299276E-5	NaN
630	1.000000	0.853069	7.37122e+06	-45589.1	1005.82	-29771.9	0.000000	0.000000	6.853057	-0.084779	NaN	0.000000	0.001618	0.001715	28.0809	0.108413	0.002012	53.8732	-178.575	13.7225	-0.001121	0.851755	-0.255290	-0.256605	-0.084779	53.8732	-0.254110	-951.503	8.910033E-5	NaN
630	1.000000	0.863089	7.37122e+06	-45589.1	1005.82	-29771.9	0.000000	0.000000	6.863082	0.041781	NaN	0.000000	0.001570	0.001707	28.0808	0.043004	0.001909	22.5276	-106.502	-168.324	-0.056180	0.861767	-0.245271	-0.246592	0.041781	22.5276	-0.246662	-729.889	-5.724301E-5	NaN
630	1.000000	0.873129	7.37122e+06	-45589.1	1005.82	-29771.9	0.000000	0.000000	6.873123	0.059658	NaN	0.000000	0.001619	0.001733	28.0811	0.130803	0.001982	65.9935	-169.542	12.9327	0.051000	0.871697	-0.235230	-0.236663	0.059658	65.9935	-0.235908	-496.026	-0.000120	NaN
630	1.000000	0.883126	7.37122e+06	-45589.1	1005.82	-29771.9	0.000000	0.000000	6.883118	0.008964	NaN	0.000000	0.001596	0.001683	28.0809	0.010670	0.001931	5.524297	-37.4656	-168.962	0.028329	0.881766	-0.225233	-0.226594	0.008964	5.524297	-0.226450	-351.843	-2.547607E-5	NaN
630	1.000000	0.893077	7.37122e+06	-45589.1	1005.82	-29771.9	0.000000	0.000000	6.893066	-0.055885	NaN	0.000000	0.001605	0.001744	28.0809	0.102343	0.001877	54.5117	104.766	14.1736	-0.032537	0.891719	-0.215282	-0.216641	-0.055885	54.5117	-0.214513	-226.823	0.000246	NaN
630	1.000000	0.903114	7.37122e+06	-45589.1	1005.82	-29771.9	0.000000	0.000000	6.903105	-0.020956	NaN	0.000000	0.001592	0.001709	28.0809	0.082926	0.001988	41.7131	42.6725	-168.075	-0.021951	0.901817	-0.205246	-0.206543	-0.020956	41.7131	-0.204869	-158.277	0.000132	NaN
630	1.000000	0.913085	7.37122e+06	-45589.1	1005.82	-29771.9	0.000000	0.000000	6.913075	-0.031883	NaN	0.000000	0.001579	0.001738	28.0808	0.086156	0.002052	41.9799	125.674	12.1115	-0.000564	0.911770	-0.195275	-0.196590	-0.031883	41.9799	-0.194705	-107.726	0.000296	NaN
630	1.000000	0.923104	7.37122e+06	-45589.1	1005.82	-29771.9	0.000000	0.000000	6.923095	-0.007929	NaN	0.000000	0.001593	0.001716	28.0822	0.035764	0.002057	17.3848	56.7717	-166.278	0.011401	0.921808	-0.185256	-0.186552	-0.007929	17.3848	-0.184914	-73.9057	0.000107	NaN
630	1.000000	0.933112	7.37122e+06	-45589.1	1005.82	-29771.9	0.000000	0.000000	6.933106	0.061095	NaN	0.000000	0.001612	0.001700	28.0819	0.082554	0.002017	40.9265	-94.4594	13.0873	0.023201	0.931808	-0.175248	-0.176551	0.061095	40.9265	-0.176367	-52.8986	-0.001155	NaN
630	1.000000	0.943124	7.37122e+06	-45589.1	1005.82	-29771.9	0.000000	0.000000	6.943113	-0.053673	NaN	0.000000	0.001610	0.001713	28.0824	0.034196	0.002058	16.6179	-82.1729	-166.255	-0.019951	0.941816	-0.165236	-0.166544	-0.053673	16.6179	-0.162813	-30.7473	0.001746	NaN
630	1.000000	0.953160	7.37122e+06	-45589.1	1005.82	-29771.9	0.000000	0.000000	6.953153	0.039764	NaN	0.000000	0.001617	0.001659	28.0822	0.095474	0.002171	43.9793	163.167	13.108	0.124286	0.951777	-0.155200	-0.156582	0.039764	43.9793	-0.155878	-23.14	-0.001718	NaN
630	1.000000	0.963108	7.37122e+06	-45589.1	1005.82	-29771.9	0.000000	0.000000	6.963098	-0.028314	NaN	0.000000	0.001604	0.001645	28.0822	0.066552	0.001862	35.7352	100.156	-164.832	-0.015526	0.961776	-0.145252	-0.146584	-0.028314	35.7352	-0.144657	-14.4486	0.001960	NaN
630	1.000000	0.973155	7.37122e+06	-45589.1	1005.82	-29771.9	0.000000	0.000000	6.973146	-0.009992	NaN	0.000000	0.001601	0.001704	28.082	0.062496	0.001940	32.2106	13.2934	10.7475	0.003338	0.971760	-0.135205	-0.136600	-0.009992	32.2106	-0.134972	-9.500860	0.001052	NaN
630	1.000000	0.983146	7.37122e+06	-45589.1	1005.82	-29771.9	0.000000	0.000000	6.983138	0.003571	NaN	0.000000	0.001594	0.001701	28.0823	0.060973	0.001951	31.2501	-160.957	-168.574	0.012890	0.981826	-0.125214	-0.126534	0.003571	31.2501	-0.125299	-6.164692	-0.000579	NaN
630	1.000000	0.993166	7.37122e+06	-45589.1	1005.82	-29771.9	0.000000	0.000000	6.993155	-0.060423	NaN	0.000000	0.001600	0.001702	28.0819	0.063691	0.001923	33.1169	3.822827	14.8693	-0.049516	0.991765	-0.115193	-0.116594	-0.060423	33.1169	-0.113825	-3.612627	0.016725	NaN
630	1.000000	1.003140	7.37122e+06	-45589.1	1005.82	-29771.9	0.000000	0.000000	7.003132	0.017362	NaN	0.000000	0.001547	0.001695	28.0819	0.025609	0.002009	12.7484	168.619	-168.37	0.000364	1.001862	-0.105220	-0.106498	0.017362	12.7484	-0.106241	-2.499766	-0.006946	NaN
630	1.000000	1.013149	7.37122e+06	-45589.1	1005.82	-29771.9	0.000000	0.000000	7.013141	0.010900	NaN	0.000000	0.001661	0.001712	28.082	0.081341	0.002023	40.2026	-127.734	13.4393	-0.009941	1.011786	-0.095211	-0.096574	0.010900	40.2026	-0.095414	-1.441593	-0.007561	NaN
630	1.000000	1.023176	7.37122e+06	-45589.1	1005.82	-29771.9	0.000000	0.000000	7.023170	0.050985	NaN	0.000000	0.001660	0.001717	28.082	0.092183	0.001921	47.9834	34.0518	-165.572	0.014877	1.021899	-0.085183	-0.086461	0.050985	47.9834	-0.085980	-0.867619	-0.058765	NaN
630	1.000000	1.033144	7.37122e+06	-45589.1	1005.82	-29771.9	0.000000	0.000000	7.033137	0.041319	NaN	0.000000	0.001669	0.001688	28.0819	0.087035	0.001863	46.7253	-11.7899	16.8231	-0.004580	1.031808	-0.075216	-0.076551	0.041319	46.7253	-0.075879	-0.486633	-0.084908	NaN
630	1.000000	1.043185	7.37122e+06	-45589.1	1005.82	-29771.9	0.000000	0.000000	7.043175	-0.033008	NaN	0.000000	0.001653	0.001721	28.0818	0.114745	0.002014	56.9602	106.908	-165.997	-0.021275	1.041820	-0.065175	-0.066540	-0.033008	56.9602	-0.064740	-0.245112	0.134663	NaN
630	1.000000	1.053157	7.37122e+06	-45589.1	1005.82	-29771.9	0.000000	0.000000	7.053147	-0.028058	NaN	0.000000	0.001642	0.001725	28.0808	0.087978	0.002087	42.1567	-28.7498	14.6397	0.046444	1.051832	-0.055202	-0.056528	-0.028058	42.1567	-0.054703	-0.126201	0.222325	NaN
630	1.000000	1.063175	7.37122e+06	-45589.1	1005.82	-29771.9	0.000000	0.000000	7.063166	-0.016971	NaN	0.000000	0.001672	0.001726	28.0805	0.051028	0.001924	26.5205	165.435	-163.242	-0.032777	1.061870	-0.045185	-0.046490	-0.016971	26.5205	-0.044705	-0.062945	0.269623	NaN
630	1.000000	1.073218	7.37122e+06	-45589.1	1005.82	-29771.9	0.000000	0.000000	7.073208	-0.038902	NaN	0.000000	0.001646	0.001693	28.0807	0.052655	0.002021	26.0569	-162.897	12.9358	-0.005873	1.071822	-0.035141	-0.036538	-0.038902	26.0569	-0.034022	-0.029977	1.297728	NaN
630	1.000000	1.083160	7.37122e+06	-45589.1	1005.82	-29771.9	0.000000	0.000000	7.083149	-0.077915	NaN	0.000000	0.001667	0.001685	28.0804	0.090597	0.001982	45.7195	-157.243	-162.643	-0.063443	1.081871	-0.025199	-0.026489	-0.077915	45.7195	-0.023921	-0.015816	4.926237	NaN
630	1.000000	1.093197	7.37122e+06	-45589.1	1005.82	-29771.9	0.000000	0.000000	7.093186	-0.060739	NaN	0.000000	0.001643	0.001692	28.081	0.142191	0.002046	69.4831	71.5114	13.8098	-0.043553	1.091854	-0.015163	-0.016505	-0.060739	69.4831	-0.014507	-0.008982	6.762287	NaN
630	1.000000	1.103179	7.37122e+06	-45589.1	1005.82	-29771.9	0.000000	0.000000	7.103171	0.008956	NaN	0.000000	0.001672	0.001699	28.0804	0.108013	0.002086	51.7729	154.621	-165.569	0.000565	1.101913	-0.005181	-0.006447	0.008956	51.7729	-0.005310	-0.003611	-2.480346	NaN
630	2.000000	1.112904	7.37122e+06	-45589.1	1005.82	-29771.9	0.000000	0.000000	7.113241	8.421596	NaN	0.000000	0.001657	0.001719	28.0803	7.199371	0.001683	4277.42	8.143756	9.051816	6.081566	1.111769	0.004544	0.003410	8.421596	4277.42	0.003067	0.002437	3456.31	79170.7
630	2.000000	1.115804	7.37122e+06	-45589.1	1005.82	-29771.9	0.000000	0.000000	7.116218	10.2815	NaN	0.000000	0.001636	0.001702	28.0808	10.7379	0.001706	6294.51	8.938501	-178.407	10.1623	1.115540	0.007444	0.007180	10.2815	6294.51	0.006219	0.005274	1949.6	79191.6
630	2.000000	1.118330	7.37122e+06	-45589.1	1005.82	-29771.9	0.000000	0.000000	7.119017	16.9132	NaN	0.000000	0.001687	0.001644	28.0807	13.012	0.001725	7542.72	8.396185	4.549532	15.9674	1.117965	0.009970	0.009605	16.9132	7542.72	0.008289	0.007341	2303.94	80431
630	2.000000	1.120749	7.37122e+06	-45589.1	1005.82	-29771.9	0.000000	0.000000	7.121599	20.8896	NaN	0.000000	0.001695	0.001662	28.0805	16.2502	0.001754	9264.39	7.044220	-178.048	18.8452	1.120486	0.012389	0.012126	20.8896	9264.39	0.010698	0.009967	2095.8	84781.4
630	2.000000	1.123243	7.37122e+06	-45589.1	1005.82	-29771.9	0.000000	0.000000	7.124383	27.938	NaN	0.000000	0.001685	0.001683	28.0808	19.8073	0.001789	11070.6	6.872058	0.831509	26.0731	1.122942	0.014884	0.014582	27.938	11070.6	0.012991	0.012699	2200.04	89755.4
630	2.000000	1.125754	7.37122e+06	-45589.1	1005.82	-29771.9	0.000000	0.000000	7.127222	35.9222	NaN	0.000000	0.001655	0.001670	28.0806	22.0225	0.001690	13030.4	1.865799	-176.146	34.6855	1.125394	0.017394	0.017034	35.9222	13030.4	0.015327	0.015724	2284.6	94941
630	2.000000	1.128272	7.37122e+06	-45589.1	1005.82	-29771.9	0.000000	0.000000	7.130099	44.6561	NaN	0.000000	0.001659	0.001679	28.0808	25.0077	0.001806	13847.8	6.777177	0.931232	43.0936	1.127901	0.019912	0.019542	44.6561	13847.8	0.017493	0.018755	2380.99	92382.7
630	2.000000	1.130716	7.37122e+06	-45589.1	1005.82	-29771.9	0.000000	0.000000	7.132882	52.9107	NaN	0.000000	0.001710	0.001689	28.0806	27.61	0.001783	15488.5	7.103196	178.341	51.0852	1.130395	0.022356	0.022035	52.9107	15488.5	0.019794	0.022219	2381.31	94933.7
630	2.000000	1.133235	7.37122e+06	-45589.1	1005.82	-29771.9	0.000000	0.000000	7.135653	59.0368	NaN	0.000000	0.001625	0.001633	28.082	29.6281	0.001811	16358.1	5.080112	1.149637	57.2519	1.132923	0.024875	0.024563	59.0368	16358.1	0.022168	0.026064	2265.04	92572.5
630	2.000000	1.135717	7.37122e+06	-45589.1	1005.82	-29771.9	0.000000	0.000000	7.138440	66.4716	NaN	0.000000	0.001643	0.001667	28.0821	32.1203	0.001806	17784.2	3.796634	-179.002	65.801	1.135486	0.027357	0.027126	66.4716	17784.2	0.024554	0.030208	2200.43	93485.2
630	2.000000	1.138264	7.37122e+06	-45589.1	1005.82	-29771.9	0.000000	0.000000	7.141447	77.6338	NaN	0.000000	0.001618	0.001689	28.0822	34.1298	0.001895	18007	8.863584	-2.708125	77.174	1.137876	0.029905	0.029516	77.6338	18007	0.026671	0.034126	2274.9	89057.3
630	2.000000	1.140730	7.37122e+06	-45589.1	1005.82	-29771.9	0.000000	0.000000	7.144129	82.9192	NaN	0.000000	0.001630	0.001683	28.0822	36.967	0.001995	18525.3	5.586186	179.044	82.9786	1.140446	0.032370	0.032086	82.9192	18525.3	0.029013	0.038722	2141.38	86011.5
630	2.000000	1.143241	7.37122e+06	-45589.1	1005.82	-29771.9	0.000000	0.000000	7.147010	91.8812	NaN	0.000000	0.001614	0.001660	28.0822	38.726	0.001938	19977.6	5.106669	-0.521382	90.8745	1.142823	0.034882	0.034463	91.8812	19977.6	0.031432	0.043765	2099.43	87247.5
630	2.000000	1.145691	7.37122e+06	-45589.1	1005.82	-29771.9	0.000000	0.000000	7.149759	99.1755	NaN	0.000000	0.001647	0.001686	28.0823	39.6761	0.001763	22499.1	1.145619	-178.924	97.262	1.145450	0.037331	0.037091	99.1755	22499.1	0.034025	0.049501	2003.52	92391.6
630	2.000000	1.148248	7.37122e+06	-45589.1	1005.82	-29771.9	0.000000	0.000000	7.152795	110.836	NaN	0.000000	0.001664	0.001703	28.082	42.1719	0.001794	23508.6	7.578001	-4.936031	110.433	1.147899	0.039888	0.039539	110.836	23508.6	0.036352	0.054941	2017.37	91633.3
630	2.000000	1.150717	7.37122e+06	-45589.1	1005.82	-29771.9	0.000000	0.000000	7.155438	115.06	NaN	0.000000	0.001581	0.001673	28.0819	43.8434	0.001722	25454.4	5.258361	175.162	114.347	1.150471	0.042357	0.042111	115.06	25454.4	0.038967	0.061386	1874.36	93864.2
630	2.000000	1.153172	7.37122e+06	-45589.1	1005.82	-29771.9	0.000000	0.000000	7.158361	126.426	NaN	0.000000	0.001584	0.001668	28.0817	46.9805	0.001793	26209.3	9.226584	-8.459688	124.161	1.152755	0.044813	0.044395	126.426	26209.3	0.041195	0.067153	1882.67	92405
630	2.000000	1.155664	7.37122e+06	-45589.1	1005.82	-29771.9	0.000000	0.000000	7.161317	137.728	NaN	0.000000	0.001597	0.001657	28.0824	49.5977	0.001754	28274.1	5.005139	174.696	136.629	1.155374	0.047305	0.047014	137.728	28274.1	0.043651	0.073804	1866.13	95087.1
630	2.000000	1.158218	7.37122e+06	-45589.1	1005.82	-29771.9	0.000000	0.000000	7.164224	146.305	NaN	0.000000	0.001595	0.001664	28.0824	51.977	0.001851	28084.5	7.315217	-6.663483	144.406	1.157946	0.049859	0.049586	146.305	28084.5	0.045952	0.080312	1821.72	90542
630	2.000000	1.160647	7.37122e+06	-45589.1	1005.82	-29771.9	0.000000	0.000000	7.167266	161.226	NaN	0.000000	0.001605	0.001655	28.0822	53.5364	0.001903	28131.3	1.253095	178.861	158.097	1.160355	0.052287	0.051995	161.226	28131.3	0.047989	0.086299	1868.22	87490.2
630	2.000000	1.163153	7.37122e+06	-45589.1	1005.82	-29771.9	0.000000	0.000000	7.170153	170.495	NaN	0.000000	0.001624	0.001646	28.0824	56.6202	0.001943	29146.8	5.772001	-5.506275	166.544	1.162826	0.054793	0.054466	170.495	29146.8	0.050406	0.093672	1820.13	87008
630	2.000000	1.165648	7.37122e+06	-45589.1	1005.82	-29771.9	0.000000	0.000000	7.173165	183.072	NaN	0.000000	0.001622	0.001642	28.0822	58.0804	0.001894	30668.7	2.802765	176.605	181.105	1.165453	0.057288	0.057094	183.072	30668.7	0.052811	0.101300	1807.22	88036.6
630	2.000000	1.168201	7.37122e+06	-45589.1	1005.82	-29771.9	0.000000	0.000000	7.176201	194.814	NaN	0.000000	0.001577	0.001665	28.081	59.2222	0.001735	34132.6	2.518524	-3.280838	193.915	1.167929	0.059842	0.059569	194.814	34132.6	0.055561	0.110373	1765.05	93866.5
630	2.000000	1.170625	7.37122e+06	-45589.1	1005.82	-29771.9	0.000000	0.000000	7.179232	209.598	NaN	0.000000	0.001591	0.001674	28.0809	62.7999	0.001792	35054.3	7.909162	169.995	205.143	1.170356	0.062265	0.061996	209.598	35054.3	0.057781	0.117972	1776.68	93245.1
630	2.000000	1.173134	7.37122e+06	-45589.1	1005.82	-29771.9	0.000000	0.000000	7.182443	226.656	NaN	0.000000	0.001565	0.001682	28.0809	63.9089	0.001864	34289.9	4.391572	-4.463519	221.869	1.172784	0.064775	0.064425	226.656	34289.9	0.059817	0.125154	1811.02	88555.9
630	2.000000	1.175651	7.37122e+06	-45589.1	1005.82	-29771.9	0.000000	0.000000	7.185539	240.745	NaN	0.000000	0.001582	0.001653	28.0809	67.3709	0.001778	37898.1	4.937237	172.811	239.277	1.175295	0.067292	0.066935	240.745	37898.1	0.062527	0.135027	1782.94	94228.1
630	2.000000	1.178167	7.37122e+06	-45589.1	1005.82	-29771.9	0.000000	0.000000	7.188721	256.947	NaN	0.000000	0.001554	0.001651	28.0808	69.5494	0.001789	38886.1	8.559557	-10.1354	252.765	1.177707	0.069807	0.069347	256.947	38886.1	0.064851	0.143777	1787.12	93696.4
630	2.000000	1.180642	7.37122e+06	-45589.1	1005.82	-29771.9	0.000000	0.000000	7.191760	270.693	NaN	0.000000	0.001570	0.001680	28.0808	72.2074	0.001964	36767.9	5.890242	172.588	269.034	1.180303	0.072282	0.071943	270.693	36767.9	0.066760	0.151159	1790.78	86402.3
630	2.000000	1.183148	7.37122e+06	-45589.1	1005.82	-29771.9	0.000000	0.000000	7.195033	289.342	NaN	0.000000	0.001635	0.001652	28.081	73.9675	0.001733	42679.8	5.515513	-7.955783	286.61	1.182696	0.074788	0.074337	289.342	42679.8	0.069704	0.162885	1776.36	96617.3
630	2.000000	1.185727	7.37122e+06	-45589.1	1005.82	-29771.9	0.000000	0.000000	7.197897	296.252	NaN	0.000000	0.001598	0.001698	28.0809	77.2018	0.001831	42158.6	3.204141	174.131	299.789	1.185471	0.077368	0.077111	296.252	42158.6	0.072097	0.172724	1715.17	92679.3
630	2.000000	1.188194	7.37122e+06	-45589.1	1005.82	-29771.9	0.000000	0.000000	7.201146	315.284	NaN	0.000000	0.001680	0.001662	28.0809	78.5706	0.001778	44186.1	7.348626	-9.932764	315.461	1.187767	0.079834	0.079407	315.284	44186.1	0.074483	0.182801	1724.74	94421.3
630	2.000000	1.190688	7.37122e+06	-45589.1	1005.82	-29771.9	0.000000	0.000000	7.204165	328.064	NaN	0.000000	0.001661	0.001704	28.0808	80.397	0.001773	45337.9	6.279337	170.335	330.699	1.190369	0.082328	0.082009	328.064	45337.9	0.076901	0.193288	1697.29	94217.7
630	2.000000	1.193193	7.37122e+06	-45589.1	1005.82	-29771.9	0.000000	0.000000	7.207358	344.799	NaN	0.000000	0.001657	0.001707	28.081	81.7941	0.001763	46385	2.793512	-6.389032	344.156	1.192945	0.084833	0.084585	344.799	46385	0.079258	0.203775	1692.06	93880.3
630	2.000000	1.195636	7.37122e+06	-45589.1	1005.82	-29771.9	0.000000	0.000000	7.210419	359.825	NaN	0.000000	0.001643	0.001697	28.0809	85.2541	0.001866	45676.9	3.140306	173.025	359.537	1.195486	0.087276	0.087126	359.825	45676.9	0.081368	0.213382	1686.29	90342.2
630	2.000000	1.198189	7.37122e+06	-45589.1	1005.82	-29771.9	0.000000	0.000000	7.214302	392.171	NaN	0.000000	0.001659	0.001684	28.0809	86.3467	0.001801	47947.6	4.584645	-7.631138	390.225	1.197717	0.089829	0.089357	392.171	47947.6	0.083695	0.224216	1749.08	92513.8
630	2.000000	1.200739	7.37122e+06	-45589.1	1005.82	-29771.9	0.000000	0.000000	7.217496	407.857	NaN	0.000000	0.001623	0.001720	28.0824	88.52	0.001873	47251.4	7.185872	169.416	410.802	1.200294	0.092379	0.091934	407.857	47251.4	0.085905	0.234739	1737.49	89103.5
630	2.000000	1.203046	7.37122e+06	-45589.1	1005.82	-29771.9	0.000000	0.000000	7.220568	426.453	NaN	0.000000	0.001630	0.001684	28.0821	90.0259	0.001837	49000.6	3.896762	-7.577033	418.753	1.202746	0.094686	0.094386	426.453	49000.6	0.088159	0.245701	1735.66	90317.3
630	2.000000	1.205640	7.37122e+06	-45589.1	1005.82	-29771.9	0.000000	0.000000	7.223366	431.425	NaN	0.000000	0.001642	0.001699	28.0816	92.8897	0.001788	51945	4.556550	170.731	428.844	1.205443	0.097280	0.097084	431.425	51945	0.091051	0.260112	1658.62	93054.4
630	2.000000	1.208091	7.37122e+06	-45589.1	1005.82	-29771.9	0.000000	0.000000	7.227318	467.94	NaN	0.000000	0.001634	0.001659	28.0819	93.6036	0.001840	50880	3.974830	-7.889640	462.226	1.207774	0.099731	0.099414	467.94	50880	0.092833	0.269182	1738.38	89597.8
630	2.000000	1.210753	7.37122e+06	-45589.1	1005.82	-29771.9	0.000000	0.000000	7.230704	485.545	NaN	0.000000	0.001646	0.001705	28.0823	96.5154	0.001805	53475.1	5.491294	170.823	492.202	1.210299	0.102393	0.101939	485.545	53475.1	0.095583	0.283462	1712.91	91765.1
630	2.000000	1.211505	7.37122e+06	-45589.1	1005.82	-29771.9	0.000000	0.000000	7.231885	495.97	NaN	0.000000	0.001653	0.001720	28.0824	98.5263	0.001867	52774.7	4.615925	171.496	485.949	1.211210	0.103146	0.102851	495.97	52774.7	0.096097	0.286169	1733.14	90133.8