File: remote_trans/data/nanoindenter/0828-1/data/Data_2025-08-06,11h17m57s/2025-07-22_16-23-58_1_205.txt
2025-07-22, 16:23:58, 1
Index	Phase	Displacement	Time	Pos X	Pos Y	Pos Z	Rot A	Rot B	Piezo Z	Force A	Force B	Gripper	Voltage A	Voltage B	Temperature	Amplitude force	Amplitude pos	Stiffness	Phase shift	Phase excitation	Force A raw	Displacement raw	HMax	HMax raw	Real Force	Real Stiffness	Contact Depth	Area	Hardness	Reduced Mod.
[#]	[#]	[um]	[s]	[um]	[um]	[um]	[m°]	[m°]	[um]	[uN]	[uN]	[V]	[V]	[V]	[°C]	[uN]	[um]	[N/m]	[°]	[°]	[uN]	[um]	[um]	[um]	[uN]	[N/m]	[um]	[um^2]	[MPa]	[MPa]
205	1.000000	0.002262	7.36705e+06	-48889.1	955.819	-29760.6	0.000000	0.000000	6.002788	-0.016919	NaN	0.000000	0.001686	0.001727	28.0773	0.079926	0.001033	77.3473	-176.771	-168.997	-0.031027	0.001072	-1.734649	-1.735839	-0.016919	77.3473	-1.734485	-1.460375E+23	1.158534E-25	NaN
205	1.000000	0.014300	7.36705e+06	-48889.1	955.818	-29760.6	0.000000	0.000000	6.014829	0.068897	NaN	0.000000	0.001676	0.001693	28.0769	0.079043	0.001774	44.5574	118.559	-170.442	0.077903	0.013105	-1.722611	-1.723806	0.068897	44.5574	-1.723771	-1.052395E+23	-6.546646E-25	NaN
205	1.000000	0.026280	7.36705e+06	-48889.1	955.819	-29760.6	0.000000	0.000000	6.026806	-0.035914	NaN	0.000000	0.001701	0.001681	28.0768	0.117707	0.001751	67.2098	132.669	-165.747	-0.053954	0.024917	-1.710631	-1.711994	-0.035914	67.2098	-1.710230	-6.955482E+22	5.163475E-25	NaN
205	1.000000	0.038205	7.36705e+06	-48889.1	955.819	-29760.6	0.000000	0.000000	6.038733	0.012803	NaN	0.000000	0.001687	0.001693	28.0767	0.043961	0.001875	23.4405	114.751	-167.249	-0.072008	0.036903	-1.698706	-1.700008	0.012803	23.4405	-1.699115	-4.950915E+22	-2.585932E-25	NaN
205	1.000000	0.050252	7.36705e+06	-48889.1	955.818	-29760.6	0.000000	0.000000	6.050777	-0.041415	NaN	0.000000	0.001693	0.001693	28.0768	0.068632	0.002061	33.3038	161.398	-166.824	-0.021975	0.048911	-1.686659	-1.688001	-0.041415	33.3038	-1.685727	-3.287103E+22	1.259939E-24	NaN
205	1.000000	0.062252	7.36705e+06	-48889.1	955.818	-29760.6	0.000000	0.000000	6.062777	-0.023374	NaN	0.000000	0.001675	0.001724	28.0767	0.046634	0.001974	23.6231	123.292	-164.98	0.093268	0.060882	-1.674659	-1.676029	-0.023374	23.6231	-1.673917	-2.290312E+22	1.020554E-24	NaN
205	1.000000	0.074228	7.36705e+06	-48889.1	955.819	-29760.6	0.000000	0.000000	6.074756	0.034791	NaN	0.000000	0.001649	0.001704	28.0771	0.062044	0.001938	32.021	28.7394	-165.035	0.044494	0.072917	-1.662683	-1.663994	0.034791	32.021	-1.663498	-1.665070E+22	-2.089436E-24	NaN
205	1.000000	0.086254	7.36705e+06	-48889.1	955.818	-29760.6	0.000000	0.000000	6.086780	0.001797	NaN	0.000000	0.001690	0.001717	28.0768	0.101633	0.002018	50.3629	145.161	-164.408	-0.049904	0.084899	-1.650657	-1.652012	0.001797	50.3629	-1.650684	-1.124927E+22	-1.597554E-25	NaN
205	1.000000	0.098228	7.36705e+06	-48889.1	955.818	-29760.6	0.000000	0.000000	6.098755	0.007400	NaN	0.000000	0.001727	0.001685	28.0769	0.041729	0.001938	21.5276	-2.442360	-166.28	-0.018649	0.096915	-1.638683	-1.639996	0.007400	21.5276	-1.638941	-7.852691E+21	-9.422903E-25	NaN
205	1.000000	0.110262	7.36705e+06	-48889.1	955.819	-29760.6	0.000000	0.000000	6.110789	-0.001048	NaN	0.000000	0.001684	0.001709	28.0773	0.101329	0.001981	51.1581	120.412	-167.297	-0.011779	0.108961	-1.626649	-1.627950	-0.001048	51.1581	-1.626634	-5.387675E+21	1.944579E-25	NaN
205	1.000000	0.122283	7.36705e+06	-48889.1	955.819	-29760.6	0.000000	0.000000	6.122810	0.028309	NaN	0.000000	0.001680	0.001716	28.077	0.012735	0.002034	6.261663	98.4133	-162.467	-0.018385	0.120937	-1.614628	-1.615974	0.028309	6.261663	-1.618019	-4.138646E+21	-6.840073E-24	NaN
205	1.000000	0.134260	7.36705e+06	-48889.1	955.819	-29760.6	0.000000	0.000000	6.134788	0.024037	NaN	0.000000	0.001664	0.001747	28.0782	0.105435	0.002021	52.1689	-26.7267	-166.614	-0.009103	0.132956	-1.602651	-1.603955	0.024037	52.1689	-1.602997	-2.612640E+21	-9.200144E-24	NaN
205	1.000000	0.146268	7.36705e+06	-48889.1	955.819	-29760.6	0.000000	0.000000	6.146794	-0.000228	NaN	0.000000	0.001672	0.001745	28.0786	0.146560	0.002022	72.4914	-115.374	-162.27	0.078592	0.145014	-1.590644	-1.591897	-0.000228	72.4914	-1.590641	-1.789547E+21	1.276763E-25	NaN
205	1.000000	0.158299	7.36705e+06	-48889.1	955.819	-29760.6	0.000000	0.000000	6.158826	-0.010548	NaN	0.000000	0.001705	0.001762	28.0781	0.076447	0.002061	37.0993	60.77	-164.997	-0.012066	0.156936	-1.578612	-1.579975	-0.010548	37.0993	-1.578398	-1.229925E+21	8.576475E-24	NaN
205	1.000000	0.170258	7.36705e+06	-48889.1	955.819	-29760.6	0.000000	0.000000	6.170786	0.040749	NaN	0.000000	0.001692	0.001720	28.0782	0.090877	0.001955	46.4827	-159.677	-164.616	0.083114	0.168933	-1.566653	-1.567978	0.040749	46.4827	-1.567310	-8.756950E+20	-4.653325E-23	NaN
205	1.000000	0.182304	7.36705e+06	-48889.1	955.819	-29760.6	0.000000	0.000000	6.182831	0.008779	NaN	0.000000	0.001675	0.001697	28.0784	0.078414	0.002049	38.2605	153.858	-165.35	0.028250	0.180962	-1.554607	-1.555949	0.008779	38.2605	-1.554779	-5.964844E+20	-1.471797E-23	NaN
205	1.000000	0.194271	7.36705e+06	-48889.1	955.819	-29760.6	0.000000	0.000000	6.194796	-0.019493	NaN	0.000000	0.001687	0.001677	28.0783	0.022473	0.001971	11.4026	-61.5629	-166.973	-0.038356	0.192962	-1.542640	-1.543949	-0.019493	11.4026	-1.541358	-3.953444E+20	4.930645E-23	NaN
205	1.000000	0.206326	7.36705e+06	-48889.1	955.819	-29760.6	0.000000	0.000000	6.206855	0.058030	NaN	0.000000	0.001656	0.001715	28.0785	0.071252	0.001960	36.3617	-149.154	-165.01	0.055534	0.205020	-1.530585	-1.531891	0.058030	36.3617	-1.531782	-2.947854E+20	-1.968560E-22	NaN
205	1.000000	0.218287	7.36705e+06	-48889.1	955.819	-29760.6	0.000000	0.000000	6.218815	0.055713	NaN	0.000000	0.001666	0.001708	28.0784	0.047421	0.001996	23.7566	-82.4913	-165.457	0.082668	0.216962	-1.518625	-1.519949	0.055713	23.7566	-1.520383	-2.078491E+20	-2.680445E-22	NaN
205	1.000000	0.230287	7.36705e+06	-48889.1	955.819	-29760.6	0.000000	0.000000	6.230812	-0.028418	NaN	0.000000	0.001650	0.001707	28.0782	0.045240	0.002034	22.2415	44.5284	-168.976	0.076397	0.229007	-1.506624	-1.507904	-0.028418	22.2415	-1.505666	-1.323637E+20	2.146980E-22	NaN
205	1.000000	0.242295	7.36705e+06	-48889.1	955.818	-29760.6	0.000000	0.000000	6.242822	0.009486	NaN	0.000000	0.001652	0.001646	28.0782	0.061741	0.002015	30.6478	107.637	-162.679	0.032703	0.240947	-1.494616	-1.495964	0.009486	30.6478	-1.494848	-9.499485E+19	-9.985699E-23	NaN
205	1.000000	0.254308	7.36705e+06	-48889.1	955.819	-29760.6	0.000000	0.000000	6.254837	0.052373	NaN	0.000000	0.001653	0.001689	28.0781	0.035770	0.001844	19.3929	139.426	-168.121	0.046871	0.252993	-1.482603	-1.483918	0.052373	19.3929	-1.484629	-6.943347E+19	-7.542945E-22	NaN
205	1.000000	0.266338	7.36705e+06	-48889.1	955.818	-29760.6	0.000000	0.000000	6.266863	-0.034630	NaN	0.000000	0.001636	0.001663	28.077	0.074525	0.001928	38.6468	-38.4768	-168.556	-0.019393	0.264995	-1.470573	-1.471916	-0.034630	38.6468	-1.469901	-4.419367E+19	7.835939E-22	NaN
205	1.000000	0.278292	7.36705e+06	-48889.1	955.819	-29760.6	0.000000	0.000000	6.278821	0.058433	NaN	0.000000	0.001651	0.001686	28.0771	0.067566	0.002026	33.3537	-161.841	-167.785	0.034768	0.276961	-1.458619	-1.459950	0.058433	33.3537	-1.459933	-3.254873E+19	-1.795236E-21	NaN
205	1.000000	0.290301	7.36705e+06	-48889.1	955.819	-29760.6	0.000000	0.000000	6.290829	0.048387	NaN	0.000000	0.001644	0.001703	28.077	0.128517	0.001983	64.8017	-69.7499	-165.69	0.127343	0.289023	-1.446611	-1.447888	0.048387	64.8017	-1.447171	-2.200062E+19	-2.199344E-21	NaN
205	1.000000	0.302352	7.36705e+06	-48889.1	955.819	-29760.6	0.000000	0.000000	6.302877	-0.017009	NaN	0.000000	0.001654	0.001672	28.0774	0.099840	0.001983	50.3504	176.077	-165.426	-0.040807	0.300988	-1.434560	-1.435923	-0.017009	50.3504	-1.434306	-1.482345E+19	1.147414E-21	NaN
205	1.000000	0.314360	7.36705e+06	-48889.1	955.818	-29760.6	0.000000	0.000000	6.314886	-0.004984	NaN	0.000000	0.001637	0.001691	28.0772	0.144327	0.001910	75.5482	151.27	-167.486	0.045179	0.313060	-1.422552	-1.423852	-0.004984	75.5482	-1.422502	-1.031734E+19	4.831055E-22	NaN
205	1.000000	0.326333	7.36705e+06	-48889.1	955.818	-29760.6	0.000000	0.000000	6.326858	-0.040718	NaN	0.000000	0.001645	0.001693	28.0769	0.143794	0.001964	73.1972	-105.129	-167.985	0.040079	0.325063	-1.410579	-1.411848	-0.040718	73.1972	-1.410161	-7.063124E+18	5.764824E-21	NaN
205	1.000000	0.338370	7.36705e+06	-48889.1	955.818	-29760.6	0.000000	0.000000	6.338898	0.038284	NaN	0.000000	0.001713	0.001681	28.0767	0.162398	0.001854	87.5726	143.298	-166.749	0.046024	0.337038	-1.398541	-1.399873	0.038284	87.5726	-1.398869	-4.993177E+18	-7.667287E-21	NaN
205	1.000000	0.350351	7.36705e+06	-48889.1	955.818	-29760.6	0.000000	0.000000	6.350878	0.008026	NaN	0.000000	0.001710	0.001705	28.0767	0.114994	0.002224	51.705	38.7231	-166.574	-0.019689	0.349054	-1.386561	-1.387857	0.008026	51.705	-1.386677	-3.433439E+18	-2.337547E-21	NaN
205	1.000000	0.362344	7.36705e+06	-48889.1	955.819	-29760.6	0.000000	0.000000	6.362871	0.027932	NaN	0.000000	0.001756	0.001707	28.0771	0.019236	0.001782	10.7939	-36.0429	-165.84	0.046414	0.361067	-1.374567	-1.375844	0.027932	10.7939	-1.376508	-2.512157E+18	-1.111888E-20	NaN
205	1.000000	0.374369	7.36705e+06	-48889.1	955.818	-29760.6	0.000000	0.000000	6.374895	-0.007399	NaN	0.000000	0.001671	0.001706	28.0766	0.027537	0.001925	14.3045	114.612	-166.992	-0.010397	0.373060	-1.362542	-1.363851	-0.007399	14.3045	-1.362155	-1.616150E+18	4.578038E-21	NaN
205	1.000000	0.386367	7.36705e+06	-48889.1	955.819	-29760.6	0.000000	0.000000	6.386895	0.043496	NaN	0.000000	0.001649	0.001706	28.0768	0.132366	0.001927	68.6872	109.657	-168.333	0.010203	0.385050	-1.350544	-1.351861	0.043496	68.6872	-1.351019	-1.147717E+18	-3.789768E-20	NaN
205	1.000000	0.398342	7.36705e+06	-48889.1	955.818	-29760.6	0.000000	0.000000	6.398869	0.018279	NaN	0.000000	0.001637	0.001719	28.0767	0.083366	0.002032	41.0311	-142.487	-164.861	-0.105633	0.397056	-1.338569	-1.339855	0.018279	41.0311	-1.338903	-7.907976E+17	-2.311420E-20	NaN
205	1.000000	0.410387	7.36705e+06	-48889.1	955.819	-29760.6	0.000000	0.000000	6.410913	-0.016236	NaN	0.000000	0.001647	0.001766	28.0781	0.066885	0.002012	33.2434	-95.6939	-162.14	-0.002939	0.409011	-1.326524	-1.327901	-0.016236	33.2434	-1.326158	-5.343814E+17	3.038333E-20	NaN
205	1.000000	0.422386	7.36705e+06	-48889.1	955.818	-29760.6	0.000000	0.000000	6.422912	-0.024223	NaN	0.000000	0.001615	0.001717	28.0782	0.038699	0.001949	19.8611	32.5235	-163.742	0.031698	0.421082	-1.314525	-1.315829	-0.024223	19.8611	-1.313610	-3.632801E+17	6.667856E-20	NaN
205	1.000000	0.434389	7.36705e+06	-48889.1	955.818	-29760.6	0.000000	0.000000	6.434915	-0.003679	NaN	0.000000	0.001641	0.001673	28.0779	0.060143	0.001945	30.9284	173.646	-165.575	0.008799	0.433107	-1.302522	-1.303804	-0.003679	30.9284	-1.302433	-2.575778E+17	1.428486E-20	NaN
205	1.000000	0.446406	7.36705e+06	-48889.1	955.819	-29760.6	0.000000	0.000000	6.446935	0.040127	NaN	0.000000	0.001651	0.001637	28.078	0.063303	0.002015	31.4115	-147.49	-166.033	0.029676	0.445073	-1.290505	-1.291839	0.040127	31.4115	-1.291463	-1.837827E+17	-2.183376E-19	NaN
205	1.000000	0.458382	7.36705e+06	-48889.1	955.819	-29760.6	0.000000	0.000000	6.458910	0.031372	NaN	0.000000	0.001677	0.001673	28.0781	0.093521	0.001992	46.9524	-89.1269	-166.552	0.018361	0.457029	-1.278529	-1.279882	0.031372	46.9524	-1.279030	-1.253487E+17	-2.502780E-19	NaN
205	1.000000	0.470410	7.36705e+06	-48889.1	955.818	-29760.6	0.000000	0.000000	6.470939	0.059626	NaN	0.000000	0.001672	0.001655	28.0779	0.074069	0.002066	35.8589	27.8645	-165.149	0.068940	0.469078	-1.266501	-1.267833	0.059626	35.8589	-1.267748	-8.856980E+16	-6.732060E-19	NaN
205	1.000000	0.482380	7.36705e+06	-48889.1	955.819	-29760.6	0.000000	0.000000	6.482908	0.028039	NaN	0.000000	0.001674	0.001682	28.0779	0.030791	0.002014	15.2877	-85.6885	-166.47	0.034890	0.481076	-1.254531	-1.255835	0.028039	15.2877	-1.255907	-6.150712E+16	-4.558634E-19	NaN
205	1.000000	0.494407	7.36705e+06	-48889.1	955.818	-29760.6	0.000000	0.000000	6.494937	0.092761	NaN	0.000000	0.001693	0.001646	28.0782	0.062763	0.002012	31.2021	-40.1561	-165.066	0.100247	0.493090	-1.242504	-1.243821	0.092761	31.2021	-1.244734	-4.359928E+16	-2.127583E-18	NaN
205	1.000000	0.506405	7.36705e+06	-48889.1	955.819	-29760.6	0.000000	0.000000	6.506933	0.037588	NaN	0.000000	0.001698	0.001658	28.0781	0.109450	0.001964	55.7394	-27.5289	-168.577	0.047168	0.505121	-1.230506	-1.231790	0.037588	55.7394	-1.231012	-2.856813E+16	-1.315738E-18	NaN
205	1.000000	0.518429	7.36705e+06	-48889.1	955.82	-29760.6	0.000000	0.000000	6.518958	0.043164	NaN	0.000000	0.001659	0.001668	28.0781	0.024705	0.002119	11.6567	15.3722	-167.444	0.095834	0.517138	-1.218482	-1.219773	0.043164	11.6567	-1.221259	-2.115218E+16	-2.040652E-18	NaN
205	1.000000	0.530386	7.36705e+06	-48889.1	955.82	-29760.6	0.000000	0.000000	6.530913	0.024285	NaN	0.000000	0.001704	0.001688	28.0783	0.143997	0.002013	71.5372	-83.1189	-166.828	-0.026731	0.529179	-1.206525	-1.207732	0.024285	71.5372	-1.206780	-1.353721E+16	-1.793975E-18	NaN
205	1.000000	0.542428	7.36705e+06	-48889.1	955.818	-29760.6	0.000000	0.000000	6.542953	-0.025762	NaN	0.000000	0.001694	0.001671	28.0768	0.107242	0.001969	54.4641	166.272	-164.93	-0.059489	0.541090	-1.194483	-1.195821	-0.025762	54.4641	-1.194129	-9.164721E+15	2.811017E-18	NaN
205	1.000000	0.554417	7.36705e+06	-48889.1	955.818	-29760.6	0.000000	0.000000	6.554945	0.047849	NaN	0.000000	0.001660	0.001665	28.0769	0.086768	0.001996	43.4627	16.7472	-166.574	-0.011428	0.553150	-1.182494	-1.183761	0.047849	43.4627	-1.183320	-6.566720E+15	-7.286558E-18	NaN
205	1.000000	0.566458	7.36705e+06	-48889.1	955.818	-29760.6	0.000000	0.000000	6.566984	-0.007612	NaN	0.000000	0.001683	0.001660	28.077	0.084901	0.002016	42.108	140.095	-170.266	0.007129	0.565109	-1.170454	-1.171802	-0.007612	42.108	-1.170318	-4.396896E+15	1.731243E-18	NaN
205	1.000000	0.578435	7.36705e+06	-48889.1	955.819	-29760.6	0.000000	0.000000	6.578962	0.024307	NaN	0.000000	0.001679	0.001680	28.077	0.055063	0.002071	26.5934	169.832	-167.944	0.044722	0.577140	-1.158477	-1.159771	0.024307	26.5934	-1.159162	-3.116295E+15	-7.799827E-18	NaN
205	1.000000	0.590448	7.36705e+06	-48889.1	955.818	-29760.6	0.000000	0.000000	6.590974	-0.021168	NaN	0.000000	0.001688	0.001654	28.0771	0.074160	0.002107	35.2007	160.95	-165.553	-0.006820	0.589145	-1.146463	-1.147766	-0.021168	35.2007	-1.146012	-2.076586E+15	1.019383E-17	NaN
205	1.000000	0.602444	7.36705e+06	-48889.1	955.818	-29760.6	0.000000	0.000000	6.602969	-0.038373	NaN	0.000000	0.001698	0.001707	28.0768	0.019098	0.001926	9.914692	-127.5	-163.514	-0.100379	0.601150	-1.134467	-1.135761	-0.038373	9.914692	-1.131565	-1.329253E+15	2.886826E-17	NaN
205	1.000000	0.614516	7.36705e+06	-48889.1	955.819	-29760.6	0.000000	0.000000	6.615041	-0.052555	NaN	0.000000	0.001715	0.001655	28.0769	0.074655	0.001959	38.1098	-3.647492	-165.142	0.092571	0.613200	-1.122395	-1.123712	-0.052555	38.1098	-1.121361	-9.698998E+14	5.418601E-17	NaN
205	1.000000	0.626478	7.36705e+06	-48889.1	955.819	-29760.6	0.000000	0.000000	6.627004	-0.001591	NaN	0.000000	0.001711	0.001694	28.0769	0.118649	0.001946	60.9721	-123.054	-168.519	0.098174	0.625159	-1.110433	-1.111752	-0.001591	60.9721	-1.110414	-6.915746E+14	2.300353E-18	NaN
205	1.000000	0.638490	7.36705e+06	-48889.1	955.818	-29760.6	0.000000	0.000000	6.639018	0.026509	NaN	0.000000	0.001691	0.001694	28.0771	0.015267	0.001978	7.716899	75.0397	-167.865	0.041783	0.637182	-1.098421	-1.099729	0.026509	7.716899	-1.100997	-5.169550E+14	-5.127909E-17	NaN
205	1.000000	0.650452	7.36705e+06	-48889.1	955.819	-29760.6	0.000000	0.000000	6.650979	-0.001458	NaN	0.000000	0.001719	0.001695	28.077	0.060055	0.002058	29.1746	112.673	-168.31	-0.012250	0.649133	-1.086459	-1.087778	-0.001458	29.1746	-1.086422	-3.294284E+14	4.427101E-18	NaN
205	1.000000	0.662483	7.36705e+06	-48889.1	955.818	-29760.6	0.000000	0.000000	6.663009	0.004860	NaN	0.000000	0.001713	0.001720	28.0769	0.050131	0.001986	25.2393	37.2314	-168.757	0.008969	0.661189	-1.074428	-1.075722	0.004860	25.2393	-1.074573	-2.283606E+14	-2.128249E-17	NaN
205	1.000000	0.674503	7.36705e+06	-48889.1	955.818	-29760.6	0.000000	0.000000	6.675032	0.046767	NaN	0.000000	0.001762	0.001687	28.0777	0.095407	0.002025	47.1034	-89.8821	-167.49	-0.016313	0.673205	-1.062408	-1.063706	0.046767	47.1034	-1.063152	-1.603923E+14	-2.915760E-16	NaN
205	1.000000	0.686499	7.36705e+06	-48889.1	955.819	-29760.6	0.000000	0.000000	6.687022	-0.066232	NaN	0.000000	0.001778	0.001678	28.0781	0.038562	0.001912	20.1706	-155.33	-164.93	-0.012586	0.685197	-1.050413	-1.051714	-0.066232	20.1706	-1.047950	-1.001969E+14	6.610227E-16	NaN
205	1.000000	0.698484	7.36705e+06	-48889.1	955.818	-29760.6	0.000000	0.000000	6.699008	-0.068441	NaN	0.000000	0.001785	0.001733	28.0781	0.085697	0.002005	42.7339	44.8162	-167.02	0.053187	0.697170	-1.038427	-1.039741	-0.068441	42.7339	-1.037226	-7.188837E+13	9.520476E-16	NaN
205	1.000000	0.710521	7.36705e+06	-48889.1	955.819	-29760.6	0.000000	0.000000	6.711044	-0.083019	NaN	0.000000	0.001786	0.001730	28.0784	0.096819	0.001994	48.5658	-22.6907	-163.454	-0.012503	0.709250	-1.026390	-1.027662	-0.083019	48.5658	-1.025108	-4.939441E+13	1.680734E-15	NaN
205	1.000000	0.722505	7.36705e+06	-48889.1	955.819	-29760.6	0.000000	0.000000	6.723032	0.022822	NaN	0.000000	0.001769	0.001725	28.0782	0.101065	0.001964	51.4659	3.778210	-166.265	0.016833	0.721232	-1.014406	-1.015679	0.022822	51.4659	-1.014739	-3.582274E+13	-6.370720E-16	NaN
205	1.000000	0.734513	7.36705e+06	-48889.1	955.818	-29760.6	0.000000	0.000000	6.735041	0.013370	NaN	0.000000	0.001766	0.001676	28.0784	0.052592	0.002020	26.0359	176.095	-166.405	0.053346	0.733169	-1.002398	-1.003743	0.013370	26.0359	-1.002783	-2.473059E+13	-5.406197E-16	NaN
205	1.000000	0.746500	7.36705e+06	-48889.1	955.818	-29760.6	0.000000	0.000000	6.747028	0.022656	NaN	0.000000	0.001786	0.001706	28.0785	0.021692	0.002030	10.6842	-2.311617	-165.283	0.015394	0.745190	-0.990411	-0.991721	0.022656	10.6842	-0.992001	-1.770369E+13	-1.279739E-15	NaN
205	1.000000	0.758530	7.36705e+06	-48889.1	955.818	-29760.6	0.000000	0.000000	6.759057	0.010589	NaN	0.000000	0.001754	0.001707	28.0782	0.101134	0.001913	52.8538	130.356	-165.756	-0.025861	0.757166	-0.978381	-0.979745	0.010589	52.8538	-0.978532	-1.165805E+13	-9.082742E-16	NaN
205	1.000000	0.770520	7.36705e+06	-48889.1	955.818	-29760.6	0.000000	0.000000	6.771048	0.038937	NaN	0.000000	0.001752	0.001708	28.0782	0.084188	0.002061	40.8572	-62.942	-161.458	-0.006226	0.769246	-0.966391	-0.967665	0.038937	40.8572	-0.967106	-8.178276E+12	-4.760986E-15	NaN
205	1.000000	0.782539	7.36705e+06	-48889.1	955.818	-29760.6	0.000000	0.000000	6.783063	-0.048129	NaN	0.000000	0.001777	0.001675	28.0783	0.034320	0.001857	18.4792	89.1255	-167	-0.049845	0.781224	-0.954372	-0.955688	-0.048129	18.4792	-0.952419	-5.183834E+12	9.284515E-15	NaN
205	1.000000	0.794547	7.36705e+06	-48889.1	955.818	-29760.6	0.000000	0.000000	6.795073	-0.019443	NaN	0.000000	0.001769	0.001692	28.0782	0.103153	0.001938	53.2192	49.6516	-164.121	-0.009381	0.793297	-0.942364	-0.943614	-0.019443	53.2192	-0.942090	-3.761238E+12	5.169325E-15	NaN
205	1.000000	0.806553	7.36705e+06	-48889.1	955.819	-29760.6	0.000000	0.000000	6.807080	0.004345	NaN	0.000000	0.001746	0.001668	28.0781	0.068726	0.001935	35.5098	35.2859	-166.54	-0.052005	0.805226	-0.930358	-0.931685	0.004345	35.5098	-0.930450	-2.619797E+12	-1.658386E-15	NaN
205	1.000000	0.818549	7.36705e+06	-48889.1	955.82	-29760.6	0.000000	0.000000	6.819081	0.127625	NaN	0.000000	0.001779	0.001662	28.0771	0.042592	0.001962	21.7083	-152.402	-167.44	0.000973	0.817282	-0.918362	-0.919629	0.127625	21.7083	-0.922771	-2.063587E+12	-6.184600E-14	NaN
205	1.000000	0.830563	7.36705e+06	-48889.1	955.818	-29760.6	0.000000	0.000000	6.831087	-0.048874	NaN	0.000000	0.001738	0.001666	28.077	0.116027	0.002015	57.5709	130.699	-165.181	-0.051157	0.829273	-0.906348	-0.907638	-0.048874	57.5709	-0.905712	-1.214048E+12	4.025724E-14	NaN
205	1.000000	0.842583	7.36705e+06	-48889.1	955.819	-29760.6	0.000000	0.000000	6.843110	0.004725	NaN	0.000000	0.001677	0.001644	28.077	0.100236	0.002043	49.0692	-83.8426	-168.294	-0.050311	0.841232	-0.894328	-0.895679	0.004725	49.0692	-0.894401	-8.538784E+11	-5.533340E-15	NaN
205	1.000000	0.854590	7.36705e+06	-48889.1	955.818	-29760.6	0.000000	0.000000	6.855120	0.072608	NaN	0.000000	0.001702	0.001678	28.0771	0.040640	0.002192	18.5424	118.984	-166.544	0.149266	0.853250	-0.882321	-0.883661	0.072608	18.5424	-0.885258	-6.423988E+11	-1.130258E-13	NaN
205	1.000000	0.866565	7.36705e+06	-48889.1	955.819	-29760.6	0.000000	0.000000	6.867089	-0.081237	NaN	0.000000	0.001697	0.001667	28.077	0.105474	0.002013	52.3949	137.242	-165.824	-0.042947	0.865273	-0.870346	-0.871638	-0.081237	52.3949	-0.869183	-3.893928E+11	2.086237E-13	NaN
205	1.000000	0.878566	7.36705e+06	-48889.1	955.818	-29760.6	0.000000	0.000000	6.879093	0.009271	NaN	0.000000	0.001689	0.001683	28.0771	0.061711	0.002079	29.6851	160.411	-166.612	0.005306	0.877255	-0.858345	-0.859656	0.009271	29.6851	-0.858579	-2.798265E+11	-3.313049E-14	NaN
205	1.000000	0.890577	7.36705e+06	-48889.1	955.818	-29760.6	0.000000	0.000000	6.891103	-0.001675	NaN	0.000000	0.001716	0.001658	28.0768	0.018264	0.001925	9.487535	111.769	-166.842	0.053142	0.889226	-0.846334	-0.847685	-0.001675	9.487535	-0.846202	-1.902412E+11	8.803350E-15	NaN
205	1.000000	0.902585	7.36705e+06	-48889.1	955.818	-29760.6	0.000000	0.000000	6.903111	-0.006292	NaN	0.000000	0.001732	0.001698	28.0768	0.079881	0.001934	41.3092	-14.8119	-162.357	-0.020871	0.901248	-0.834326	-0.835663	-0.006292	41.3092	-0.834212	-1.308788E+11	4.807124E-14	NaN
205	1.000000	0.914572	7.36705e+06	-48889.1	955.819	-29760.6	0.000000	0.000000	6.915098	-0.006735	NaN	0.000000	0.001703	0.001700	28.077	0.060454	0.001937	31.2162	-28.5435	-163.063	-0.011631	0.913276	-0.822339	-0.823635	-0.006735	31.2162	-0.822177	-8.989463E+10	7.492562E-14	NaN
205	1.000000	0.926603	7.36705e+06	-48889.1	955.819	-29760.6	0.000000	0.000000	6.927129	-0.028015	NaN	0.000000	0.001688	0.001736	28.0768	0.124466	0.001993	62.4466	-111.778	-166.185	-0.022912	0.925298	-0.810308	-0.811613	-0.028015	62.4466	-0.809971	-6.140212E+10	4.562524E-13	NaN
205	1.000000	0.938533	7.36705e+06	-48889.1	955.818	-29760.6	0.000000	0.000000	6.939062	0.078731	NaN	0.000000	0.001699	0.001696	28.077	0.029130	0.001984	14.682	-128.417	-166.021	-0.031404	0.937277	-0.798378	-0.799634	0.078731	14.682	-0.802400	-4.846668E+10	-1.624444E-12	NaN
205	1.000000	0.950593	7.36705e+06	-48889.1	955.818	-29760.6	0.000000	0.000000	6.951120	0.008300	NaN	0.000000	0.001712	0.001707	28.0781	0.094866	0.001920	49.4046	-46.6025	-164.467	-0.068093	0.949297	-0.786318	-0.787614	0.008300	49.4046	-0.786444	-2.942934E+10	-2.820363E-13	NaN
205	1.000000	0.962619	7.36705e+06	-48889.1	955.819	-29760.6	0.000000	0.000000	6.963147	0.031893	NaN	0.000000	0.001731	0.001702	28.0779	0.063963	0.001949	32.8261	-141.033	-167.105	0.086840	0.961272	-0.774292	-0.775639	0.031893	32.8261	-0.775021	-2.058571E+10	-1.549273E-12	NaN
205	1.000000	0.974608	7.36705e+06	-48889.1	955.819	-29760.6	0.000000	0.000000	6.975136	0.043005	NaN	0.000000	0.001697	0.001654	28.0782	0.104000	0.002006	51.8418	-88.3977	-168.387	-0.005309	0.973330	-0.762303	-0.763581	0.043005	51.8418	-0.762925	-1.409592E+10	-3.050871E-12	NaN
205	1.000000	0.986605	7.36705e+06	-48889.1	955.82	-29760.6	0.000000	0.000000	6.987132	0.010108	NaN	0.000000	0.001675	0.001622	28.078	0.059864	0.002146	27.8972	80.1012	-168.44	0.038060	0.985290	-0.750306	-0.751621	0.010108	27.8972	-0.750577	-9.573719E+9	-1.055761E-12	NaN
205	1.000000	0.998645	7.36705e+06	-48889.1	955.819	-29760.6	0.000000	0.000000	6.999170	-0.050986	NaN	0.000000	0.001695	0.001679	28.0781	0.082430	0.002045	40.303	63.5528	-163.522	-0.031819	0.997316	-0.738266	-0.739595	-0.050986	40.303	-0.737317	-6.317011E+9	8.071171E-12	NaN
205	1.000000	1.010649	7.36705e+06	-48889.1	955.819	-29760.6	0.000000	0.000000	7.011174	-0.034631	NaN	0.000000	0.001709	0.001677	28.078	0.095232	0.002007	47.4554	179.059	-168.212	0.034597	1.009340	-0.726262	-0.727571	-0.034631	47.4554	-0.725715	-4.389331E+9	7.889816E-12	NaN
205	1.000000	1.022624	7.36705e+06	-48889.1	955.82	-29760.6	0.000000	0.000000	7.023152	0.045925	NaN	0.000000	0.001692	0.001685	28.0781	0.113810	0.002039	55.8253	121.412	-164.381	-0.008574	1.021320	-0.714287	-0.715591	0.045925	55.8253	-0.714904	-3.125846E+9	-1.469203E-11	NaN
205	1.000000	1.034643	7.36705e+06	-48889.1	955.82	-29760.6	0.000000	0.000000	7.035169	-0.004959	NaN	0.000000	0.001719	0.001697	28.0783	0.089816	0.001936	46.3987	-147.64	-166.41	0.067021	1.033348	-0.702269	-0.703563	-0.004959	46.3987	-0.702188	-2.096112E+9	2.365939E-12	NaN
205	1.000000	1.046625	7.36705e+06	-48889.1	955.82	-29760.6	0.000000	0.000000	7.047153	0.035452	NaN	0.000000	0.001707	0.001721	28.078	0.028530	0.002052	13.9069	-169.418	-164.987	-0.015788	1.045268	-0.690286	-0.691643	0.035452	13.9069	-0.692198	-1.530923E+9	-2.315733E-11	NaN
205	1.000000	1.058650	7.36705e+06	-48889.1	955.82	-29760.6	0.000000	0.000000	7.059177	0.010976	NaN	0.000000	0.001703	0.001679	28.0779	0.118985	0.002067	57.5521	75.8548	-167.489	0.034768	1.057387	-0.678261	-0.679524	0.010976	57.5521	-0.678404	-9.917019E+8	-1.106834E-11	NaN
205	1.000000	1.070656	7.36705e+06	-48889.1	955.82	-29760.6	0.000000	0.000000	7.071180	-0.058709	NaN	0.000000	0.001725	0.001715	28.078	0.138794	0.001980	70.0899	-83.9591	-165.76	0.007883	1.069343	-0.666255	-0.667568	-0.058709	70.0899	-0.665627	-6.630179E+8	8.854786E-11	NaN
205	1.000000	1.082652	7.36705e+06	-48889.1	955.821	-29760.6	0.000000	0.000000	7.083178	-0.011363	NaN	0.000000	0.001737	0.001691	28.0778	0.033398	0.001967	16.9773	-44.6736	-167.584	0.068043	1.081363	-0.654259	-0.655548	-0.011363	16.9773	-0.653757	-4.559658E+8	2.492137E-11	NaN
205	1.000000	1.094647	7.36705e+06	-48889.1	955.821	-29760.6	0.000000	0.000000	7.095172	-0.050881	NaN	0.000000	0.001717	0.001698	28.0768	0.043771	0.001977	22.1434	15.0722	-164.539	-0.015605	1.093360	-0.642264	-0.643551	-0.050881	22.1434	-0.640541	-3.004057E+8	1.693753E-10	NaN
205	1.000000	1.106685	7.36705e+06	-48889.1	955.821	-29760.6	0.000000	0.000000	7.107213	0.040964	NaN	0.000000	0.001678	0.001684	28.0769	0.061684	0.002112	29.2042	-139.466	-165.321	-0.028060	1.105327	-0.630226	-0.631584	0.040964	29.2042	-0.631278	-2.241697E+8	-1.827369E-10	NaN
205	1.000000	1.118660	7.36705e+06	-48889.1	955.82	-29760.6	0.000000	0.000000	7.119187	0.010381	NaN	0.000000	0.001672	0.001681	28.0769	0.044757	0.001983	22.5739	43.9379	-170.364	0.091554	1.117438	-0.618251	-0.619473	0.010381	22.5739	-0.618596	-1.500826E+8	-6.917080E-11	NaN
205	1.000000	1.130697	7.36705e+06	-48889.1	955.82	-29760.6	0.000000	0.000000	7.131224	0.023148	NaN	0.000000	0.001710	0.001652	28.077	0.025345	0.001960	12.9335	119.647	-167.252	0.029789	1.129406	-0.606214	-0.607505	0.023148	12.9335	-0.607557	-1.058014E+8	-2.187906E-10	NaN
205	1.000000	1.142677	7.36705e+06	-48889.1	955.821	-29760.6	0.000000	0.000000	7.143202	-0.024305	NaN	0.000000	0.001674	0.001684	28.0771	0.025503	0.002082	12.2494	173.694	-166.193	-0.028843	1.141332	-0.594234	-0.595579	-0.024305	12.2494	-0.592746	-6.614875E+7	3.674317E-10	NaN
205	1.000000	1.154673	7.36705e+06	-48889.1	955.821	-29760.6	0.000000	0.000000	7.155197	-0.053787	NaN	0.000000	0.001686	0.001697	28.0768	0.066691	0.002013	33.1377	-7.304026	-162.511	-0.088325	1.153360	-0.582238	-0.583551	-0.053787	33.1377	-0.581021	-4.558439E+7	1.179942E-9	NaN
205	1.000000	1.166697	7.36705e+06	-48889.1	955.82	-29760.6	0.000000	0.000000	7.167223	-0.002849	NaN	0.000000	0.001712	0.001690	28.0768	0.129264	0.002031	63.6376	18.8621	-168.217	0.083226	1.165370	-0.570214	-0.571541	-0.002849	63.6376	-0.570181	-3.229450E+7	8.822527E-11	NaN
205	1.000000	1.178679	7.36705e+06	-48889.1	955.821	-29760.6	0.000000	0.000000	7.179208	0.049562	NaN	0.000000	0.001680	0.001695	28.0767	0.012960	0.002002	6.475220	-24.2725	-169.256	0.036834	1.177377	-0.558232	-0.559534	0.049562	6.475220	-0.563972	-2.650443E+7	-1.869960E-9	NaN
205	1.000000	1.190659	7.36705e+06	-48889.1	955.821	-29760.6	0.000000	0.000000	7.191186	-0.001717	NaN	0.000000	0.001726	0.001730	28.0767	0.044819	0.001848	24.2572	17.207	-167.912	0.008166	1.189422	-0.546252	-0.547489	-0.001717	24.2572	-0.546199	-1.504158E+7	1.141722E-10	NaN
205	1.000000	1.202680	7.36705e+06	-48889.1	955.821	-29760.6	0.000000	0.000000	7.203207	0.009603	NaN	0.000000	0.001713	0.001724	28.0766	0.022927	0.002081	11.0183	-177.471	-165.635	0.024324	1.201401	-0.534231	-0.535510	0.009603	11.0183	-0.534885	-1.048080E+7	-9.162474E-10	NaN
205	1.000000	1.214735	7.36705e+06	-48889.1	955.819	-29760.6	0.000000	0.000000	7.215263	0.031144	NaN	0.000000	0.001647	0.001721	28.077	0.087116	0.001965	44.3275	-128.147	-166.186	-0.003351	1.213432	-0.522176	-0.523479	0.031144	44.3275	-0.522703	-7.09873e+06	-4.387237E-9	NaN
205	1.000000	1.226691	7.36705e+06	-48889.1	955.821	-29760.6	0.000000	0.000000	7.227218	0.013923	NaN	0.000000	0.001665	0.001705	28.0786	0.115930	0.001972	58.786	128.625	-165.176	0.044752	1.225424	-0.510220	-0.511487	0.013923	58.786	-0.510398	-4.78587e+06	-2.909131E-9	NaN
205	1.000000	1.238726	7.36705e+06	-48889.1	955.821	-29760.6	0.000000	0.000000	7.239252	-0.003527	NaN	0.000000	0.001662	0.001713	28.0781	0.003465	0.001899	1.824310	32.4559	-168.282	-0.012455	1.237396	-0.498185	-0.499516	-0.003527	1.824310	-0.496735	-3.08646e+06	1.142624E-9	NaN
205	1.000000	1.250724	7.36705e+06	-48889.1	955.821	-29760.6	0.000000	0.000000	7.251253	0.053585	NaN	0.000000	0.001688	0.001723	28.0782	0.049030	0.001961	25.0031	-82.9485	-165.478	0.007021	1.249394	-0.486187	-0.487517	0.053585	25.0031	-0.487795	-2.31509e+06	-2.314608E-8	NaN
205	1.000000	1.262748	7.36705e+06	-48889.1	955.82	-29760.6	0.000000	0.000000	7.263275	0.025510	NaN	0.000000	0.001668	0.001680	28.0781	0.098300	0.002062	47.6665	89.5632	-168.122	0.002150	1.261369	-0.474163	-0.475542	0.025510	47.6665	-0.474565	-1.51147e+06	-1.687784E-8	NaN
205	1.000000	1.274733	7.36705e+06	-48889.1	955.821	-29760.6	0.000000	0.000000	7.275259	-0.017211	NaN	0.000000	0.001649	0.001649	28.0783	0.129053	0.001944	66.3977	-103.803	-163.958	0.040767	1.273471	-0.462178	-0.463440	-0.017211	66.3977	-0.461984	-1.00668e+06	1.709725E-8	NaN
205	1.000000	1.286750	7.36705e+06	-48889.1	955.821	-29760.6	0.000000	0.000000	7.287278	0.030313	NaN	0.000000	0.001651	0.001687	28.0784	0.120868	0.002097	57.6493	163.034	-165.04	0.056125	1.285438	-0.450161	-0.451473	0.030313	57.6493	-0.450555	-695285	-4.359851E-8	NaN
205	1.000000	1.298704	7.36705e+06	-48889.1	955.821	-29760.6	0.000000	0.000000	7.299228	-0.051262	NaN	0.000000	0.001680	0.001695	28.0782	0.042239	0.001979	21.3443	61.1353	-167.896	-0.097540	1.297402	-0.438207	-0.439509	-0.051262	21.3443	-0.436406	-439156	1.167283E-7	NaN
205	1.000000	1.310733	7.36705e+06	-48889.1	955.821	-29760.6	0.000000	0.000000	7.311260	0.024840	NaN	0.000000	0.001696	0.001675	28.0784	0.015699	0.001874	8.376861	-100.451	-171.24	-0.054714	1.309379	-0.426178	-0.427533	0.024840	8.376861	-0.428402	-338419	-7.340038E-8	NaN
205	1.000000	1.322743	7.36705e+06	-48889.1	955.821	-29760.6	0.000000	0.000000	7.323271	0.043204	NaN	0.000000	0.001646	0.001680	28.0785	0.055389	0.002214	25.0176	-149.592	-167.047	0.037604	1.321403	-0.414168	-0.415508	0.043204	25.0176	-0.415463	-221837	-1.947546E-7	NaN
205	1.000000	1.334743	7.36705e+06	-48889.1	955.822	-29760.6	0.000000	0.000000	7.335269	-0.019014	NaN	0.000000	0.001703	0.001646	28.0782	0.130339	0.001905	68.4087	-146.698	-165.031	-0.055561	1.333475	-0.402168	-0.403436	-0.019014	68.4087	-0.401959	-142537	1.333974E-7	NaN
205	1.000000	1.346755	7.36705e+06	-48889.1	955.821	-29760.6	0.000000	0.000000	7.347281	-0.031692	NaN	0.000000	0.001661	0.001675	28.0781	0.080458	0.001867	43.0897	68.6617	-162.742	0.015667	1.345453	-0.390156	-0.391458	-0.031692	43.0897	-0.389604	-94951.8	3.337656E-7	NaN
205	1.000000	1.358779	7.36705e+06	-48889.1	955.821	-29760.6	0.000000	0.000000	7.359305	-0.006828	NaN	0.000000	0.001675	0.001683	28.0767	0.117714	0.002018	58.3303	-173.77	-165.305	-0.008834	1.357416	-0.378132	-0.379496	-0.006828	58.3303	-0.378044	-64835.5	1.053138E-7	NaN
205	1.000000	1.370796	7.36705e+06	-48889.1	955.822	-29760.6	0.000000	0.000000	7.371325	0.059204	NaN	0.000000	0.001680	0.001679	28.0768	0.074151	0.001984	37.3747	-149.252	-165.209	0.063978	1.369469	-0.366116	-0.367442	0.059204	37.3747	-0.367304	-45423.1	-1.303399E-6	NaN
205	1.000000	1.382756	7.36705e+06	-48889.1	955.821	-29760.6	0.000000	0.000000	7.383282	0.007506	NaN	0.000000	0.001691	0.001667	28.0768	0.100118	0.001958	51.1397	-100.057	-165.359	0.008943	1.381456	-0.354156	-0.355455	0.007506	51.1397	-0.354266	-29434.7	-2.550009E-7	NaN
205	1.000000	1.394787	7.36705e+06	-48889.1	955.821	-29760.6	0.000000	0.000000	7.395314	0.008774	NaN	0.000000	0.001670	0.001662	28.0768	0.060076	0.001962	30.622	-90.0754	-167.124	0.018388	1.393481	-0.342125	-0.343430	0.008774	30.622	-0.342339	-19753.2	-4.441861E-7	NaN
205	1.000000	1.406791	7.36705e+06	-48889.1	955.82	-29760.6	0.000000	0.000000	7.407319	0.041385	NaN	0.000000	0.001642	0.001674	28.0768	0.070674	0.001992	35.4753	-47.7271	-167.872	-0.018734	1.405488	-0.330121	-0.331423	0.041385	35.4753	-0.330995	-13490.4	-3.067709E-6	NaN
205	1.000000	1.418773	7.36705e+06	-48889.1	955.82	-29760.6	0.000000	0.000000	7.419302	0.043751	NaN	0.000000	0.001658	0.001681	28.0769	0.101917	0.001997	51.0305	-59.7742	-171.315	0.053950	1.417480	-0.318138	-0.319431	0.043751	51.0305	-0.318781	-8926.61	-4.901222E-6	NaN
205	1.000000	1.430811	7.36706e+06	-48889.1	955.821	-29760.6	0.000000	0.000000	7.431339	0.043351	NaN	0.000000	0.001622	0.001647	28.0771	0.006440	0.002036	3.163429	-63.2444	-166.871	-0.003380	1.429471	-0.306100	-0.307440	0.043351	3.163429	-0.316378	-8227.7	-5.268886E-6	NaN
205	1.000000	1.442790	7.36706e+06	-48889.1	955.821	-29760.6	0.000000	0.000000	7.443319	0.038204	NaN	0.000000	0.001649	0.001653	28.0769	0.100401	0.001949	51.5044	-171.093	-168.12	-0.044793	1.441498	-0.294121	-0.295413	0.038204	51.5044	-0.294677	-3919.81	-9.746357E-6	NaN
205	1.000000	1.454797	7.36706e+06	-48889.1	955.821	-29760.6	0.000000	0.000000	7.455325	0.036968	NaN	0.000000	0.001663	0.001619	28.077	0.097152	0.002017	48.1664	10.3626	-164.404	0.110554	1.453466	-0.282114	-0.283445	0.036968	48.1664	-0.282690	-2591.25	-1.426663E-5	NaN
205	1.000000	1.466812	7.36706e+06	-48889.1	955.821	-29760.6	0.000000	0.000000	7.467339	0.011611	NaN	0.000000	0.001693	0.001553	28.0768	0.088415	0.001883	46.9478	-117.679	-165.276	0.042298	1.465491	-0.270099	-0.271420	0.011611	46.9478	-0.270285	-1682.18	-6.902490E-6	NaN
205	1.000000	1.478814	7.36706e+06	-48889.1	955.821	-29760.6	0.000000	0.000000	7.479343	0.053441	NaN	0.000000	0.001674	0.001608	28.0767	0.101427	0.001965	51.6171	-147.498	-163.536	-0.076448	1.477501	-0.258097	-0.259410	0.053441	51.6171	-0.258873	-1126.26	-4.744994E-5	NaN
205	1.000000	1.490816	7.36706e+06	-48889.1	955.821	-29760.6	0.000000	0.000000	7.491342	-0.023871	NaN	0.000000	0.001665	0.001598	28.0766	0.078259	0.001908	41.0163	96.2601	-166.338	-0.078659	1.489533	-0.246095	-0.247378	-0.023871	41.0163	-0.245659	-704.181	3.389828E-5	NaN
205	1.000000	1.502867	7.36706e+06	-48889.1	955.822	-29760.6	0.000000	0.000000	7.503394	0.024952	NaN	0.000000	0.001701	0.001630	28.078	0.053659	0.002115	25.375	-55.4692	-165.284	0.030285	1.501505	-0.234044	-0.235406	0.024952	25.375	-0.234782	-476.235	-5.239449E-5	NaN
205	1.000000	1.514843	7.36706e+06	-48889.1	955.821	-29760.6	0.000000	0.000000	7.515371	0.035524	NaN	0.000000	0.001663	0.001620	28.0782	0.049678	0.002085	23.8246	-132.19	-167.362	-0.002793	1.513476	-0.222068	-0.223435	0.035524	23.8246	-0.223186	-312.242	-0.000114	NaN
205	1.000000	1.526830	7.36706e+06	-48889.1	955.821	-29760.6	0.000000	0.000000	7.527357	0.003848	NaN	0.000000	0.001653	0.001667	28.0779	0.018526	0.002050	9.036516	-20.4187	-166.26	0.034236	1.525559	-0.210081	-0.211353	0.003848	9.036516	-0.210400	-194.67	-1.976658E-5	NaN
205	1.000000	1.538879	7.36706e+06	-48889.1	955.821	-29760.6	0.000000	0.000000	7.539406	0.011104	NaN	0.000000	0.001641	0.001649	28.0784	0.023292	0.001860	12.5228	-101.187	-167.334	0.028772	1.537526	-0.198032	-0.199385	0.011104	12.5228	-0.198697	-125.39	-8.855870E-5	NaN
205	1.000000	1.550838	7.36706e+06	-48889.1	955.821	-29760.6	0.000000	0.000000	7.551368	0.083102	NaN	0.000000	0.001688	0.001629	28.0781	0.051897	0.002006	25.8683	-156.004	-164.223	-0.011973	1.549509	-0.186074	-0.187402	0.083102	25.8683	-0.188483	-84.8499	-0.000979	NaN
205	1.000000	1.562881	7.36706e+06	-48889.1	955.822	-29760.6	0.000000	0.000000	7.563408	0.032386	NaN	0.000000	0.001662	0.001669	28.0779	0.043008	0.002101	20.4653	37.4401	-169.104	0.021557	1.561548	-0.174031	-0.175363	0.032386	20.4653	-0.175217	-50.5494	-0.000641	NaN
205	1.000000	1.574868	7.36706e+06	-48889.1	955.822	-29760.6	0.000000	0.000000	7.575393	-0.042854	NaN	0.000000	0.001689	0.001659	28.0781	0.068023	0.002121	32.0636	137.883	-168.815	0.012692	1.573559	-0.162043	-0.163352	-0.042854	32.0636	-0.161041	-28.6063	0.001498	NaN
205	1.000000	1.586828	7.36706e+06	-48889.1	955.822	-29760.6	0.000000	0.000000	7.587354	-0.025827	NaN	0.000000	0.001671	0.001643	28.0779	0.027879	0.002035	13.7019	124.879	-167.949	0.066458	1.585569	-0.150083	-0.151343	-0.025827	13.7019	-0.148669	-17.1272	0.001508	NaN
205	1.000000	1.598900	7.36706e+06	-48889.1	955.821	-29760.6	0.000000	0.000000	7.599429	0.056071	NaN	0.000000	0.001690	0.001627	28.0782	0.152163	0.001988	76.5395	50.1662	-167.638	0.150017	1.597599	-0.138011	-0.139312	0.056071	76.5395	-0.138561	-11.114	-0.005045	NaN
205	1.000000	1.610861	7.36706e+06	-48889.1	955.821	-29760.6	0.000000	0.000000	7.611390	0.058686	NaN	0.000000	0.001643	0.001629	28.0779	0.105741	0.002047	51.6516	1.753961	-168.307	-0.016047	1.609625	-0.126051	-0.127286	0.058686	51.6516	-0.126903	-6.629905	-0.008852	NaN
205	1.000000	1.622879	7.36706e+06	-48889.1	955.822	-29760.6	0.000000	0.000000	7.623405	-0.021268	NaN	0.000000	0.001669	0.001625	28.0779	0.110100	0.002030	54.2477	31.3251	-166.99	0.033654	1.621596	-0.114032	-0.115315	-0.021268	54.2477	-0.113738	-3.597607	0.005912	NaN
205	1.000000	1.634892	7.36706e+06	-48889.1	955.822	-29760.6	0.000000	0.000000	7.635419	0.007438	NaN	0.000000	0.001707	0.001601	28.0769	0.054538	0.001959	27.837	136.816	-168.597	0.054667	1.633542	-0.102019	-0.103369	0.007438	27.837	-0.102220	-2.044990	-0.003637	NaN
205	1.000000	1.646912	7.36706e+06	-48889.1	955.821	-29760.6	0.000000	0.000000	7.647439	0.017868	NaN	0.000000	0.001696	0.001606	28.077	0.137291	0.001957	70.1605	48.4425	-166.696	-0.065553	1.645641	-0.089999	-0.091270	0.017868	70.1605	-0.090190	-1.092141	-0.016361	NaN
205	1.000000	1.658895	7.36706e+06	-48889.1	955.822	-29760.6	0.000000	0.000000	7.659420	-0.030259	NaN	0.000000	0.001688	0.001615	28.077	0.045228	0.001900	23.8084	158.743	-164.066	0.023761	1.657589	-0.078016	-0.079322	-0.030259	23.8084	-0.077063	-0.521808	0.057989	NaN
205	1.000000	1.670912	7.36706e+06	-48889.1	955.822	-29760.6	0.000000	0.000000	7.671435	-0.074712	NaN	0.000000	0.001677	0.001642	28.0766	0.087126	0.002065	42.1924	22.9965	-168.673	-0.014720	1.669589	-0.065999	-0.067322	-0.074712	42.1924	-0.064671	-0.244034	0.306153	NaN
205	1.000000	1.682922	7.36706e+06	-48889.1	955.822	-29760.6	0.000000	0.000000	7.683450	0.031692	NaN	0.000000	0.001668	0.001636	28.0768	0.019572	0.001943	10.0733	-47.9257	-166.952	-0.013906	1.681547	-0.053989	-0.055364	0.031692	10.0733	-0.056349	-0.141112	-0.224588	NaN
205	1.000000	1.694933	7.36706e+06	-48889.1	955.822	-29760.6	0.000000	0.000000	7.695460	0.004912	NaN	0.000000	0.001672	0.001643	28.0769	0.038339	0.002066	18.5537	69.2946	-164.85	0.016792	1.693637	-0.041978	-0.043274	0.004912	18.5537	-0.042177	-0.052682	-0.093247	NaN
205	1.000000	1.706926	7.36706e+06	-48889.1	955.821	-29760.6	0.000000	0.000000	7.707454	0.040780	NaN	0.000000	0.001672	0.001651	28.0769	0.029067	0.002027	14.3401	113.574	-169.811	-0.088883	1.705615	-0.029985	-0.031296	0.040780	14.3401	-0.032118	-0.026411	-1.544087	NaN
205	1.000000	1.718945	7.36706e+06	-48889.1	955.822	-29760.6	0.000000	0.000000	7.719472	0.003436	NaN	0.000000	0.001629	0.001665	28.0769	0.092979	0.002125	43.7529	115.337	-169.254	0.044555	1.717570	-0.017966	-0.019341	0.003436	43.7529	-0.018025	-0.011179	-0.307327	NaN
205	1.000000	1.730965	7.36706e+06	-48889.1	955.822	-29760.6	0.000000	0.000000	7.731493	0.018066	NaN	0.000000	0.001684	0.001602	28.0769	0.198598	0.002015	98.5613	12.052	-164.564	-0.086007	1.729612	-0.005946	-0.007299	0.018066	98.5613	-0.006083	-0.004087	-4.420128	NaN
205	1.000000	1.742901	7.36706e+06	-48889.1	955.822	-29760.6	0.000000	0.000000	7.743623	4.771118	NaN	0.000000	0.001711	0.001619	28.0773	5.915145	0.001783	3317.8	9.630574	-170.618	3.118709	1.741597	0.005989	0.004686	4.771118	3317.8	0.004911	0.004052	1177.39	47618.3
205	2.000000	1.748454	7.36706e+06	-48889.1	955.821	-29760.6	0.000000	0.000000	7.749355	9.104491	NaN	0.000000	0.001680	0.001598	28.0774	10.1216	0.001672	6053.55	7.158176	-173.123	9.826883	1.748128	0.011543	0.011217	9.104491	6053.55	0.010415	0.009647	943.794	56311.1
205	2.000000	1.751379	7.36706e+06	-48889.1	955.823	-29760.6	0.000000	0.000000	7.752475	13.8464	NaN	0.000000	0.001661	0.001642	28.0775	13.6053	0.001704	7985.01	7.289671	-176.537	13.7913	1.751089	0.014468	0.014178	13.8464	7985.01	0.013168	0.012919	1071.79	64185.1
205	2.000000	1.754349	7.36706e+06	-48889.1	955.822	-29760.6	0.000000	0.000000	7.755627	18.2744	NaN	0.000000	0.001711	0.001642	28.0777	16.8589	0.001867	9030.2	6.195265	-176.599	17.543	1.754053	0.017438	0.017142	18.2744	9030.2	0.015920	0.016532	1105.39	64166.4
205	2.000000	1.757354	7.36706e+06	-48889.1	955.822	-29760.6	0.000000	0.000000	7.758799	22.3265	NaN	0.000000	0.001761	0.001669	28.078	19.3133	0.001820	10614.4	8.613945	-179.151	22.5486	1.757022	0.020443	0.020111	22.3265	10614.4	0.018865	0.020791	1073.87	67256.8
205	2.000000	1.760330	7.36706e+06	-48889.1	955.822	-29760.6	0.000000	0.000000	7.762022	28.3306	NaN	0.000000	0.001755	0.001664	28.0778	20.9857	0.001826	11492.4	2.288238	-173.951	26.8243	1.760034	0.023419	0.023123	28.3306	11492.4	0.021570	0.025070	1130.05	66314.1
205	2.000000	1.763341	7.36706e+06	-48889.1	955.822	-29760.6	0.000000	0.000000	7.765331	35.5902	NaN	0.000000	0.001761	0.001643	28.0779	24.0651	0.001764	13641.6	5.073483	-179.311	34.5255	1.763002	0.026430	0.026091	35.5902	13641.6	0.024473	0.030065	1183.79	71880.4
205	2.000000	1.766317	7.36706e+06	-48889.1	955.821	-29760.6	0.000000	0.000000	7.768485	39.9098	NaN	0.000000	0.001780	0.001645	28.0779	26.1652	0.001864	14040.2	4.465946	-178.04	38.1768	1.766008	0.029406	0.029097	39.9098	14040.2	0.027274	0.035283	1131.12	68290.5
205	2.000000	1.769354	7.36706e+06	-48889.1	955.823	-29760.6	0.000000	0.000000	7.771812	46.9565	NaN	0.000000	0.001726	0.001634	28.0777	28.5958	0.001746	16375.6	5.137092	179.314	47.2925	1.768949	0.032443	0.032038	46.9565	16375.6	0.030293	0.041352	1135.52	73573.4
205	2.000000	1.772284	7.36706e+06	-48889.1	955.822	-29760.6	0.000000	0.000000	7.775054	54.5644	NaN	0.000000	0.001824	0.001617	28.0783	30.7405	0.001731	17755.4	2.327396	-179.28	52.8503	1.772078	0.035373	0.035167	54.5644	17755.4	0.033068	0.047342	1152.55	74555.3
205	2.000000	1.775278	7.36706e+06	-48889.1	955.822	-29760.6	0.000000	0.000000	7.778554	66.8551	NaN	0.000000	0.001814	0.001616	28.0779	34.1999	0.001716	19933.5	5.091164	177.382	65.2215	1.774974	0.038367	0.038063	66.8551	19933.5	0.035852	0.053748	1243.86	78555.5
205	2.000000	1.778352	7.36706e+06	-48889.1	955.821	-29760.6	0.000000	0.000000	7.781905	73.6003	NaN	0.000000	0.001783	0.001636	28.0778	37.3363	0.001735	21525.2	2.936130	179.458	74.9772	1.778003	0.041441	0.041092	73.6003	21525.2	0.038876	0.061156	1203.48	79524.2
205	2.000000	1.781280	7.36706e+06	-48889.1	955.822	-29760.6	0.000000	0.000000	7.785394	87.2542	NaN	0.000000	0.001800	0.001643	28.0779	40.6537	0.001705	23843.4	6.998549	173.972	87.0698	1.780959	0.044369	0.044048	87.2542	23843.4	0.041624	0.068293	1277.65	83359.6
205	2.000000	1.784282	7.36706e+06	-48889.1	955.822	-29760.6	0.000000	0.000000	7.788744	95.7059	NaN	0.000000	0.001767	0.001597	28.0778	44.5859	0.001773	25152.1	5.598234	174.764	94.5758	1.783928	0.047371	0.047017	95.7059	25152.1	0.044517	0.076222	1255.62	83235.3
205	2.000000	1.787302	7.36706e+06	-48889.1	955.823	-29760.6	0.000000	0.000000	7.792241	107.331	NaN	0.000000	0.001710	0.001648	28.077	46.994	0.001845	25470.3	4.072565	177.195	107.937	1.786941	0.050390	0.050030	107.331	25470.3	0.047230	0.084044	1277.08	80270.1
205	2.000000	1.790223	7.36706e+06	-48889.1	955.822	-29760.6	0.000000	0.000000	7.795683	119.974	NaN	0.000000	0.001762	0.001612	28.0765	48.8529	0.001810	26990.6	-1.370597	-178.282	116.157	1.790023	0.053312	0.053112	119.974	26990.6	0.049978	0.092346	1299.18	81147.7
205	2.000000	1.793321	7.36706e+06	-48889.1	955.822	-29760.6	0.000000	0.000000	7.799283	132.202	NaN	0.000000	0.001742	0.001666	28.0769	53.8277	0.001975	27259	7.831083	172.7	133.106	1.792996	0.056410	0.056085	132.202	27259	0.052772	0.101174	1306.69	78297.8
205	2.000000	1.796262	7.36706e+06	-48889.1	955.822	-29760.6	0.000000	0.000000	7.802742	144.803	NaN	0.000000	0.001710	0.001640	28.0767	54.8272	0.001799	30472.9	1.336909	178.224	142.713	1.795987	0.059351	0.059075	144.803	30472.9	0.055787	0.111135	1302.95	83514.6
205	2.000000	1.799252	7.36706e+06	-48889.1	955.822	-29760.6	0.000000	0.000000	7.806308	158.816	NaN	0.000000	0.001673	0.001596	28.0767	58.0968	0.001859	31250.2	8.585705	170.876	157.169	1.798882	0.062341	0.061971	158.816	31250.2	0.058529	0.120587	1317.03	82219.9
205	2.000000	1.802224	7.36706e+06	-48889.1	955.822	-29760.6	0.000000	0.000000	7.809845	172.531	NaN	0.000000	0.001702	0.001609	28.0769	59.5673	0.001861	32013.4	3.953328	175.225	170.843	1.801906	0.065313	0.064995	172.531	32013.4	0.061271	0.130406	1323.03	80994.7
205	2.000000	1.805266	7.36706e+06	-48889.1	955.822	-29760.6	0.000000	0.000000	7.813302	182.639	NaN	0.000000	0.001708	0.001616	28.0765	61.7537	0.001779	34718.5	6.292676	171.515	181.853	1.804969	0.068355	0.068058	182.639	34718.5	0.064409	0.142092	1285.35	84149
205	2.000000	1.808248	7.36706e+06	-48889.1	955.822	-29760.6	0.000000	0.000000	7.816919	198.087	NaN	0.000000	0.001723	0.001625	28.0767	64.4799	0.001803	35766.9	4.231814	173.823	197.922	1.807929	0.071337	0.071018	198.087	35766.9	0.067183	0.152818	1296.23	83592.5
205	2.000000	1.811225	7.36706e+06	-48889.1	955.822	-29760.5	0.000000	0.000000	7.820749	218.818	NaN	0.000000	0.001735	0.001596	28.0766	66.7554	0.001885	35419.4	3.823472	174.612	216.699	1.810886	0.074314	0.073975	218.818	35419.4	0.069680	0.162790	1344.18	80204.8
205	2.000000	1.814240	7.36706e+06	-48889.1	955.822	-29760.5	0.000000	0.000000	7.824255	230.747	NaN	0.000000	0.001760	0.001603	28.0768	68.9935	0.001781	38733.3	2.304851	175.364	231.186	1.813979	0.077329	0.077068	230.747	38733.3	0.072861	0.175922	1311.65	84371.8
205	2.000000	1.817213	7.36706e+06	-48889.1	955.823	-29760.5	0.000000	0.000000	7.827711	242.521	NaN	0.000000	0.001683	0.001634	28.0772	72.7026	0.001865	38983.8	3.990849	173.287	240.176	1.816966	0.080302	0.080055	242.521	38983.8	0.075636	0.187768	1291.6	82195.3
205	2.000000	1.820188	7.36706e+06	-48889.1	955.822	-29760.5	0.000000	0.000000	7.831325	258.067	NaN	0.000000	0.001742	0.001629	28.0779	75.9891	0.001813	41916.4	8.353417	167.716	254.78	1.819956	0.083277	0.083045	258.067	41916.4	0.078659	0.201085	1283.38	85401.9
205	2.000000	1.823253	7.36706e+06	-48889.1	955.822	-29760.5	0.000000	0.000000	7.835274	279.553	NaN	0.000000	0.001743	0.001617	28.078	77.6906	0.001821	42663.8	5.996915	171.286	280.14	1.822909	0.086342	0.085998	279.553	42663.8	0.081427	0.213653	1308.44	84329.2
205	2.000000	1.826318	7.36706e+06	-48889.1	955.823	-29760.5	0.000000	0.000000	7.838780	290.268	NaN	0.000000	0.001712	0.001628	28.0781	80.0229	0.001807	44276.4	2.495108	174.298	292.929	1.825961	0.089407	0.089050	290.268	44276.4	0.084490	0.227975	1273.24	84723.1
205	2.000000	1.829208	7.36706e+06	-48889.1	955.823	-29760.5	0.000000	0.000000	7.842595	312.777	NaN	0.000000	0.001732	0.001583	28.0781	81.864	0.001807	45299.4	2.297651	174.25	309.405	1.828907	0.092297	0.091996	312.777	45299.4	0.087118	0.240610	1299.93	84374.1
205	2.000000	1.832122	7.36706e+06	-48889.1	955.823	-29760.5	0.000000	0.000000	7.846585	338.944	NaN	0.000000	0.001699	0.001602	28.0781	83.9607	0.001743	48174.7	2.768591	173.3	332.827	1.831879	0.095211	0.094967	338.944	48174.7	0.089934	0.254500	1331.8	87246.5
205	2.000000	1.835342	7.36706e+06	-48889.1	955.823	-29760.5	0.000000	0.000000	7.850332	351.758	NaN	0.000000	0.001699	0.001635	28.0779	87.3386	0.001836	47572.5	4.586191	171.786	358.348	1.834923	0.098431	0.098012	351.758	47572.5	0.092885	0.269448	1305.48	83732
205	2.000000	1.838261	7.36706e+06	-48889.1	955.822	-29760.5	0.000000	0.000000	7.853943	368.589	NaN	0.000000	0.001679	0.001620	28.0781	90.1304	0.001804	49953.2	6.666980	168.462	370.015	1.838044	0.101350	0.101133	368.589	49953.2	0.095816	0.284685	1294.73	85537
205	2.000000	1.841152	7.36706e+06	-48889.1	955.823	-29760.5	0.000000	0.000000	7.857973	396.274	NaN	0.000000	0.001735	0.001576	28.078	93.8099	0.001911	49088.2	6.124893	169.662	391.586	1.840921	0.104241	0.104010	396.274	49088.2	0.098187	0.297299	1332.91	82253.2
205	2.000000	1.844256	7.36706e+06	-48889.1	955.822	-29760.5	0.000000	0.000000	7.862070	420.466	NaN	0.000000	0.001707	0.001623	28.0779	95.5085	0.001787	53449.4	5.238618	170.322	420.853	1.843872	0.107345	0.106961	420.466	53449.4	0.101445	0.315049	1334.6	87001.5
205	2.000000	1.844661	7.36706e+06	-48889.1	955.823	-29760.5	0.000000	0.000000	7.862635	424.346	NaN	0.000000	0.001728	0.001632	28.0779	94.7439	0.001668	56785.7	1.649601	-6.892070	419.249	1.844450	0.107749	0.107538	424.346	56785.7	0.102145	0.318928	1330.54	91868.3