File: remote_trans/data/nanoindenter/0828-1/data/Data_2025-08-06,11h17m57s/2025-07-22_16-23-58_1_549.txt
2025-07-22, 16:23:58, 1
Index	Phase	Displacement	Time	Pos X	Pos Y	Pos Z	Rot A	Rot B	Piezo Z	Force A	Force B	Gripper	Voltage A	Voltage B	Temperature	Amplitude force	Amplitude pos	Stiffness	Phase shift	Phase excitation	Force A raw	Displacement raw	HMax	HMax raw	Real Force	Real Stiffness	Contact Depth	Area	Hardness	Reduced Mod.
[#]	[#]	[um]	[s]	[um]	[um]	[um]	[m°]	[m°]	[um]	[uN]	[uN]	[V]	[V]	[V]	[°C]	[uN]	[um]	[N/m]	[°]	[°]	[uN]	[um]	[um]	[um]	[uN]	[N/m]	[um]	[um^2]	[MPa]	[MPa]
549	1.000000	0.002803	7.37042e+06	-49639.1	1005.82	-29758.2	0.000000	0.000000	6.002805	-0.006593	NaN	0.000000	0.001629	0.001760	28.081	0.060797	0.000880	69.0755	8.453704	-166.377	-0.022259	0.001521	-1.278780	-1.280062	-0.006593	69.0755	-1.278709	-1.241149E+17	5.311709E-20	NaN
549	1.000000	0.012834	7.37042e+06	-49639.1	1005.82	-29758.2	0.000000	0.000000	6.012836	0.006552	NaN	0.000000	0.001628	0.001735	28.081	0.069861	0.001350	51.7663	-108.493	13.2637	-0.038422	0.011413	-1.268750	-1.270170	0.006552	51.7663	-1.268845	-9.160982E+16	-7.152518E-20	NaN
549	1.000000	0.022751	7.37042e+06	-49639.1	1005.82	-29758.2	0.000000	0.000000	6.022754	0.006978	NaN	0.000000	0.001564	0.001767	28.0807	0.007878	0.001715	4.593118	-82.4067	-167.31	-0.005942	0.021444	-1.258832	-1.260139	0.006978	4.593118	-1.259972	-6.970948E+16	-1.000946E-19	NaN
549	1.000000	0.032737	7.37042e+06	-49639.1	1005.82	-29758.2	0.000000	0.000000	6.032739	-0.011114	NaN	0.000000	0.001605	0.001740	28.0808	0.068480	0.001923	35.6173	68.4763	17.6887	0.016863	0.031382	-1.248846	-1.250201	-0.011114	35.6173	-1.248612	-4.913063E+16	2.262082E-19	NaN
549	1.000000	0.042746	7.37042e+06	-49639.1	1005.82	-29758.2	0.000000	0.000000	6.042749	-0.003208	NaN	0.000000	0.001600	0.001742	28.0805	0.050482	0.001977	25.535	43.9235	-169.133	-0.006415	0.041445	-1.238837	-1.240138	-0.003208	25.535	-1.238743	-3.625130E+16	8.849794E-20	NaN
549	1.000000	0.052733	7.37042e+06	-49639.1	1005.82	-29758.2	0.000000	0.000000	6.052734	-0.043784	NaN	0.000000	0.001563	0.001802	28.081	0.074057	0.002081	35.5898	133.123	14.8868	0.023310	0.051427	-1.228850	-1.230156	-0.043784	35.5898	-1.227927	-2.597779E+16	1.685435E-18	NaN
549	1.000000	0.062759	7.37042e+06	-49639.1	1005.82	-29758.2	0.000000	0.000000	6.062762	0.006796	NaN	0.000000	0.001610	0.001748	28.0815	0.078921	0.001965	40.1718	-55.1132	-168.424	-0.013483	0.061455	-1.218824	-1.220128	0.006796	40.1718	-1.218951	-1.970010E+16	-3.449894E-19	NaN
549	1.000000	0.072766	7.37042e+06	-49639.1	1005.82	-29758.2	0.000000	0.000000	6.072770	0.048739	NaN	0.000000	0.001619	0.001752	28.082	0.065935	0.001969	33.4798	94.0909	14.5642	0.021095	0.071395	-1.208817	-1.210188	0.048739	33.4798	-1.209909	-1.490824E+16	-3.269248E-18	NaN
549	1.000000	0.082793	7.37042e+06	-49639.1	1005.82	-29758.2	0.000000	0.000000	6.082793	-0.058731	NaN	0.000000	0.001595	0.001722	28.0819	0.041765	0.002059	20.2798	87.2126	-165.521	-0.012830	0.081448	-1.198790	-1.200135	-0.058731	20.2798	-1.196618	-9.895955E+15	5.934813E-18	NaN
549	1.000000	0.092760	7.37042e+06	-49639.1	1005.82	-29758.2	0.000000	0.000000	6.092760	-0.057916	NaN	0.000000	0.001624	0.001731	28.0819	0.048180	0.002062	23.3702	-102.878	15.6262	-0.063445	0.091361	-1.188823	-1.190223	-0.057916	23.3702	-1.186965	-7.347982E+15	7.881899E-18	NaN
549	1.000000	0.102769	7.37042e+06	-49639.1	1005.82	-29758.2	0.000000	0.000000	6.102770	-0.039121	NaN	0.000000	0.001579	0.001758	28.0816	0.023222	0.001796	12.9319	-60.5624	-162.825	-0.057612	0.101455	-1.178814	-1.180128	-0.039121	12.9319	-1.176545	-5.328274E+15	7.342088E-18	NaN
549	1.000000	0.112783	7.37042e+06	-49639.1	1005.82	-29758.2	0.000000	0.000000	6.112787	0.037433	NaN	0.000000	0.001555	0.001741	28.0821	0.083652	0.002029	41.2289	-171.189	12.2468	0.017853	0.111451	-1.168801	-1.170132	0.037433	41.2289	-1.169482	-4.284899E+15	-8.736052E-18	NaN
549	1.000000	0.122757	7.37042e+06	-49639.1	1005.82	-29758.2	0.000000	0.000000	6.122759	-0.024854	NaN	0.000000	0.001553	0.001723	28.0819	0.081290	0.002029	40.0559	-102.53	-163.891	0.036504	0.121491	-1.158826	-1.160092	-0.024854	40.0559	-1.158361	-3.040150E+15	8.175278E-18	NaN
549	1.000000	0.132784	7.37042e+06	-49639.1	1005.82	-29758.2	0.000000	0.000000	6.132788	0.039392	NaN	0.000000	0.001566	0.001795	28.0821	0.037389	0.001935	19.3268	63.3457	16.0432	0.023752	0.131418	-1.148799	-1.150166	0.039392	19.3268	-1.150328	-2.372549E+15	-1.660322E-17	NaN
549	1.000000	0.142777	7.37042e+06	-49639.1	1005.82	-29758.2	0.000000	0.000000	6.142780	0.012861	NaN	0.000000	0.001579	0.001755	28.0818	0.053337	0.001939	27.5097	-108.273	-166.695	-0.075622	0.141469	-1.138806	-1.140114	0.012861	27.5097	-1.139157	-1.680463E+15	-7.653149E-18	NaN
549	1.000000	0.152790	7.37042e+06	-49639.1	1005.82	-29758.2	0.000000	0.000000	6.152794	0.035877	NaN	0.000000	0.001575	0.001787	28.0823	0.058303	0.002127	27.4173	-39.4639	15.2464	0.020833	0.151412	-1.128793	-1.130171	0.035877	27.4173	-1.129775	-1.257759E+15	-2.852489E-17	NaN
549	1.000000	0.162807	7.37042e+06	-49639.1	1005.82	-29758.2	0.000000	0.000000	6.162808	-0.045217	NaN	0.000000	0.001565	0.001758	28.0819	0.079536	0.001857	42.8189	26.5186	-163.758	0.028250	0.161506	-1.118776	-1.120077	-0.045217	42.8189	-1.117984	-8.738242E+14	5.174633E-17	NaN
549	1.000000	0.172793	7.37042e+06	-49639.1	1005.82	-29758.2	0.000000	0.000000	6.172795	-0.010477	NaN	0.000000	0.001639	0.001726	28.0819	0.042503	0.001990	21.3597	-114.663	11.6795	-0.024277	0.171444	-1.108790	-1.110139	-0.010477	21.3597	-1.108422	-6.503032E+14	1.611063E-17	NaN
549	1.000000	0.182796	7.37042e+06	-49639.1	1005.82	-29758.2	0.000000	0.000000	6.182800	0.028533	NaN	0.000000	0.001609	0.001739	28.0817	0.015561	0.002129	7.308273	116.572	-166.751	-0.041752	0.181535	-1.098787	-1.100048	0.028533	7.308273	-1.101715	-5.285574E+14	-5.398290E-17	NaN
549	1.000000	0.192801	7.37042e+06	-49639.1	1005.82	-29758.2	0.000000	0.000000	6.192801	-0.073514	NaN	0.000000	0.001588	0.001773	28.0819	0.027368	0.001783	15.3504	-88.9184	11.1243	-0.024891	0.191438	-1.088782	-1.090145	-0.073514	15.3504	-1.085190	-3.171206E+14	2.318173E-16	NaN
549	1.000000	0.202810	7.37042e+06	-49639.1	1005.82	-29758.2	0.000000	0.000000	6.202814	0.054664	NaN	0.000000	0.001581	0.001759	28.0805	0.055677	0.001960	28.4067	-101.729	-160.972	-0.027169	0.201485	-1.078774	-1.080098	0.054664	28.4067	-1.080217	-2.719149E+14	-2.010322E-16	NaN
549	1.000000	0.212785	7.37042e+06	-49639.1	1005.82	-29758.2	0.000000	0.000000	6.212788	0.004840	NaN	0.000000	0.001580	0.001753	28.0809	0.081932	0.002111	38.8172	-68.798	17.3237	-0.057680	0.211451	-1.068798	-1.070133	0.004840	38.8172	-1.068892	-1.915567E+14	-2.526911E-17	NaN
549	1.000000	0.222831	7.37042e+06	-49639.1	1005.82	-29758.2	0.000000	0.000000	6.222832	-0.030449	NaN	0.000000	0.001605	0.001757	28.0804	0.104113	0.001924	54.1113	-124.708	-169.155	-0.039414	0.221508	-1.058752	-1.060075	-0.030449	54.1113	-1.058330	-1.381591E+14	2.203893E-16	NaN
549	1.000000	0.232829	7.37042e+06	-49639.1	1005.82	-29758.2	0.000000	0.000000	6.232830	-0.023992	NaN	0.000000	0.001600	0.001770	28.0806	0.057043	0.001851	30.8135	-59.7397	10.6756	-0.074273	0.231443	-1.048754	-1.050140	-0.023992	30.8135	-1.048170	-1.008833E+14	2.378209E-16	NaN
549	1.000000	0.242842	7.37042e+06	-49639.1	1005.82	-29758.2	0.000000	0.000000	6.242845	0.013487	NaN	0.000000	0.001597	0.001733	28.0805	0.067726	0.002033	33.3207	-96.5247	-167.215	0.104924	0.241546	-1.038742	-1.040037	0.013487	33.3207	-1.039045	-7.605504E+13	-1.773278E-16	NaN
549	1.000000	0.252854	7.37042e+06	-49639.1	1005.82	-29758.2	0.000000	0.000000	6.252855	-0.030573	NaN	0.000000	0.001612	0.001769	28.0817	0.035021	0.001991	17.5928	108.761	15.3517	-0.069672	0.251485	-1.028730	-1.030098	-0.030573	17.5928	-1.027426	-5.307164E+13	5.760737E-16	NaN
549	1.000000	0.262826	7.37042e+06	-49639.1	1005.82	-29758.2	0.000000	0.000000	6.262830	0.033836	NaN	0.000000	0.001616	0.001734	28.0805	0.028684	0.002001	14.3371	-105.861	-165.872	0.007274	0.261516	-1.018757	-1.020067	0.033836	14.3371	-1.020527	-4.285899E+13	-7.894759E-16	NaN
549	1.000000	0.272850	7.37042e+06	-49639.1	1005.82	-29758.2	0.000000	0.000000	6.272851	-0.035295	NaN	0.000000	0.001581	0.001788	28.0808	0.051790	0.002060	25.145	54.4627	15.3045	0.000542	0.271468	-1.008733	-1.010115	-0.035295	25.145	-1.007681	-2.878488E+13	1.226174E-15	NaN
549	1.000000	0.282850	7.37042e+06	-49639.1	1005.82	-29758.2	0.000000	0.000000	6.282854	0.039275	NaN	0.000000	0.001580	0.001776	28.0805	0.039769	0.001966	20.2291	73.707	-167.69	-0.011075	0.281511	-0.998733	-1.000072	0.039275	20.2291	-1.000190	-2.282031E+13	-1.721053E-15	NaN
549	1.000000	0.292838	7.37042e+06	-49639.1	1005.82	-29758.2	0.000000	0.000000	6.292837	-0.080440	NaN	0.000000	0.001606	0.001785	28.081	0.122468	0.001935	63.2999	-171.561	15.4509	-0.053806	0.291494	-0.988745	-0.990089	-0.080440	63.2999	-0.987792	-1.553720E+13	5.177248E-15	NaN
549	1.000000	0.302882	7.37042e+06	-49639.1	1005.82	-29758.2	0.000000	0.000000	6.302883	-0.038755	NaN	0.000000	0.001613	0.001765	28.0806	0.025416	0.001906	13.3321	99.4259	-164.257	0.063394	0.301529	-0.978701	-0.980055	-0.038755	13.3321	-0.976521	-1.095316E+13	3.538283E-15	NaN
549	1.000000	0.312866	7.37042e+06	-49639.1	1005.82	-29758.2	0.000000	0.000000	6.312867	-0.039040	NaN	0.000000	0.001602	0.001746	28.0808	0.037920	0.001928	19.6661	64.9204	12.4603	-0.025830	0.311477	-0.968717	-0.970106	-0.039040	19.6661	-0.967229	-8.209399E+12	4.755550E-15	NaN
549	1.000000	0.322863	7.37042e+06	-49639.1	1005.82	-29758.2	0.000000	0.000000	6.322864	-0.043477	NaN	0.000000	0.001632	0.001776	28.0808	0.052976	0.001935	27.372	-167.707	-163.449	-0.090555	0.321551	-0.958720	-0.960032	-0.043477	27.372	-0.957529	-6.075099E+12	7.156607E-15	NaN
549	1.000000	0.332883	7.37042e+06	-49639.1	1005.82	-29758.2	0.000000	0.000000	6.332886	0.011573	NaN	0.000000	0.001625	0.001759	28.082	0.124064	0.002103	58.9893	-104.992	13.5949	-0.007147	0.331451	-0.948700	-0.950132	0.011573	58.9893	-0.948847	-4.639630E+12	-2.494375E-15	NaN
549	1.000000	0.342876	7.37042e+06	-49639.1	1005.82	-29758.2	0.000000	0.000000	6.342877	-0.033229	NaN	0.000000	0.001642	0.001738	28.0821	0.050256	0.001997	25.1664	95.8975	-163.621	0.082042	0.341586	-0.938708	-0.939997	-0.033229	25.1664	-0.937717	-3.283520E+12	1.011997E-14	NaN
549	1.000000	0.352872	7.37042e+06	-49639.1	1005.82	-29758.2	0.000000	0.000000	6.352872	-0.063357	NaN	0.000000	0.001621	0.001744	28.0823	0.055823	0.002001	27.9008	-50.5297	15.5393	-0.006560	0.351497	-0.928711	-0.930086	-0.063357	27.9008	-0.927008	-2.354046E+12	2.691426E-14	NaN
549	1.000000	0.362870	7.37042e+06	-49639.1	1005.82	-29758.2	0.000000	0.000000	6.362872	-0.019246	NaN	0.000000	0.001608	0.001768	28.0824	0.033499	0.001925	17.4021	143.52	-162.47	-0.037309	0.361550	-0.918713	-0.920033	-0.019246	17.4021	-0.917883	-1.772667E+12	1.085723E-14	NaN
549	1.000000	0.372896	7.37042e+06	-49639.1	1005.82	-29758.2	0.000000	0.000000	6.372898	-0.004082	NaN	0.000000	0.001600	0.001748	28.0823	0.034129	0.001874	18.2084	-101.948	12.6399	-0.050315	0.371485	-0.908687	-0.910099	-0.004082	18.2084	-0.908519	-1.324828E+12	3.081143E-15	NaN
549	1.000000	0.382855	7.37042e+06	-49639.1	1005.82	-29758.2	0.000000	0.000000	6.382857	-0.002339	NaN	0.000000	0.001617	0.001761	28.0823	0.059022	0.002059	28.667	-106.229	-164.344	-0.009390	0.381621	-0.898728	-0.899963	-0.002339	28.667	-0.898667	-9.751198E+11	2.398805E-15	NaN
549	1.000000	0.392877	7.37042e+06	-49639.1	1005.82	-29758.2	0.000000	0.000000	6.392879	-0.001312	NaN	0.000000	0.001615	0.001754	28.0823	0.052956	0.002109	25.1113	46.8736	11.7825	-0.031450	0.391508	-0.888706	-0.890075	-0.001312	25.1113	-0.888667	-7.143286E+11	1.837149E-15	NaN
549	1.000000	0.402891	7.37042e+06	-49639.1	1005.82	-29758.2	0.000000	0.000000	6.402892	-0.046766	NaN	0.000000	0.001595	0.001747	28.0821	0.052100	0.001908	27.3132	-122.797	-164.685	-0.078021	0.401585	-0.878692	-0.879998	-0.046766	27.3132	-0.877408	-5.030934E+11	9.295649E-14	NaN
549	1.000000	0.412885	7.37042e+06	-49639.1	1005.82	-29758.2	0.000000	0.000000	6.412888	0.012084	NaN	0.000000	0.001596	0.001741	28.0821	0.131437	0.002003	65.6201	80.3897	14.5637	0.069956	0.411554	-0.868698	-0.870029	0.012084	65.6201	-0.868836	-3.852110E+11	-3.137029E-14	NaN
549	1.000000	0.422926	7.37042e+06	-49639.1	1005.82	-29758.2	0.000000	0.000000	6.422928	0.004095	NaN	0.000000	0.001602	0.001710	28.0823	0.034409	0.002013	17.089	-157.196	-162.464	-0.018047	0.421629	-0.858658	-0.859955	0.004095	17.089	-0.858837	-2.820880E+11	-1.451558E-14	NaN
549	1.000000	0.432930	7.37042e+06	-49639.1	1005.82	-29758.2	0.000000	0.000000	6.432933	0.007336	NaN	0.000000	0.001620	0.001764	28.0823	0.076076	0.002045	37.2023	141.957	13.7954	0.056498	0.431571	-0.848653	-0.850012	0.007336	37.2023	-0.848801	-2.063001E+11	-3.555801E-14	NaN
549	1.000000	0.442907	7.37042e+06	-49639.1	1005.82	-29758.2	0.000000	0.000000	6.442909	-0.012217	NaN	0.000000	0.001606	0.001779	28.0822	0.057592	0.001908	30.1776	13.7586	-165.839	0.012651	0.441678	-0.838676	-0.839905	-0.012217	30.1776	-0.838372	-1.490192E+11	8.198377E-14	NaN
549	1.000000	0.452941	7.37042e+06	-49639.1	1005.82	-29758.2	0.000000	0.000000	6.452943	0.006705	NaN	0.000000	0.001604	0.001716	28.0821	0.017779	0.002125	8.365846	-71.393	13.0057	-0.016210	0.451565	-0.828643	-0.830018	0.006705	8.365846	-0.829244	-1.120815E+11	-5.982662E-14	NaN
549	1.000000	0.462926	7.37042e+06	-49639.1	1005.82	-29758.2	0.000000	0.000000	6.462930	0.031868	NaN	0.000000	0.001587	0.001702	28.0823	0.105073	0.002112	49.7458	-9.627000	-160.765	-0.025559	0.461685	-0.818657	-0.819899	0.031868	49.7458	-0.819138	-8.175608E+10	-3.897957E-13	NaN
549	1.000000	0.472950	7.37042e+06	-49639.1	1005.82	-29758.2	0.000000	0.000000	6.472950	-0.063154	NaN	0.000000	0.001596	0.001750	28.0808	0.058588	0.001881	31.1481	156.569	16.0979	-0.083740	0.471577	-0.808633	-0.810006	-0.063154	31.1481	-0.807112	-5.615507E+10	1.124629E-12	NaN
549	1.000000	0.482931	7.37042e+06	-49639.1	1005.82	-29758.2	0.000000	0.000000	6.482932	-0.049169	NaN	0.000000	0.001590	0.001737	28.081	0.058519	0.001951	30.0011	136.14	-163.104	-0.075279	0.481618	-0.798652	-0.799965	-0.049169	30.0011	-0.797423	-4.148378E+10	1.185259E-12	NaN
549	1.000000	0.492928	7.37042e+06	-49639.1	1005.82	-29758.2	0.000000	0.000000	6.492927	-0.084349	NaN	0.000000	0.001607	0.001718	28.0811	0.068168	0.001952	34.9199	78.7635	13.0557	0.004917	0.491601	-0.788655	-0.789982	-0.084349	34.9199	-0.786843	-2.979933E+10	2.830553E-12	NaN
549	1.000000	0.502939	7.37042e+06	-49639.1	1005.82	-29758.2	0.000000	0.000000	6.502940	-0.024309	NaN	0.000000	0.001614	0.001727	28.0813	0.088784	0.001967	45.1301	78.0845	-164.744	-0.008761	0.501599	-0.778644	-0.779984	-0.024309	45.1301	-0.778240	-2.276774E+10	1.067690E-12	NaN
549	1.000000	0.512953	7.37042e+06	-49639.1	1005.82	-29758.2	0.000000	0.000000	6.512955	0.011067	NaN	0.000000	0.001574	0.001738	28.0808	0.027874	0.001932	14.4284	-5.327829	9.752586	-0.034872	0.511565	-0.768631	-0.770019	0.011067	14.4284	-0.769206	-1.715968E+10	-6.449486E-13	NaN
549	1.000000	0.522950	7.37042e+06	-49639.1	1005.82	-29758.2	0.000000	0.000000	6.522950	-0.058616	NaN	0.000000	0.001587	0.001710	28.0809	0.093841	0.002100	44.681	-98.7584	-166.175	0.034042	0.521681	-0.758633	-0.759902	-0.058616	44.681	-0.757649	-1.194861E+10	4.905650E-12	NaN
549	1.000000	0.532923	7.37042e+06	-49639.1	1005.82	-29758.2	0.000000	0.000000	6.532926	0.014036	NaN	0.000000	0.001570	0.001744	28.0808	0.098120	0.001943	50.5033	-123.057	14.912	-0.004985	0.531610	-0.748660	-0.749973	0.014036	50.5033	-0.748868	-9.074355E+9	-1.546741E-12	NaN
549	1.000000	0.542956	7.37042e+06	-49639.1	1005.82	-29758.2	0.000000	0.000000	6.542958	-0.005522	NaN	0.000000	0.001601	0.001727	28.0808	0.065230	0.002042	31.9495	107.415	-168.219	0.101454	0.541665	-0.738627	-0.739918	-0.005522	31.9495	-0.738497	-6.555239E+9	8.423904E-13	NaN
549	1.000000	0.552953	7.37042e+06	-49639.1	1005.82	-29758.2	0.000000	0.000000	6.552954	-0.035858	NaN	0.000000	0.001654	0.001727	28.0809	0.106860	0.002029	52.6583	71.4935	13.2544	-0.054652	0.551597	-0.728630	-0.729986	-0.035858	52.6583	-0.728119	-4.733414E+9	7.575458E-12	NaN
549	1.000000	0.562994	7.37042e+06	-49639.1	1005.82	-29758.2	0.000000	0.000000	6.562996	0.003472	NaN	0.000000	0.001614	0.001751	28.0809	0.061932	0.002034	30.4546	130.359	-163.823	0.003550	0.561620	-0.718590	-0.719963	0.003472	30.4546	-0.718675	-3.518866E+9	-9.867470E-13	NaN
549	1.000000	0.572969	7.37042e+06	-49639.1	1005.82	-29758.2	0.000000	0.000000	6.572971	-0.026826	NaN	0.000000	0.001642	0.001738	28.081	0.043440	0.002016	21.5424	-179.412	10.7664	-0.015902	0.571606	-0.708614	-0.709977	-0.026826	21.5424	-0.707680	-2.491063E+9	1.076892E-11	NaN
549	1.000000	0.582966	7.37042e+06	-49639.1	1005.82	-29758.2	0.000000	0.000000	6.582969	0.012533	NaN	0.000000	0.001592	0.001762	28.0809	0.049424	0.001942	25.4489	-138.248	-165.588	-0.113075	0.581676	-0.698617	-0.699907	0.012533	25.4489	-0.698986	-1.895341E+9	-6.612337E-12	NaN
549	1.000000	0.592987	7.37042e+06	-49639.1	1005.82	-29758.2	0.000000	0.000000	6.592988	-0.045306	NaN	0.000000	0.001615	0.001717	28.0809	0.068883	0.001989	34.6236	168.128	15.8763	-0.073839	0.591610	-0.688596	-0.689973	-0.045306	34.6236	-0.687615	-1.325313E+9	3.418538E-11	NaN
549	1.000000	0.602973	7.37042e+06	-49639.1	1005.82	-29758.2	0.000000	0.000000	6.602972	-0.083848	NaN	0.000000	0.001634	0.001715	28.081	0.096839	0.001962	49.3584	-2.888760	-166.722	-0.028657	0.601645	-0.678610	-0.679938	-0.083848	49.3584	-0.677336	-9.588845E+8	8.744372E-11	NaN
549	1.000000	0.612991	7.37042e+06	-49639.1	1005.82	-29758.2	0.000000	0.000000	6.612992	-0.030957	NaN	0.000000	0.001598	0.001706	28.0822	0.213266	0.001985	107.419	-148.227	13.2241	-0.086159	0.611640	-0.668593	-0.669943	-0.030957	107.419	-0.668377	-7.230530E+8	4.281486E-11	NaN
549	1.000000	0.622991	7.37042e+06	-49639.1	1005.82	-29758.2	0.000000	0.000000	6.622995	0.032341	NaN	0.000000	0.001594	0.001729	28.0822	0.064614	0.001978	32.6585	-123.003	-165.966	0.009371	0.621730	-0.658592	-0.659853	0.032341	32.6585	-0.659335	-5.436994E+8	-5.948264E-11	NaN
549	1.000000	0.632987	7.37042e+06	-49639.1	1005.82	-29758.2	0.000000	0.000000	6.632985	-0.088829	NaN	0.000000	0.001681	0.001690	28.0821	0.116561	0.002092	55.7196	-71.632	14.6059	-0.031774	0.631644	-0.648597	-0.649940	-0.088829	55.7196	-0.647401	-3.730806E+8	2.380963E-10	NaN
549	1.000000	0.643008	7.37042e+06	-49639.1	1005.82	-29758.2	0.000000	0.000000	6.643009	-0.031918	NaN	0.000000	0.001673	0.001739	28.0822	0.067120	0.002139	31.3794	-111.25	-166.647	0.017664	0.641718	-0.638576	-0.639865	-0.031918	31.3794	-0.637813	-2.755980E+8	1.158134E-10	NaN
549	1.000000	0.653007	7.37042e+06	-49639.1	1005.82	-29758.2	0.000000	0.000000	6.653009	-0.027128	NaN	0.000000	0.001669	0.001714	28.0822	0.000876	0.002041	0.429216	-48.6569	15.9075	-0.032013	0.651671	-0.628576	-0.629912	-0.027128	0.429216	-0.581172	-4.580428E+7	5.922697E-10	NaN
549	1.000000	0.663005	7.37042e+06	-49639.1	1005.82	-29758.2	0.000000	0.000000	6.663006	-0.019775	NaN	0.000000	0.001660	0.001728	28.082	0.084382	0.001948	43.3256	-149.891	-163.28	-0.023600	0.661688	-0.618579	-0.619895	-0.019775	43.3256	-0.618236	-1.483840E+8	1.332694E-10	NaN
549	1.000000	0.673033	7.37042e+06	-49639.1	1005.82	-29758.2	0.000000	0.000000	6.673036	-0.003881	NaN	0.000000	0.001659	0.001732	28.0823	0.067513	0.002031	33.2449	-62.822	9.790044	-0.035766	0.671656	-0.608550	-0.609927	-0.003881	33.2449	-0.608462	-1.088824E+8	3.564015E-11	NaN
549	1.000000	0.682996	7.37042e+06	-49639.1	1005.82	-29758.2	0.000000	0.000000	6.682998	-0.017574	NaN	0.000000	0.001675	0.001713	28.082	0.103156	0.001975	52.2335	107.324	-163.402	-0.105477	0.681679	-0.598587	-0.599904	-0.017574	52.2335	-0.598335	-7.898202E+7	2.225060E-10	NaN
549	1.000000	0.693040	7.37042e+06	-49639.1	1005.82	-29758.2	0.000000	0.000000	6.693038	-0.091926	NaN	0.000000	0.001645	0.001733	28.0821	0.132253	0.001948	67.902	139.785	13.6852	-0.098419	0.691682	-0.588544	-0.589901	-0.091926	67.902	-0.587528	-5.605103E+7	1.640038E-9	NaN
549	1.000000	0.703020	7.37042e+06	-49639.1	1005.82	-29758.2	0.000000	0.000000	6.703022	-0.009341	NaN	0.000000	0.001689	0.001729	28.0822	0.116310	0.002056	56.5587	-145.981	-167.51	-0.077451	0.701682	-0.578563	-0.579901	-0.009341	56.5587	-0.578439	-4.199334E+7	2.224457E-10	NaN
549	1.000000	0.713020	7.37042e+06	-49639.1	1005.82	-29758.2	0.000000	0.000000	6.713018	-0.087124	NaN	0.000000	0.001683	0.001698	28.0822	0.087406	0.001914	45.6567	-89.677	12.162	-0.150167	0.711629	-0.568564	-0.569954	-0.087124	45.6567	-0.567132	-2.930919E+7	2.972595E-9	NaN
549	1.000000	0.723031	7.37042e+06	-49639.1	1005.82	-29758.2	0.000000	0.000000	6.723034	-0.001212	NaN	0.000000	0.001682	0.001751	28.0822	0.137327	0.001931	71.1014	-56.1604	-163.35	-0.019628	0.721731	-0.558552	-0.559852	-0.001212	71.1014	-0.558539	-2.229308E+7	5.434509E-11	NaN
549	1.000000	0.733040	7.37042e+06	-49639.1	1005.82	-29758.2	0.000000	0.000000	6.733042	0.001967	NaN	0.000000	0.001729	0.001752	28.0821	0.081707	0.001986	41.1358	-49.937	14.454	-0.037241	0.731657	-0.548544	-0.549927	0.001967	41.1358	-0.548579	-1.622850E+7	-1.212077E-10	NaN
549	1.000000	0.743030	7.37042e+06	-49639.1	1005.82	-29758.2	0.000000	0.000000	6.743030	-0.062788	NaN	0.000000	0.001668	0.001781	28.0809	0.032780	0.002065	15.8714	-120.233	-163.301	-0.010898	0.741709	-0.538554	-0.539874	-0.062788	15.8714	-0.535587	-1.071839E+7	5.857939E-9	NaN
549	1.000000	0.753032	7.37042e+06	-49639.1	1005.82	-29758.2	0.000000	0.000000	6.753031	-0.090503	NaN	0.000000	0.001673	0.001749	28.0808	0.090652	0.001931	46.9341	-8.748559	13.5504	-0.133048	0.751740	-0.528551	-0.529844	-0.090503	46.9341	-0.527105	-8.17261e+06	1.107394E-8	NaN
549	1.000000	0.763065	7.37042e+06	-49639.1	1005.82	-29758.2	0.000000	0.000000	6.763069	0.018809	NaN	0.000000	0.001688	0.001734	28.0807	0.032720	0.001820	17.9746	-139.958	-168.133	-0.078540	0.761766	-0.518518	-0.519817	0.018809	17.9746	-0.519303	-6.36646e+06	-2.954401E-9	NaN
549	1.000000	0.773030	7.37042e+06	-49639.1	1005.82	-29758.2	0.000000	0.000000	6.773030	-0.069390	NaN	0.000000	0.001673	0.001728	28.081	0.030361	0.002021	15.0216	-98.1139	15.0468	-0.032132	0.771707	-0.508553	-0.509877	-0.069390	15.0216	-0.505088	-4.03625e+06	1.719161E-8	NaN
549	1.000000	0.783076	7.37042e+06	-49639.1	1005.82	-29758.2	0.000000	0.000000	6.783077	-0.023375	NaN	0.000000	0.001670	0.001701	28.0809	0.030555	0.001943	15.7285	171.856	-167.841	-0.036350	0.781779	-0.498508	-0.499805	-0.023375	15.7285	-0.497393	-3.1524e+06	7.414949E-9	NaN
549	1.000000	0.793071	7.37042e+06	-49639.1	1005.82	-29758.2	0.000000	0.000000	6.793073	-0.008639	NaN	0.000000	0.001701	0.001702	28.0808	0.080409	0.002074	38.7721	-147.952	14.5162	-0.039445	0.791688	-0.488512	-0.489896	-0.008639	38.7721	-0.488345	-2.35649e+06	3.666085E-9	NaN
549	1.000000	0.803081	7.37042e+06	-49639.1	1005.82	-29758.2	0.000000	0.000000	6.803080	-0.081274	NaN	0.000000	0.001663	0.001727	28.0808	0.053075	0.001962	27.0451	-117.243	-168.352	-0.083407	0.801755	-0.478502	-0.479828	-0.081274	27.0451	-0.476248	-1.59584e+06	5.092854E-8	NaN
549	1.000000	0.813056	7.37042e+06	-49639.1	1005.82	-29758.2	0.000000	0.000000	6.813058	-0.016624	NaN	0.000000	0.001669	0.001710	28.0811	0.037529	0.002103	17.8445	-63.4325	15.3666	0.067066	0.811721	-0.468527	-0.469862	-0.016624	17.8445	-0.467828	-1.21603e+06	1.367066E-8	NaN
549	1.000000	0.823092	7.37042e+06	-49639.1	1005.82	-29758.2	0.000000	0.000000	6.823094	-0.017321	NaN	0.000000	0.001677	0.001712	28.0808	0.091561	0.002069	44.2572	91.184	-166.2	-0.002657	0.821736	-0.458491	-0.459847	-0.017321	44.2572	-0.458198	-890609	1.944809E-8	NaN
549	1.000000	0.833060	7.37042e+06	-49639.1	1005.82	-29758.2	0.000000	0.000000	6.833061	-0.037573	NaN	0.000000	0.001657	0.001697	28.0809	0.039832	0.002065	19.2913	-28.5069	17.856	0.010571	0.831680	-0.448524	-0.449903	-0.037573	19.2913	-0.447063	-620821	6.052186E-8	NaN
549	1.000000	0.843093	7.37042e+06	-49639.1	1005.82	-29758.2	0.000000	0.000000	6.843097	0.032900	NaN	0.000000	0.001684	0.001686	28.081	0.116840	0.001946	60.0531	166.497	-163.436	0.019255	0.841722	-0.438490	-0.439861	0.032900	60.0531	-0.438901	-476263	-6.907853E-8	NaN
549	1.000000	0.853104	7.37042e+06	-49639.1	1005.82	-29758.2	0.000000	0.000000	6.853108	0.017075	NaN	0.000000	0.001604	0.001682	28.0809	0.075049	0.001917	39.1413	85.8225	15.8645	0.070345	0.851753	-0.428479	-0.429830	0.017075	39.1413	-0.428806	-342900	-4.979575E-8	NaN
549	1.000000	0.863077	7.37042e+06	-49639.1	1005.82	-29758.2	0.000000	0.000000	6.863076	-0.103457	NaN	0.000000	0.001640	0.001697	28.081	0.045927	0.001911	24.0304	123.006	-164.628	-0.044125	0.861821	-0.418506	-0.419762	-0.103457	24.0304	-0.415277	-220490	4.692152E-7	NaN
549	1.000000	0.873092	7.37042e+06	-49639.1	1005.82	-29758.2	0.000000	0.000000	6.873093	-0.038467	NaN	0.000000	0.001654	0.001686	28.0809	0.093548	0.001901	49.1991	-140.92	15.0432	0.014269	0.871685	-0.408491	-0.409898	-0.038467	49.1991	-0.407905	-173219	2.220737E-7	NaN
549	1.000000	0.883113	7.37042e+06	-49639.1	1005.82	-29758.2	0.000000	0.000000	6.883112	-0.083820	NaN	0.000000	0.001619	0.001647	28.0825	0.071743	0.002041	35.1541	129.208	-165.404	-0.108827	0.881757	-0.398471	-0.399826	-0.083820	35.1541	-0.396682	-119855	6.993434E-7	NaN
549	1.000000	0.893077	7.37042e+06	-49639.1	1005.82	-29758.2	0.000000	0.000000	6.893080	0.034123	NaN	0.000000	0.001625	0.001690	28.082	0.032761	0.002054	15.9479	-149.403	16.2351	0.022729	0.891777	-0.388507	-0.389806	0.034123	15.9479	-0.390112	-96552.2	-3.534127E-7	NaN
549	1.000000	0.903108	7.37042e+06	-49639.1	1005.82	-29758.2	0.000000	0.000000	6.903109	-0.040921	NaN	0.000000	0.001585	0.001663	28.0823	0.209548	0.001972	106.251	-128.749	-164.363	-0.035805	0.901824	-0.378475	-0.379759	-0.040921	106.251	-0.378186	-65140.1	6.281990E-7	NaN
549	1.000000	0.913109	7.37042e+06	-49639.1	1005.82	-29758.2	0.000000	0.000000	6.913110	-0.031094	NaN	0.000000	0.001677	0.001664	28.0821	0.118235	0.001859	63.6045	51.5943	13.078	-0.009698	0.911703	-0.368474	-0.369880	-0.031094	63.6045	-0.368108	-46651.3	6.665226E-7	NaN
549	1.000000	0.923105	7.37042e+06	-49639.1	1005.82	-29758.2	0.000000	0.000000	6.923106	-0.029863	NaN	0.000000	0.001698	0.001692	28.0824	0.037355	0.001958	19.0786	-163.168	-165.618	-0.007129	0.921798	-0.358479	-0.359785	-0.029863	19.0786	-0.357305	-32573.2	9.167852E-7	NaN
549	1.000000	0.933090	7.37042e+06	-49639.1	1005.82	-29758.2	0.000000	0.000000	6.933091	-0.025575	NaN	0.000000	0.001676	0.001688	28.082	0.071129	0.002008	35.4216	169.971	13.6282	-0.013897	0.931711	-0.348493	-0.349873	-0.025575	35.4216	-0.347952	-23837.7	1.072874E-6	NaN
549	1.000000	0.943144	7.37042e+06	-49639.1	1005.82	-29758.2	0.000000	0.000000	6.943145	-0.036997	NaN	0.000000	0.001691	0.001681	28.082	0.057854	0.002016	28.6973	51.1729	-164.921	-0.026784	0.941811	-0.338440	-0.339772	-0.036997	28.6973	-0.337473	-16776.2	2.205320E-6	NaN
549	1.000000	0.953120	7.37042e+06	-49639.1	1005.82	-29758.2	0.000000	0.000000	6.953123	0.018317	NaN	0.000000	0.001674	0.001659	28.0822	0.025698	0.001923	13.3639	-4.663253	16.035	-0.019283	0.951764	-0.328464	-0.329819	0.018317	13.3639	-0.329492	-12823.4	-1.428403E-6	NaN
549	1.000000	0.963131	7.37042e+06	-49639.1	1005.82	-29758.2	0.000000	0.000000	6.963134	0.009677	NaN	0.000000	0.001634	0.001671	28.082	0.058026	0.001886	30.7699	103.766	-165.116	-0.069223	0.961793	-0.318452	-0.319790	0.009677	30.7699	-0.318688	-8898.67	-1.087505E-6	NaN
549	1.000000	0.973139	7.37042e+06	-49639.1	1005.82	-29758.2	0.000000	0.000000	6.973140	-0.051379	NaN	0.000000	0.001618	0.001688	28.0821	0.068819	0.001999	34.4289	-125.167	15.1031	-0.058295	0.971746	-0.308444	-0.309837	-0.051379	34.4289	-0.307325	-6045.5	8.498766E-6	NaN
549	1.000000	0.983110	7.37042e+06	-49639.1	1005.82	-29758.2	0.000000	0.000000	6.983111	-0.026905	NaN	0.000000	0.001657	0.001694	28.0821	0.050379	0.001994	25.2646	-55.7989	-170.215	-0.062399	0.981863	-0.298473	-0.299720	-0.026905	25.2646	-0.297675	-4345.06	6.191990E-6	NaN
549	1.000000	0.993155	7.37042e+06	-49639.1	1005.82	-29758.2	0.000000	0.000000	6.993159	0.034716	NaN	0.000000	0.001603	0.001681	28.0822	0.068224	0.001886	36.1742	-141.795	14.9098	0.029413	0.991750	-0.288428	-0.289833	0.034716	36.1742	-0.289148	-3239.94	-1.071500E-5	NaN
549	1.000000	1.003135	7.37042e+06	-49639.1	1005.82	-29758.2	0.000000	0.000000	7.003136	-0.028200	NaN	0.000000	0.001630	0.001693	28.082	0.083420	0.002006	41.5857	148.067	-160.993	-0.040920	1.001852	-0.278449	-0.279731	-0.028200	41.5857	-0.277940	-2197.21	1.283442E-5	NaN
549	1.000000	1.013146	7.37042e+06	-49639.1	1005.82	-29758.2	0.000000	0.000000	7.013148	-0.022386	NaN	0.000000	0.001617	0.001660	28.0819	0.030038	0.001970	15.2475	-126.317	15.1652	-0.084922	1.011787	-0.268437	-0.269796	-0.022386	15.2475	-0.267336	-1517.07	1.475585E-5	NaN
549	1.000000	1.023155	7.37042e+06	-49639.1	1005.82	-29758.2	0.000000	0.000000	7.023154	-0.087514	NaN	0.000000	0.001613	0.001696	28.0808	0.048340	0.001835	26.3466	-74.0473	-169.751	-0.046942	1.021844	-0.258428	-0.259740	-0.087514	26.3466	-0.255937	-1015.15	8.620800E-5	NaN
549	1.000000	1.033157	7.37042e+06	-49639.1	1005.82	-29758.2	0.000000	0.000000	7.033157	-0.059345	NaN	0.000000	0.001609	0.001685	28.0806	0.017445	0.001976	8.826466	77.6417	10.369	-0.001396	1.031745	-0.248427	-0.249838	-0.059345	8.826466	-0.243384	-649.107	9.142556E-5	NaN
549	1.000000	1.043137	7.37042e+06	-49639.1	1005.82	-29758.2	0.000000	0.000000	7.043139	-0.017485	NaN	0.000000	0.001617	0.001704	28.0808	0.155476	0.001980	78.5076	-128.077	-164.74	-0.064624	1.041864	-0.238446	-0.239720	-0.017485	78.5076	-0.238279	-540.317	3.236032E-5	NaN
549	1.000000	1.053134	7.37042e+06	-49639.1	1005.82	-29758.2	0.000000	0.000000	7.053136	-0.007761	NaN	0.000000	0.001618	0.001688	28.0809	0.119960	0.002024	59.2641	111.191	13.5678	0.027241	1.051826	-0.228449	-0.229757	-0.007761	59.2641	-0.228351	-377.097	2.057962E-5	NaN
549	1.000000	1.063156	7.37042e+06	-49639.1	1005.82	-29758.2	0.000000	0.000000	7.063156	-0.055216	NaN	0.000000	0.001601	0.001693	28.0812	0.026381	0.002029	12.9999	28.882	-165.483	-0.051933	1.061876	-0.218428	-0.219708	-0.055216	12.9999	-0.215242	-233.028	0.000237	NaN
549	1.000000	1.073159	7.37042e+06	-49639.1	1005.82	-29758.2	0.000000	0.000000	7.073160	-0.037387	NaN	0.000000	0.001599	0.001687	28.0807	0.032985	0.002096	15.7384	51.5847	11.7908	-0.060145	1.071821	-0.208424	-0.209762	-0.037387	15.7384	-0.206643	-169.169	0.000221	NaN
549	1.000000	1.083165	7.37042e+06	-49639.1	1005.82	-29758.2	0.000000	0.000000	7.083165	-0.059493	NaN	0.000000	0.001608	0.001662	28.0808	0.059469	0.001973	30.1352	145.229	-165.512	-0.011970	1.081857	-0.198419	-0.199727	-0.059493	30.1352	-0.196938	-117.289	0.000507	NaN
549	1.000000	1.093195	7.37042e+06	-49639.1	1005.82	-29758.2	0.000000	0.000000	7.093195	-0.062246	NaN	0.000000	0.001624	0.001660	28.0807	0.131565	0.002073	63.4574	5.792297	10.8939	-0.056130	1.091828	-0.188389	-0.189755	-0.062246	63.4574	-0.187653	-82.175	0.000757	NaN
549	1.000000	1.103184	7.37042e+06	-49639.1	1005.82	-29758.2	0.000000	0.000000	7.103188	0.051905	NaN	0.000000	0.001626	0.001678	28.0808	0.077011	0.001980	38.9044	-168.243	-164.785	0.054367	1.101848	-0.178400	-0.179735	0.051905	38.9044	-0.179400	-59.6016	-0.000871	NaN
549	1.000000	1.113184	7.37042e+06	-49639.1	1005.82	-29758.2	0.000000	0.000000	7.113187	0.011585	NaN	0.000000	0.001621	0.001686	28.0806	0.100483	0.001934	51.9467	-172.791	12.5509	-0.068208	1.111865	-0.168399	-0.169719	0.011585	51.9467	-0.168566	-38.7863	-0.000299	NaN
549	1.000000	1.123190	7.37042e+06	-49639.1	1005.82	-29758.2	0.000000	0.000000	7.123190	-0.065200	NaN	0.000000	0.001603	0.001665	28.0805	0.053369	0.002016	26.4791	-139.604	-167	-0.076725	1.121876	-0.158393	-0.159707	-0.065200	26.4791	-0.156546	-23.7878	0.002741	NaN
549	1.000000	1.133166	7.37042e+06	-49639.1	1005.82	-29758.2	0.000000	0.000000	7.133168	-0.006083	NaN	0.000000	0.001603	0.001668	28.0808	0.123153	0.001892	65.0997	-94.0377	13.9373	-0.006926	1.131871	-0.148417	-0.149712	-0.006083	65.0997	-0.148347	-16.8962	0.000360	NaN
549	1.000000	1.143206	7.37042e+06	-49639.1	1005.82	-29758.2	0.000000	0.000000	7.143208	-0.005084	NaN	0.000000	0.001598	0.001690	28.0807	0.089539	0.001944	46.0691	72.6454	-165.684	-0.027355	1.141897	-0.138377	-0.139686	-0.005084	46.0691	-0.138295	-10.9862	0.000463	NaN
549	1.000000	1.153193	7.37042e+06	-49639.1	1005.82	-29758.2	0.000000	0.000000	7.153196	0.005204	NaN	0.000000	0.001603	0.001676	28.0821	0.084936	0.002010	42.263	-127.961	12.1466	0.038766	1.151846	-0.128390	-0.129737	0.005204	42.263	-0.128483	-7.119610	-0.000731	NaN
549	1.000000	1.163196	7.37042e+06	-49639.1	1005.82	-29758.2	0.000000	0.000000	7.163195	-0.062521	NaN	0.000000	0.001668	0.001706	28.0819	0.090430	0.001949	46.4029	-84.3206	-168.907	0.051845	1.161903	-0.118388	-0.119680	-0.062521	46.4029	-0.117377	-4.274238	0.014627	NaN
549	1.000000	1.173241	7.37042e+06	-49639.1	1005.82	-29758.2	0.000000	0.000000	7.173242	-0.024278	NaN	0.000000	0.001641	0.001699	28.0822	0.100013	0.002112	47.3582	46.8507	13.7078	-0.027739	1.171847	-0.108342	-0.109736	-0.024278	47.3582	-0.107958	-2.720219	0.008925	NaN
549	1.000000	1.183213	7.37042e+06	-49639.1	1005.82	-29758.2	0.000000	0.000000	7.183214	-0.024376	NaN	0.000000	0.001672	0.001667	28.0819	0.063512	0.001978	32.102	156.508	-168.448	-0.042546	1.181866	-0.098371	-0.099718	-0.024376	32.102	-0.097801	-1.632071	0.014935	NaN
549	1.000000	1.193221	7.37042e+06	-49639.1	1005.82	-29758.2	0.000000	0.000000	7.193221	-0.044140	NaN	0.000000	0.001622	0.001693	28.0822	0.106531	0.002078	51.2594	159.454	15.9858	0.006490	1.191877	-0.088362	-0.089706	-0.044140	51.2594	-0.087717	-0.954700	0.046234	NaN
549	1.000000	1.203198	7.37042e+06	-49639.1	1005.82	-29758.2	0.000000	0.000000	7.203205	0.094983	NaN	0.000000	0.001608	0.001677	28.082	0.056407	0.001957	28.8238	-170.881	-166.886	0.056221	1.201895	-0.078385	-0.079688	0.094983	28.8238	-0.080856	-0.650190	-0.146085	NaN
549	1.000000	1.213230	7.37042e+06	-49639.1	1005.82	-29758.2	0.000000	0.000000	7.213232	-0.013678	NaN	0.000000	0.001625	0.001688	28.0824	0.094897	0.002027	46.8115	119.947	14.5629	0.006461	1.211917	-0.068353	-0.069667	-0.013678	46.8115	-0.068134	-0.303786	0.045026	NaN
549	1.000000	1.223226	7.37042e+06	-49639.1	1005.82	-29758.2	0.000000	0.000000	7.223230	0.041040	NaN	0.000000	0.001671	0.001675	28.0821	0.097701	0.001982	49.2936	37.8036	-165.555	-0.020423	1.221940	-0.058358	-0.059644	0.041040	49.2936	-0.058982	-0.168347	-0.243783	NaN
549	1.000000	1.233248	7.37042e+06	-49639.1	1005.82	-29758.2	0.000000	0.000000	7.233251	0.022750	NaN	0.000000	0.001647	0.001693	28.0823	0.051708	0.001906	27.127	71.8768	14.4134	0.058601	1.231873	-0.048335	-0.049711	0.022750	27.127	-0.048964	-0.084891	-0.267995	NaN
549	1.000000	1.243251	7.37042e+06	-49639.1	1005.82	-29758.2	0.000000	0.000000	7.243254	-0.003306	NaN	0.000000	0.001635	0.001689	28.0821	0.069033	0.001927	35.827	-52.8439	-167.21	-0.000844	1.241956	-0.038332	-0.039627	-0.003306	35.827	-0.038263	-0.040066	0.082511	NaN
549	1.000000	1.253250	7.37042e+06	-49639.1	1005.82	-29758.2	0.000000	0.000000	7.253252	-0.004462	NaN	0.000000	0.001632	0.001676	28.0824	0.056391	0.002077	27.1443	-165.48	10.6265	0.022104	1.251889	-0.028333	-0.029694	-0.004462	27.1443	-0.028210	-0.020544	0.217191	NaN
549	1.000000	1.263269	7.37042e+06	-49639.1	1005.82	-29758.2	0.000000	0.000000	7.263269	-0.065015	NaN	0.000000	0.001601	0.001700	28.0821	0.094214	0.002017	46.7126	45.7964	-166.254	0.001013	1.261947	-0.018314	-0.019636	-0.065015	46.7126	-0.017270	-0.010684	6.085177	NaN
549	1.000000	1.273250	7.37042e+06	-49639.1	1005.82	-29758.2	0.000000	0.000000	7.273250	-0.050859	NaN	0.000000	0.001620	0.001726	28.0825	0.083669	0.002128	39.3267	88.0658	11.3726	-0.033700	1.271879	-0.008334	-0.009704	-0.050859	39.3267	-0.007364	-0.004857	10.4718	NaN
549	1.000000	1.283244	7.37042e+06	-49639.1	1005.82	-29758.2	0.000000	0.000000	7.283391	3.496109	NaN	0.000000	0.001630	0.001677	28.0821	4.322916	0.001928	2241.65	9.621258	-169.17	1.875967	1.281926	0.001661	0.000343	3.496109	2241.65	0.000491	0.000371	9428.28	106357
549	2.000000	1.289317	7.37042e+06	-49639.1	1005.82	-29758.2	0.000000	0.000000	7.289757	10.6423	NaN	0.000000	0.001624	0.001699	28.0812	10.0525	0.001635	6147.58	5.563892	8.149139	9.727305	1.288955	0.007733	0.007372	10.6423	6147.58	0.006435	0.005481	1941.49	75862.7
549	2.000000	1.291750	7.37042e+06	-49639.1	1005.82	-29758.2	0.000000	0.000000	7.292318	13.7538	NaN	0.000000	0.001633	0.001672	28.0807	12.022	0.001569	7660.49	5.290589	-175.125	13.0832	1.291453	0.010167	0.009870	13.7538	7660.49	0.008820	0.007900	1741.04	78744.9
549	2.000000	1.294255	7.37042e+06	-49639.1	1005.82	-29758.2	0.000000	0.000000	7.294947	16.7519	NaN	0.000000	0.001625	0.001721	28.081	15.2504	0.001843	8276.75	7.450216	3.976946	16.4927	1.293871	0.012672	0.012287	16.7519	8276.75	0.011154	0.010493	1596.54	73822.9
549	2.000000	1.296747	7.37042e+06	-49639.1	1005.82	-29758.2	0.000000	0.000000	7.297556	19.6191	NaN	0.000000	0.001627	0.001714	28.0806	17.7615	0.001825	9734.11	5.709191	-175.446	19.0485	1.296477	0.015164	0.014894	19.6191	9734.11	0.013652	0.013530	1450.07	76458.2
549	2.000000	1.299233	7.37042e+06	-49639.1	1005.82	-29758.2	0.000000	0.000000	7.300259	24.9	NaN	0.000000	0.001614	0.001701	28.0809	19.3726	0.001667	11618.9	6.770132	1.612482	23.4976	1.298886	0.017650	0.017303	24.9	11618.9	0.016042	0.016701	1490.96	82142.9
549	2.000000	1.301714	7.37042e+06	-49639.1	1005.82	-29758.2	0.000000	0.000000	7.302872	28.117	NaN	0.000000	0.001629	0.001688	28.0807	21.5335	0.001617	13320.4	5.876085	179.705	26.9651	1.301468	0.020131	0.019884	28.117	13320.4	0.018547	0.020311	1384.33	85393.5
549	2.000000	1.304233	7.37042e+06	-49639.1	1005.82	-29758.2	0.000000	0.000000	7.305571	32.4808	NaN	0.000000	0.001579	0.001689	28.0808	24.8314	0.001833	13548.8	3.784307	3.360857	31.932	1.303927	0.022650	0.022344	32.4808	13548.8	0.020852	0.023899	1359.1	80073.1
549	2.000000	1.306678	7.37042e+06	-49639.1	1005.82	-29758.2	0.000000	0.000000	7.308292	39.1949	NaN	0.000000	0.001656	0.001670	28.0806	27.5403	0.001777	15495	6.068120	178.801	37.1778	1.306419	0.025095	0.024835	39.1949	15495	0.023198	0.027819	1408.94	84878.4
549	2.000000	1.309193	7.37042e+06	-49639.1	1005.82	-29758.2	0.000000	0.000000	7.310947	42.5997	NaN	0.000000	0.001613	0.001663	28.0809	29.5954	0.001813	16325.1	5.790805	-0.836054	40.5847	1.308923	0.027610	0.027339	42.5997	16325.1	0.025653	0.032214	1322.39	83100.9
549	2.000000	1.311699	7.37042e+06	-49639.1	1005.82	-29758.2	0.000000	0.000000	7.313779	50.5209	NaN	0.000000	0.001621	0.001695	28.0807	31.9949	0.001815	17624.6	6.471090	179.107	53.6722	1.311370	0.030115	0.029786	50.5209	17624.6	0.027966	0.036633	1379.12	84131.6
549	2.000000	1.314198	7.37042e+06	-49639.1	1005.82	-29758.2	0.000000	0.000000	7.316632	59.1486	NaN	0.000000	0.001641	0.001712	28.0809	34.0953	0.001745	19538.7	0.617099	2.509180	57.978	1.313823	0.032614	0.032240	59.1486	19538.7	0.030344	0.041460	1426.65	87671.2
549	2.000000	1.316710	7.37042e+06	-49639.1	1005.82	-29758.2	0.000000	0.000000	7.319430	66.0862	NaN	0.000000	0.001594	0.001692	28.0805	37.6702	0.001745	21588	6.257735	176.371	66.0973	1.316376	0.035126	0.034793	66.0862	21588	0.032831	0.046815	1411.64	91157.8
549	2.000000	1.319197	7.37042e+06	-49639.1	1005.82	-29758.2	0.000000	0.000000	7.322312	75.6917	NaN	0.000000	0.001627	0.001687	28.0807	38.83	0.001789	21705.4	4.959506	-1.556610	73.4654	1.318800	0.037614	0.037217	75.6917	21705.4	0.034999	0.051743	1462.84	87179.9
549	2.000000	1.321679	7.37042e+06	-49639.1	1005.82	-29758.2	0.000000	0.000000	7.324998	80.6612	NaN	0.000000	0.001629	0.001701	28.0809	41.8794	0.001872	22370.9	5.245898	177.424	79.2442	1.321361	0.040096	0.039778	80.6612	22370.9	0.037391	0.057461	1403.76	85265
549	2.000000	1.324148	7.37043e+06	-49639.1	1005.82	-29758.2	0.000000	0.000000	7.327946	92.3179	NaN	0.000000	0.001594	0.001706	28.082	43.9572	0.001779	24702.6	6.422385	-4.369158	89.512	1.323715	0.042564	0.042131	92.3179	24702.6	0.039762	0.063414	1455.81	89624.2
549	2.000000	1.326670	7.37043e+06	-49639.1	1005.82	-29758.2	0.000000	0.000000	7.330931	103.559	NaN	0.000000	0.001629	0.001706	28.0819	46.2236	0.001778	25997.7	2.108827	178.776	102.18	1.326389	0.045087	0.044806	103.559	25997.7	0.042100	0.069567	1488.62	90054.6
549	2.000000	1.329118	7.37043e+06	-49639.1	1005.82	-29758.2	0.000000	0.000000	7.334052	119.941	NaN	0.000000	0.001649	0.001704	28.082	48.3984	0.001823	26553.6	4.237360	-3.437983	115.585	1.328745	0.047535	0.047162	119.941	26553.6	0.044147	0.075184	1595.3	88477.8
549	2.000000	1.331617	7.37043e+06	-49639.1	1005.82	-29758.2	0.000000	0.000000	7.336711	123.813	NaN	0.000000	0.001632	0.001653	28.0819	50.3625	0.001749	28792.5	4.747842	174.845	119.57	1.331409	0.050034	0.049826	123.813	28792.5	0.046809	0.082805	1495.24	91416.7
549	2.000000	1.334264	7.37043e+06	-49639.1	1005.82	-29758.2	0.000000	0.000000	7.339833	135.375	NaN	0.000000	0.001603	0.001682	28.082	52.6109	0.001755	29976.3	9.543306	-8.523731	141.083	1.333660	0.052681	0.052077	135.375	29976.3	0.049294	0.090242	1500.13	91169
549	2.000000	1.336738	7.37043e+06	-49639.1	1005.82	-29758.2	0.000000	0.000000	7.342634	143.319	NaN	0.000000	0.001650	0.001638	28.082	55.8055	0.001796	31066.8	4.688759	175.133	148.183	1.336408	0.055155	0.054825	143.319	31066.8	0.051695	0.097724	1466.57	90796.5
549	2.000000	1.339154	7.37043e+06	-49639.1	1005.82	-29758.2	0.000000	0.000000	7.345831	162.318	NaN	0.000000	0.001683	0.001647	28.0821	57.5205	0.001777	32374.8	4.143250	-4.494167	160.273	1.338832	0.057571	0.057249	162.318	32374.8	0.053811	0.104555	1552.46	91476
549	2.000000	1.341636	7.37043e+06	-49639.1	1005.82	-29758.2	0.000000	0.000000	7.348683	171.322	NaN	0.000000	0.001702	0.001725	28.082	59.8322	0.001872	31954.3	4.082049	175.574	170.62	1.341348	0.060053	0.059765	171.322	31954.3	0.056031	0.111964	1530.16	87249.9
549	2.000000	1.344120	7.37043e+06	-49639.1	1005.82	-29758.2	0.000000	0.000000	7.351864	188.29	NaN	0.000000	0.001619	0.001709	28.082	62.2182	0.001826	34076.4	4.989249	-5.302734	186.491	1.343699	0.062536	0.062116	188.29	34076.4	0.058392	0.120106	1567.7	89834.8
549	2.000000	1.346609	7.37043e+06	-49639.1	1005.82	-29758.2	0.000000	0.000000	7.354726	197.335	NaN	0.000000	0.001641	0.001740	28.0822	65.6866	0.001791	36666	5.319387	172.949	196.64	1.346450	0.065026	0.064867	197.335	36666	0.060990	0.129381	1525.23	93132.6
549	2.000000	1.349202	7.37043e+06	-49639.1	1005.82	-29758.2	0.000000	0.000000	7.358035	214.758	NaN	0.000000	0.001665	0.001671	28.0819	66.8686	0.001801	37129.7	6.247381	-7.063239	213.653	1.348787	0.067618	0.067204	214.758	37129.7	0.063280	0.137833	1558.1	91372.9
549	2.000000	1.351656	7.37043e+06	-49639.1	1005.82	-29758.2	0.000000	0.000000	7.360980	226.705	NaN	0.000000	0.001627	0.001739	28.0819	68.8695	0.001822	37803.2	4.141371	174.346	226.281	1.351283	0.070072	0.069699	226.705	37803.2	0.065575	0.146553	1546.91	90220.4
549	2.000000	1.354121	7.37043e+06	-49639.1	1005.82	-29758.2	0.000000	0.000000	7.364135	243.475	NaN	0.000000	0.001583	0.001726	28.0819	71.7213	0.001826	39287.3	4.242674	-6.638079	239.733	1.353794	0.072538	0.072210	243.475	39287.3	0.067890	0.155610	1564.64	90992.6
549	2.000000	1.356604	7.37043e+06	-49639.1	1005.82	-29758.2	0.000000	0.000000	7.367214	257.98	NaN	0.000000	0.001611	0.001719	28.0811	74.6885	0.001857	40222.7	4.232996	173.976	258.39	1.356255	0.075020	0.074671	257.98	40222.7	0.070210	0.164944	1564.05	90485
549	2.000000	1.359134	7.37043e+06	-49639.1	1005.82	-29758.2	0.000000	0.000000	7.370445	275.009	NaN	0.000000	0.001618	0.001675	28.0807	76.2502	0.001856	41073.4	6.096086	-8.242643	271.042	1.358825	0.077551	0.077242	275.009	41073.4	0.072529	0.174529	1575.72	89825.6
549	2.000000	1.361629	7.37043e+06	-49639.1	1005.82	-29758.2	0.000000	0.000000	7.373359	285.203	NaN	0.000000	0.001594	0.001692	28.0807	77.4912	0.001807	42892.6	5.960015	170.748	284.155	1.361419	0.080046	0.079836	285.203	42892.6	0.075059	0.185272	1539.37	91043.7
549	2.000000	1.364068	7.37043e+06	-49639.1	1005.82	-29758.2	0.000000	0.000000	7.376416	300.235	NaN	0.000000	0.001581	0.001722	28.0805	77.4734	0.001750	44283	-2.706025	-0.325779	295.782	1.363795	0.082485	0.082212	300.235	44283	0.077400	0.195485	1535.85	91506.8
549	2.000000	1.366589	7.37043e+06	-49639.1	1005.82	-29758.2	0.000000	0.000000	7.380009	326.323	NaN	0.000000	0.001666	0.001706	28.0806	82.2945	0.001865	44125.9	5.700947	170.913	324.846	1.366323	0.085005	0.084740	326.323	44125.9	0.079459	0.204680	1594.31	89110.6
549	2.000000	1.369204	7.37043e+06	-49639.1	1005.82	-29758.2	0.000000	0.000000	7.383033	336.241	NaN	0.000000	0.001646	0.001683	28.0804	81.7414	0.001643	49766.3	3.330031	-6.123813	341.189	1.368748	0.087621	0.087165	336.241	49766.3	0.082554	0.218870	1536.26	97188.6
549	2.000000	1.371638	7.37043e+06	-49639.1	1005.82	-29758.2	0.000000	0.000000	7.386263	355.621	NaN	0.000000	0.001633	0.001695	28.0805	83.7027	0.001685	49683.4	1.838342	174.739	356.617	1.371357	0.090054	0.089774	355.621	49683.4	0.084686	0.228906	1553.57	94875.9
549	2.000000	1.374057	7.37043e+06	-49639.1	1005.82	-29758.2	0.000000	0.000000	7.389550	376.703	NaN	0.000000	0.001633	0.001714	28.0806	88.0713	0.001738	50673.1	6.403674	-10.0751	372.002	1.373783	0.092474	0.092199	376.703	50673.1	0.086899	0.239542	1572.6	94593.2
549	2.000000	1.376618	7.37043e+06	-49639.1	1005.82	-29758.2	0.000000	0.000000	7.392746	392.17	NaN	0.000000	0.001650	0.001642	28.0805	91.7854	0.001824	50331.9	2.326534	174.055	388.51	1.376355	0.095034	0.094771	392.17	50331.9	0.089191	0.250797	1563.7	91823.9
549	2.000000	1.379079	7.37043e+06	-49639.1	1005.82	-29758.2	0.000000	0.000000	7.396165	415.479	NaN	0.000000	0.001710	0.001668	28.0803	92.4753	0.001633	56621.2	2.739668	-7.250340	410.663	1.378816	0.097495	0.097233	415.479	56621.2	0.091992	0.264880	1568.56	100514
549	2.000000	1.381538	7.37043e+06	-49639.1	1005.82	-29758.2	0.000000	0.000000	7.399221	429.991	NaN	0.000000	0.001725	0.001606	28.0804	95.2839	0.001730	55076.3	3.328313	172.174	426.69	1.381322	0.099954	0.099739	429.991	55076.3	0.094099	0.275711	1559.57	95832.1
549	2.000000	1.384157	7.37043e+06	-49639.1	1005.82	-29758.2	0.000000	0.000000	7.402527	446.698	NaN	0.000000	0.001703	0.001665	28.0808	98.9222	0.001844	53655	4.580324	-8.687432	447.96	1.383769	0.102574	0.102186	446.698	53655	0.096330	0.287397	1554.29	91441.3
549	2.000000	1.386528	7.37043e+06	-49639.1	1005.82	-29758.2	0.000000	0.000000	7.405981	473.052	NaN	0.000000	0.001677	0.001646	28.0805	100.188	0.001774	56460.2	2.869035	172.745	468.067	1.386175	0.104944	0.104592	473.052	56460.2	0.098660	0.299850	1577.63	94202.7