File: remote_trans/data/nanoindenter/0828-1/data/Data_2025-08-06,11h17m57s/2025-07-22_16-23-58_1_182.txt
2025-07-22, 16:23:58, 1
Index	Phase	Displacement	Time	Pos X	Pos Y	Pos Z	Rot A	Rot B	Piezo Z	Force A	Force B	Gripper	Voltage A	Voltage B	Temperature	Amplitude force	Amplitude pos	Stiffness	Phase shift	Phase excitation	Force A raw	Displacement raw	HMax	HMax raw	Real Force	Real Stiffness	Contact Depth	Area	Hardness	Reduced Mod.
[#]	[#]	[um]	[s]	[um]	[um]	[um]	[m°]	[m°]	[um]	[uN]	[uN]	[V]	[V]	[V]	[°C]	[uN]	[um]	[N/m]	[°]	[°]	[uN]	[um]	[um]	[um]	[uN]	[N/m]	[um]	[um^2]	[MPa]	[MPa]
182	1.000000	0.002452	7.36682e+06	-47739.1	955.819	-29765.3	0.000000	0.000000	6.002814	0.054428	NaN	0.000000	0.001566	0.001721	28.0781	0.089801	0.000913	98.409	-91.4308	-169.012	0.086521	0.001169	-1.076571	-1.077854	0.054428	98.409	-1.076986	-2.460581E+14	-2.212015E-16	NaN
182	1.000000	0.010393	7.36682e+06	-47739.1	955.817	-29765.3	0.000000	0.000000	6.010756	0.094108	NaN	0.000000	0.001625	0.001696	28.0778	0.084537	0.001028	82.2328	60.5199	-159.525	0.048062	0.009052	-1.068630	-1.069971	0.094108	82.2328	-1.069488	-1.951268E+14	-4.822940E-16	NaN
182	1.000000	0.018409	7.36682e+06	-47739.1	955.819	-29765.3	0.000000	0.000000	6.018770	0.037540	NaN	0.000000	0.001586	0.001738	28.078	0.033903	0.001737	19.514	145.056	-164.137	0.055581	0.017039	-1.060614	-1.061984	0.037540	19.514	-1.062057	-1.550483E+14	-2.421206E-16	NaN
182	1.000000	0.026443	7.36682e+06	-47739.1	955.817	-29765.3	0.000000	0.000000	6.026810	0.185242	NaN	0.000000	0.001614	0.001740	28.078	0.060762	0.001922	31.6133	133.685	-165.955	0.070914	0.025111	-1.052580	-1.053913	0.185242	31.6133	-1.056975	-1.324853E+14	-1.398210E-15	NaN
182	1.000000	0.034365	7.36682e+06	-47739.1	955.819	-29765.3	0.000000	0.000000	6.034725	0.008066	NaN	0.000000	0.001618	0.001700	28.0781	0.029002	0.002001	14.4915	-64.7805	-164.126	-0.015037	0.033103	-1.044658	-1.045921	0.008066	14.4915	-1.045076	-9.166659E+13	-8.799333E-17	NaN
182	1.000000	0.042415	7.36682e+06	-47739.1	955.818	-29765.3	0.000000	0.000000	6.042772	-0.047873	NaN	0.000000	0.001567	0.001703	28.078	0.103624	0.001947	53.2225	-174.838	-168.295	-0.053090	0.041101	-1.036608	-1.037922	-0.047873	53.2225	-1.035934	-6.906950E+13	6.931095E-16	NaN
182	1.000000	0.050411	7.36682e+06	-47739.1	955.819	-29765.3	0.000000	0.000000	6.050773	0.052695	NaN	0.000000	0.001634	0.001675	28.0784	0.044298	0.001989	22.2719	171.679	-163.187	0.025681	0.049114	-1.028612	-1.029909	0.052695	22.2719	-1.030387	-5.816785E+13	-9.059079E-16	NaN
182	1.000000	0.058391	7.36682e+06	-47739.1	955.817	-29765.3	0.000000	0.000000	6.058751	0.021907	NaN	0.000000	0.001607	0.001695	28.0795	0.045991	0.001942	23.6818	133.32	-165.881	0.007728	0.057084	-1.020633	-1.021939	0.021907	23.6818	-1.021326	-4.393377E+13	-4.986346E-16	NaN
182	1.000000	0.066402	7.36682e+06	-47739.1	955.817	-29765.3	0.000000	0.000000	6.066769	0.197922	NaN	0.000000	0.001615	0.001663	28.0791	0.041703	0.002014	20.7048	95.8993	-167.872	0.144700	0.065083	-1.012622	-1.013941	0.197922	20.7048	-1.019791	-4.189304E+13	-4.724453E-15	NaN
182	1.000000	0.074404	7.36682e+06	-47739.1	955.818	-29765.3	0.000000	0.000000	6.074768	0.117332	NaN	0.000000	0.001602	0.001696	28.0799	0.073815	0.002083	35.4355	-34.521	-164.589	0.101082	0.073077	-1.004620	-1.005947	0.117332	35.4355	-1.007103	-2.827438E+13	-4.149769E-15	NaN
182	1.000000	0.082425	7.36682e+06	-47739.1	955.818	-29765.3	0.000000	0.000000	6.082788	0.072886	NaN	0.000000	0.001606	0.001685	28.0792	0.091584	0.001992	45.9661	14.6203	-163.463	0.114739	0.081048	-0.996598	-0.997976	0.072886	45.9661	-0.997787	-2.118258E+13	-3.440836E-15	NaN
182	1.000000	0.090412	7.36682e+06	-47739.1	955.819	-29765.3	0.000000	0.000000	6.090773	0.025154	NaN	0.000000	0.001600	0.001649	28.079	0.048149	0.002144	22.4626	62.1977	-166.017	0.020977	0.089089	-0.988611	-0.989934	0.025154	22.4626	-0.989451	-1.635751E+13	-1.537783E-15	NaN
182	1.000000	0.098418	7.36682e+06	-47739.1	955.817	-29765.3	0.000000	0.000000	6.098774	-0.081578	NaN	0.000000	0.001592	0.001706	28.0795	0.059516	0.001974	30.1555	3.585805	-165.487	-0.017401	0.097146	-0.980605	-0.981877	-0.081578	30.1555	-0.978576	-1.167429E+13	6.987851E-15	NaN
182	1.000000	0.106431	7.36682e+06	-47739.1	955.819	-29765.3	0.000000	0.000000	6.106794	0.090669	NaN	0.000000	0.001587	0.001691	28.079	0.078910	0.002046	38.57	89.9665	-165.437	0.070276	0.105045	-0.972592	-0.973979	0.090669	38.57	-0.974355	-1.024133E+13	-8.853295E-15	NaN
182	1.000000	0.114423	7.36682e+06	-47739.1	955.817	-29765.3	0.000000	0.000000	6.114786	0.087886	NaN	0.000000	0.001551	0.001672	28.079	0.087276	0.002017	43.2765	-95.6844	-166.427	0.025398	0.113136	-0.964601	-0.965888	0.087886	43.2765	-0.966124	-7.932692E+12	-1.107903E-14	NaN
182	1.000000	0.122402	7.36682e+06	-47739.1	955.818	-29765.3	0.000000	0.000000	6.122765	0.071672	NaN	0.000000	0.001562	0.001683	28.0789	0.071253	0.002133	33.4061	57.5115	-165.596	0.072538	0.121110	-0.956621	-0.957913	0.071672	33.4061	-0.958230	-6.208800E+12	-1.154363E-14	NaN
182	1.000000	0.130395	7.36682e+06	-47739.1	955.818	-29765.3	0.000000	0.000000	6.130756	0.062259	NaN	0.000000	0.001596	0.001731	28.079	0.072009	0.002093	34.4112	56.9916	-165.047	0.076360	0.129121	-0.948629	-0.949903	0.062259	34.4112	-0.949986	-4.806582E+12	-1.295284E-14	NaN
182	1.000000	0.138436	7.36682e+06	-47739.1	955.818	-29765.3	0.000000	0.000000	6.138799	0.097530	NaN	0.000000	0.001585	0.001709	28.0795	0.036948	0.002064	17.9028	-27.7185	-163.16	0.128898	0.137157	-0.940588	-0.941867	0.097530	17.9028	-0.944674	-4.075560E+12	-2.393041E-14	NaN
182	1.000000	0.146442	7.36682e+06	-47739.1	955.818	-29765.3	0.000000	0.000000	6.146804	0.063057	NaN	0.000000	0.001589	0.001694	28.0789	0.024951	0.002019	12.3568	-59.7152	-165.669	0.020819	0.145153	-0.932581	-0.933870	0.063057	12.3568	-0.936408	-3.152657E+12	-2.000138E-14	NaN
182	1.000000	0.154435	7.36682e+06	-47739.1	955.818	-29765.3	0.000000	0.000000	6.154796	0.045826	NaN	0.000000	0.001566	0.001719	28.0788	0.068161	0.001965	34.6959	147.1	-162.445	-0.023124	0.153127	-0.924589	-0.925897	0.045826	34.6959	-0.925579	-2.251789E+12	-2.035096E-14	NaN
182	1.000000	0.162444	7.36682e+06	-47739.1	955.818	-29765.3	0.000000	0.000000	6.162807	0.089707	NaN	0.000000	0.001607	0.001727	28.0789	0.016814	0.002095	8.025893	34.2114	-165.266	0.039631	0.161113	-0.916579	-0.917910	0.089707	8.025893	-0.924962	-2.209006E+12	-4.060950E-14	NaN
182	1.000000	0.170446	7.36682e+06	-47739.1	955.818	-29765.3	0.000000	0.000000	6.170807	0.045766	NaN	0.000000	0.001603	0.001688	28.0789	0.069676	0.002070	33.6604	157.442	-165.127	0.046745	0.169156	-0.908577	-0.909867	0.045766	33.6604	-0.909597	-1.370005E+12	-3.340576E-14	NaN
182	1.000000	0.178432	7.36682e+06	-47739.1	955.817	-29765.3	0.000000	0.000000	6.178792	0.007715	NaN	0.000000	0.001587	0.001688	28.0791	0.068062	0.002044	33.3054	172.107	-164.137	0.092573	0.177147	-0.900591	-0.901877	0.007715	33.3054	-0.900765	-1.040884E+12	-7.411936E-15	NaN
182	1.000000	0.186419	7.36682e+06	-47739.1	955.818	-29765.3	0.000000	0.000000	6.186782	0.101715	NaN	0.000000	0.001615	0.001691	28.0783	0.091120	0.002129	42.7902	77.0724	-165.779	0.082868	0.185143	-0.892605	-0.893880	0.101715	42.7902	-0.894388	-8.535364E+11	-1.191689E-13	NaN
182	1.000000	0.194440	7.36682e+06	-47739.1	955.818	-29765.3	0.000000	0.000000	6.194800	0.029317	NaN	0.000000	0.001613	0.001662	28.0778	0.106344	0.001889	56.297	59.7714	-163.908	-0.043541	0.193146	-0.884584	-0.885878	0.029317	56.297	-0.884974	-6.367542E+11	-4.604113E-14	NaN
182	1.000000	0.202442	7.36682e+06	-47739.1	955.819	-29765.3	0.000000	0.000000	6.202805	0.076037	NaN	0.000000	0.001621	0.001698	28.0778	0.070967	0.001940	36.5818	-98.7444	-164.406	0.093369	0.201137	-0.876581	-0.877886	0.076037	36.5818	-0.878140	-5.147025E+11	-1.477304E-13	NaN
182	1.000000	0.210443	7.36682e+06	-47739.1	955.817	-29765.3	0.000000	0.000000	6.210804	0.033354	NaN	0.000000	0.001604	0.001769	28.0779	0.100285	0.002093	47.9243	3.040658	-166.951	-0.010301	0.209153	-0.868580	-0.869870	0.033354	47.9243	-0.869102	-3.884161E+11	-8.587309E-14	NaN
182	1.000000	0.218444	7.36682e+06	-47739.1	955.819	-29765.3	0.000000	0.000000	6.218805	0.029185	NaN	0.000000	0.001607	0.001724	28.0776	0.075275	0.001871	40.236	-99.6308	-167.684	0.068253	0.217167	-0.860579	-0.861857	0.029185	40.236	-0.861123	-3.029152E+11	-9.634729E-14	NaN
182	1.000000	0.226481	7.36682e+06	-47739.1	955.817	-29765.3	0.000000	0.000000	6.226840	0.002044	NaN	0.000000	0.001580	0.001709	28.0775	0.102595	0.001937	52.9642	-150.293	-166.241	-0.003715	0.225145	-0.852542	-0.853878	0.002044	52.9642	-0.852571	-2.320360E+11	-8.807122E-15	NaN
182	1.000000	0.234446	7.36682e+06	-47739.1	955.819	-29765.3	0.000000	0.000000	6.234805	0.003925	NaN	0.000000	0.001566	0.001712	28.0779	0.087089	0.002111	41.2464	123.778	-165.811	-0.054637	0.233136	-0.844577	-0.845887	0.003925	41.2464	-0.844649	-1.812453E+11	-2.165482E-14	NaN
182	1.000000	0.242459	7.36682e+06	-47739.1	955.819	-29765.3	0.000000	0.000000	6.242821	0.046010	NaN	0.000000	0.001572	0.001670	28.0779	0.083076	0.002100	39.5515	-160.211	-168.504	0.006055	0.241159	-0.836564	-0.837864	0.046010	39.5515	-0.837437	-1.447310E+11	-3.178974E-13	NaN
182	1.000000	0.250460	7.36682e+06	-47739.1	955.818	-29765.3	0.000000	0.000000	6.250823	0.103973	NaN	0.000000	0.001570	0.001674	28.078	0.064257	0.001973	32.5616	29.3866	-167.615	0.130913	0.249187	-0.828564	-0.829837	0.103973	32.5616	-0.830959	-1.182441E+11	-8.793065E-13	NaN
182	1.000000	0.258480	7.36682e+06	-47739.1	955.818	-29765.3	0.000000	0.000000	6.258842	0.051910	NaN	0.000000	0.001617	0.001688	28.0779	0.107949	0.001974	54.6872	79.8765	-163.841	0.041668	0.257154	-0.820543	-0.821869	0.051910	54.6872	-0.821255	-8.734373E+10	-5.943209E-13	NaN
182	1.000000	0.266505	7.36682e+06	-47739.1	955.818	-29765.3	0.000000	0.000000	6.266865	0.025747	NaN	0.000000	0.001613	0.001687	28.078	0.102836	0.002087	49.2677	-137.455	-166.054	-0.008742	0.265133	-0.812519	-0.813890	0.025747	49.2677	-0.812911	-6.730659E+10	-3.825292E-13	NaN
182	1.000000	0.274518	7.36682e+06	-47739.1	955.817	-29765.3	0.000000	0.000000	6.274878	0.010561	NaN	0.000000	0.001591	0.001700	28.0781	0.027157	0.002085	13.0249	-81.2274	-163.708	0.012331	0.273225	-0.804505	-0.805798	0.010561	13.0249	-0.805114	-5.275531E+10	-2.001846E-13	NaN
182	1.000000	0.282483	7.36682e+06	-47739.1	955.817	-29765.3	0.000000	0.000000	6.282846	0.089473	NaN	0.000000	0.001597	0.001676	28.0779	0.071502	0.001945	36.7621	-25.6932	-163.198	0.181165	0.281199	-0.796540	-0.797825	0.089473	36.7621	-0.798366	-4.272450E+10	-2.094194E-12	NaN
182	1.000000	0.290512	7.36682e+06	-47739.1	955.818	-29765.3	0.000000	0.000000	6.290871	-0.012819	NaN	0.000000	0.001629	0.001695	28.0776	0.040703	0.002003	20.32	-15.5749	-164.207	0.064503	0.289251	-0.788511	-0.789773	-0.012819	20.32	-0.788038	-3.093398E+10	4.144058E-13	NaN
182	1.000000	0.298488	7.36682e+06	-47739.1	955.819	-29765.3	0.000000	0.000000	6.298848	0.011971	NaN	0.000000	0.001611	0.001692	28.0778	0.040936	0.002018	20.2821	-96.9068	-164.598	0.001118	0.297175	-0.780535	-0.781849	0.011971	20.2821	-0.780978	-2.480383E+10	-4.826181E-13	NaN
182	1.000000	0.306504	7.36682e+06	-47739.1	955.818	-29765.3	0.000000	0.000000	6.306867	0.096868	NaN	0.000000	0.001609	0.001709	28.0781	0.104064	0.002096	49.6539	-133.112	-161.764	0.092923	0.305182	-0.772519	-0.773841	0.096868	49.6539	-0.773982	-1.992721E+10	-4.861070E-12	NaN
182	1.000000	0.314513	7.36682e+06	-47739.1	955.818	-29765.3	0.000000	0.000000	6.314876	0.102547	NaN	0.000000	0.001665	0.001712	28.0776	0.046368	0.001982	23.3984	10.4149	-165.587	0.076828	0.313196	-0.764511	-0.765827	0.102547	23.3984	-0.767798	-1.641949E+10	-6.245432E-12	NaN
182	1.000000	0.322505	7.36682e+06	-47739.1	955.819	-29765.3	0.000000	0.000000	6.322868	0.073009	NaN	0.000000	0.001639	0.001701	28.0778	0.123939	0.002116	58.5587	-172.957	-166.716	0.000862	0.321199	-0.756518	-0.757824	0.073009	58.5587	-0.757453	-1.187556E+10	-6.147826E-12	NaN
182	1.000000	0.330480	7.36682e+06	-47739.1	955.818	-29765.3	0.000000	0.000000	6.330840	0.017987	NaN	0.000000	0.001685	0.001678	28.0791	0.027316	0.001968	13.8811	71.1665	-163.245	0.026544	0.329181	-0.748544	-0.749842	0.017987	13.8811	-0.749515	-9.260261E+9	-1.942400E-12	NaN
182	1.000000	0.338519	7.36682e+06	-47739.1	955.818	-29765.3	0.000000	0.000000	6.338882	0.081459	NaN	0.000000	0.001626	0.001668	28.0789	0.074379	0.002066	36.0064	162.769	-163.969	0.084649	0.337208	-0.740504	-0.741815	0.081459	36.0064	-0.742201	-7.362662E+9	-1.106385E-11	NaN
182	1.000000	0.346515	7.36682e+06	-47739.1	955.818	-29765.3	0.000000	0.000000	6.346875	0.030764	NaN	0.000000	0.001553	0.001670	28.0796	0.158775	0.001963	80.8893	-122.128	-166.615	0.079079	0.345219	-0.732509	-0.733804	0.030764	80.8893	-0.732794	-5.481279E+9	-5.612506E-12	NaN
182	1.000000	0.354507	7.36682e+06	-47739.1	955.818	-29765.3	0.000000	0.000000	6.354868	0.043495	NaN	0.000000	0.001549	0.001688	28.079	0.106112	0.002052	51.721	-73.8151	-162.995	0.046819	0.353204	-0.724517	-0.725820	0.043495	51.721	-0.725148	-4.311857E+9	-1.008722E-11	NaN
182	1.000000	0.362517	7.36682e+06	-47739.1	955.817	-29765.3	0.000000	0.000000	6.362876	0.005083	NaN	0.000000	0.001576	0.001658	28.0792	0.041591	0.002080	19.9939	-142.232	-168.678	0.025719	0.361220	-0.716507	-0.717803	0.005083	19.9939	-0.716698	-3.306966E+9	-1.536997E-12	NaN
182	1.000000	0.370546	7.36682e+06	-47739.1	955.817	-29765.3	0.000000	0.000000	6.370906	0.011048	NaN	0.000000	0.001550	0.001665	28.079	0.073292	0.002057	35.6387	157.167	-167.739	0.054196	0.369234	-0.708477	-0.709790	0.011048	35.6387	-0.708710	-2.573002E+9	-4.293922E-12	NaN
182	1.000000	0.378537	7.36682e+06	-47739.1	955.819	-29765.3	0.000000	0.000000	6.378898	0.049078	NaN	0.000000	0.001516	0.001671	28.0789	0.105667	0.002008	52.627	-34.1475	-165.798	0.109213	0.377184	-0.700486	-0.701840	0.049078	52.627	-0.701186	-2.031067E+9	-2.416381E-11	NaN
182	1.000000	0.386545	7.36682e+06	-47739.1	955.817	-29765.3	0.000000	0.000000	6.386906	0.040551	NaN	0.000000	0.001556	0.001685	28.0792	0.128692	0.001904	67.5997	58.2643	-164.437	0.054480	0.385202	-0.692478	-0.693821	0.040551	67.5997	-0.692928	-1.566488E+9	-2.588678E-11	NaN
182	1.000000	0.394533	7.36682e+06	-47739.1	955.818	-29765.3	0.000000	0.000000	6.394894	0.037139	NaN	0.000000	0.001556	0.001654	28.0788	0.050026	0.001889	26.4791	106.508	-167.978	-0.049962	0.393213	-0.684491	-0.685810	0.037139	26.4791	-0.685542	-1.241626E+9	-2.991145E-11	NaN
182	1.000000	0.402514	7.36682e+06	-47739.1	955.818	-29765.3	0.000000	0.000000	6.402877	0.083983	NaN	0.000000	0.001604	0.001662	28.0789	0.147275	0.002079	70.8381	84.2922	-166.023	0.041217	0.401188	-0.676509	-0.677836	0.083983	70.8381	-0.677398	-9.607723E+8	-8.741249E-11	NaN
182	1.000000	0.410555	7.36682e+06	-47739.1	955.817	-29765.3	0.000000	0.000000	6.410914	-0.021553	NaN	0.000000	0.001569	0.001649	28.0789	0.046839	0.001852	25.2915	56.114	-165.726	-0.030249	0.409267	-0.668468	-0.669756	-0.021553	25.2915	-0.667829	-7.106780E+8	3.032792E-11	NaN
182	1.000000	0.418555	7.36682e+06	-47739.1	955.818	-29765.3	0.000000	0.000000	6.418917	0.083397	NaN	0.000000	0.001555	0.001652	28.0789	0.050312	0.002175	23.1341	177.977	-169.82	0.088272	0.417236	-0.660469	-0.661787	0.083397	23.1341	-0.663172	-6.136457E+8	-1.359035E-10	NaN
182	1.000000	0.426515	7.36682e+06	-47739.1	955.818	-29765.3	0.000000	0.000000	6.426876	0.026597	NaN	0.000000	0.001558	0.001674	28.079	0.076165	0.002050	37.1477	-141.937	-166.911	0.083683	0.425278	-0.652508	-0.653745	0.026597	37.1477	-0.653045	-4.458366E+8	-5.965619E-11	NaN
182	1.000000	0.434534	7.36682e+06	-47739.1	955.819	-29765.3	0.000000	0.000000	6.434896	0.060278	NaN	0.000000	0.001554	0.001670	28.0788	0.061199	0.001985	30.8235	-109.863	-163.95	0.046512	0.433248	-0.644490	-0.645775	0.060278	30.8235	-0.645956	-3.564456E+8	-1.691099E-10	NaN
182	1.000000	0.442552	7.36682e+06	-47739.1	955.818	-29765.3	0.000000	0.000000	6.442913	0.034374	NaN	0.000000	0.001558	0.001662	28.0794	0.013974	0.001886	7.408278	56.4626	-164.195	0.064282	0.441267	-0.636471	-0.637756	0.034374	7.408278	-0.639951	-2.948621E+8	-1.165757E-10	NaN
182	1.000000	0.450520	7.36682e+06	-47739.1	955.819	-29765.3	0.000000	0.000000	6.450884	0.093235	NaN	0.000000	0.001570	0.001653	28.0789	0.074735	0.001880	39.7432	-54.0547	-166.879	0.089732	0.449318	-0.628503	-0.629705	0.093235	39.7432	-0.630262	-2.170839E+8	-4.294878E-10	NaN
182	1.000000	0.458569	7.36682e+06	-47739.1	955.818	-29765.3	0.000000	0.000000	6.458932	0.074068	NaN	0.000000	0.001578	0.001666	28.0789	0.100160	0.001789	55.9986	-145.464	-164.195	0.116125	0.457245	-0.620454	-0.621779	0.074068	55.9986	-0.621446	-1.642510E+8	-4.509430E-10	NaN
182	1.000000	0.466589	7.36682e+06	-47739.1	955.817	-29765.3	0.000000	0.000000	6.466951	0.046058	NaN	0.000000	0.001538	0.001661	28.0774	0.035159	0.002036	17.2689	126.892	-167.666	-0.018696	0.465254	-0.612434	-0.613769	0.046058	17.2689	-0.614434	-1.315561E+8	-3.501032E-10	NaN
182	1.000000	0.474581	7.36682e+06	-47739.1	955.818	-29765.3	0.000000	0.000000	6.474942	0.042145	NaN	0.000000	0.001586	0.001650	28.0775	0.045023	0.002176	20.6882	116.471	-162.155	0.107564	0.473291	-0.604442	-0.605732	0.042145	20.6882	-0.605970	-1.006133E+8	-4.188852E-10	NaN
182	1.000000	0.482559	7.36682e+06	-47739.1	955.819	-29765.3	0.000000	0.000000	6.482919	0.032271	NaN	0.000000	0.001595	0.001680	28.0773	0.095766	0.001926	49.7144	73.081	-162.096	0.059929	0.481290	-0.596465	-0.597733	0.032271	49.7144	-0.596952	-7.559099E+7	-4.269135E-10	NaN
182	1.000000	0.490584	7.36682e+06	-47739.1	955.818	-29765.3	0.000000	0.000000	6.490945	0.041086	NaN	0.000000	0.001564	0.001654	28.0776	0.040805	0.001896	21.5221	128.067	-163.204	0.062233	0.489273	-0.588440	-0.589750	0.041086	21.5221	-0.589872	-6.038062E+7	-6.804542E-10	NaN
182	1.000000	0.498571	7.36682e+06	-47739.1	955.818	-29765.3	0.000000	0.000000	6.498928	-0.048367	NaN	0.000000	0.001576	0.001701	28.0779	0.106713	0.002000	53.3494	-51.0491	-168.88	-0.064341	0.497323	-0.580453	-0.581701	-0.048367	53.3494	-0.579773	-4.381169E+7	1.103978E-9	NaN
182	1.000000	0.506572	7.36682e+06	-47739.1	955.817	-29765.3	0.000000	0.000000	6.506935	0.095104	NaN	0.000000	0.001547	0.001702	28.0775	0.027843	0.001922	14.4834	41.2442	-167.805	0.054843	0.505332	-0.572451	-0.573691	0.095104	14.4834	-0.577376	-4.059833E+7	-2.342561E-9	NaN
182	1.000000	0.514547	7.36682e+06	-47739.1	955.818	-29765.3	0.000000	0.000000	6.514907	0.005053	NaN	0.000000	0.001575	0.001697	28.0774	0.050571	0.001965	25.7338	65.22	-168.822	0.021178	0.513229	-0.564476	-0.565795	0.005053	25.7338	-0.564624	-2.705963E+7	-1.867440E-10	NaN
182	1.000000	0.522584	7.36682e+06	-47739.1	955.819	-29765.3	0.000000	0.000000	6.522946	0.057121	NaN	0.000000	0.001565	0.001717	28.0774	0.045397	0.002026	22.4028	-62.393	-162.392	0.067755	0.521227	-0.556439	-0.557796	0.057121	22.4028	-0.558351	-2.215997E+7	-2.577668E-9	NaN
182	1.000000	0.530621	7.36682e+06	-47739.1	955.818	-29765.3	0.000000	0.000000	6.530983	0.046687	NaN	0.000000	0.001563	0.001705	28.0778	0.074916	0.002027	36.9639	-114.172	-161.395	0.051203	0.529273	-0.548402	-0.549751	0.046687	36.9639	-0.549349	-1.663195E+7	-2.807071E-9	NaN
182	1.000000	0.538591	7.36682e+06	-47739.1	955.819	-29765.3	0.000000	0.000000	6.538953	0.066162	NaN	0.000000	0.001622	0.001720	28.0778	0.121913	0.001979	61.614	47.0866	-163.293	0.058570	0.537243	-0.540432	-0.541781	0.066162	61.614	-0.541237	-1.283860E+7	-5.153349E-9	NaN
182	1.000000	0.546613	7.36682e+06	-47739.1	955.817	-29765.3	0.000000	0.000000	6.546974	0.029012	NaN	0.000000	0.001577	0.001685	28.0775	0.076556	0.002015	37.9838	163.113	-167.591	-0.048677	0.545282	-0.532410	-0.533741	0.029012	37.9838	-0.532983	-9.86275e+06	-2.941606E-9	NaN
182	1.000000	0.554634	7.36682e+06	-47739.1	955.818	-29765.3	0.000000	0.000000	6.554995	0.037935	NaN	0.000000	0.001606	0.001706	28.0777	0.089158	0.002034	43.8357	162.653	-164.222	0.054392	0.553297	-0.524390	-0.525726	0.037935	43.8357	-0.525039	-7.64983e+06	-4.958969E-9	NaN
182	1.000000	0.562637	7.36682e+06	-47739.1	955.817	-29765.3	0.000000	0.000000	6.563000	0.089704	NaN	0.000000	0.001583	0.001707	28.0779	0.062566	0.002023	30.9265	115.789	-166.862	0.079688	0.561305	-0.516387	-0.517718	0.089704	30.9265	-0.518562	-6.21722e+06	-1.442832E-8	NaN
182	1.000000	0.570589	7.36682e+06	-47739.1	955.818	-29765.3	0.000000	0.000000	6.570951	0.043745	NaN	0.000000	0.001624	0.001694	28.0778	0.022938	0.002118	10.8283	144.264	-163.864	-0.003096	0.569313	-0.508434	-0.509711	0.043745	10.8283	-0.511464	-4.95227e+06	-8.833337E-9	NaN
182	1.000000	0.578618	7.36682e+06	-47739.1	955.818	-29765.3	0.000000	0.000000	6.578980	0.057358	NaN	0.000000	0.001597	0.001680	28.0778	0.111988	0.001949	57.467	156.648	-166.153	0.018249	0.577281	-0.500405	-0.501743	0.057358	57.467	-0.501154	-3.55722e+06	-1.612426E-8	NaN
182	1.000000	0.586649	7.36682e+06	-47739.1	955.818	-29765.3	0.000000	0.000000	6.587008	0.013722	NaN	0.000000	0.001590	0.001694	28.0777	0.033908	0.001876	18.0724	104.398	-164.308	-0.013546	0.585329	-0.492375	-0.493694	0.013722	18.0724	-0.492944	-2.73229e+06	-5.022137E-9	NaN
182	1.000000	0.594646	7.36682e+06	-47739.1	955.817	-29765.3	0.000000	0.000000	6.595005	-0.012027	NaN	0.000000	0.001617	0.001738	28.0782	0.103065	0.002065	49.9073	-127.427	-167.115	0.083684	0.593302	-0.484377	-0.485721	-0.012027	49.9073	-0.484196	-2.06182e+06	5.833280E-9	NaN
182	1.000000	0.602638	7.36682e+06	-47739.1	955.818	-29765.3	0.000000	0.000000	6.602998	0.028140	NaN	0.000000	0.001617	0.001721	28.079	0.123476	0.002037	60.6283	138.706	-164.418	-0.022892	0.601238	-0.476386	-0.477785	0.028140	60.6283	-0.476734	-1.62102e+06	-1.735936E-8	NaN
182	1.000000	0.610631	7.36682e+06	-47739.1	955.818	-29765.3	0.000000	0.000000	6.610992	0.035930	NaN	0.000000	0.001602	0.001697	28.0789	0.082238	0.002028	40.5541	-16.9888	-163.949	0.033237	0.609310	-0.468392	-0.469713	0.035930	40.5541	-0.469057	-1.26525e+06	-2.839712E-8	NaN
182	1.000000	0.618634	7.36682e+06	-47739.1	955.818	-29765.3	0.000000	0.000000	6.618996	0.066066	NaN	0.000000	0.001611	0.001732	28.079	0.042404	0.002060	20.5816	118.364	-165.289	0.061912	0.617372	-0.460389	-0.461652	0.066066	20.5816	-0.462797	-1.03349e+06	-6.392471E-8	NaN
182	1.000000	0.626627	7.36682e+06	-47739.1	955.818	-29765.3	0.000000	0.000000	6.626988	0.049989	NaN	0.000000	0.001639	0.001729	28.0789	0.095634	0.002043	46.8146	-174.322	-165.294	0.033673	0.625351	-0.452397	-0.453672	0.049989	46.8146	-0.453198	-757453	-6.599574E-8	NaN
182	1.000000	0.634682	7.36682e+06	-47739.1	955.818	-29765.3	0.000000	0.000000	6.635042	0.015258	NaN	0.000000	0.001630	0.001713	28.0793	0.037551	0.002061	18.222	58.7552	-168.878	0.020055	0.633324	-0.444341	-0.445700	0.015258	18.222	-0.444969	-580040	-2.630531E-8	NaN
182	1.000000	0.642639	7.36682e+06	-47739.1	955.817	-29765.3	0.000000	0.000000	6.642999	0.023442	NaN	0.000000	0.001613	0.001692	28.079	0.040893	0.002034	20.1052	74.3508	-166.61	0.048903	0.641292	-0.436384	-0.437732	0.023442	20.1052	-0.437259	-451507	-5.192056E-8	NaN
182	1.000000	0.650652	7.36682e+06	-47739.1	955.819	-29765.3	0.000000	0.000000	6.651012	0.025062	NaN	0.000000	0.001619	0.001670	28.0793	0.075289	0.002037	36.9544	130.156	-166.897	-0.034602	0.649293	-0.428372	-0.429730	0.025062	36.9544	-0.428880	-343731	-7.291260E-8	NaN
182	1.000000	0.658647	7.36682e+06	-47739.1	955.818	-29765.3	0.000000	0.000000	6.659010	0.090606	NaN	0.000000	0.001633	0.001697	28.0792	0.055253	0.001976	27.9556	171.066	-166.721	0.067091	0.657349	-0.420377	-0.421675	0.090606	27.9556	-0.422807	-281979	-3.213208E-7	NaN
182	1.000000	0.666654	7.36682e+06	-47739.1	955.818	-29765.3	0.000000	0.000000	6.667015	0.042792	NaN	0.000000	0.001621	0.001683	28.0791	0.035673	0.002012	17.7299	60.8047	-162.763	0.091423	0.665353	-0.412369	-0.413670	0.042792	17.7299	-0.414180	-212717	-2.011669E-7	NaN
182	1.000000	0.674661	7.36683e+06	-47739.1	955.818	-29765.3	0.000000	0.000000	6.675021	0.025233	NaN	0.000000	0.001623	0.001708	28.0792	0.115538	0.001964	58.8166	-166.907	-165.061	0.079209	0.673361	-0.404363	-0.405663	0.025233	58.8166	-0.404685	-155868	-1.618872E-7	NaN
182	1.000000	0.682662	7.36683e+06	-47739.1	955.817	-29765.3	0.000000	0.000000	6.683023	0.030823	NaN	0.000000	0.001618	0.001712	28.079	0.089673	0.002095	42.7981	-142.149	-164.195	0.032853	0.681310	-0.396361	-0.397714	0.030823	42.7981	-0.396901	-120721	-2.553256E-7	NaN
182	1.000000	0.690635	7.36683e+06	-47739.1	955.818	-29765.3	0.000000	0.000000	6.690996	0.035899	NaN	0.000000	0.001633	0.001656	28.0792	0.041068	0.001936	21.212	101.092	-164.99	0.065034	0.689402	-0.388388	-0.389621	0.035899	21.212	-0.389658	-95119.6	-3.774082E-7	NaN
182	1.000000	0.698673	7.36683e+06	-47739.1	955.819	-29765.3	0.000000	0.000000	6.699035	0.069996	NaN	0.000000	0.001651	0.001690	28.0789	0.053775	0.001984	27.1021	25.9572	-166.253	0.002866	0.697309	-0.380351	-0.381715	0.069996	27.1021	-0.382288	-74594.6	-9.383504E-7	NaN
182	1.000000	0.706677	7.36683e+06	-47739.1	955.818	-29765.3	0.000000	0.000000	6.707037	0.013068	NaN	0.000000	0.001647	0.001650	28.079	0.108528	0.001940	55.9476	112.771	-163.168	-0.017295	0.705335	-0.372346	-0.373688	0.013068	55.9476	-0.372522	-54004	-2.419836E-7	NaN
182	1.000000	0.714670	7.36683e+06	-47739.1	955.818	-29765.3	0.000000	0.000000	6.715032	0.059764	NaN	0.000000	0.001633	0.001630	28.0787	0.054013	0.001942	27.8109	-9.539630	-164.903	-0.002368	0.713327	-0.364353	-0.365697	0.059764	27.8109	-0.365965	-43448.8	-1.375501E-6	NaN
182	1.000000	0.722673	7.36683e+06	-47739.1	955.818	-29765.3	0.000000	0.000000	6.723037	0.105596	NaN	0.000000	0.001622	0.001695	28.0789	0.067677	0.002005	33.7541	3.724547	-162.979	0.033557	0.721352	-0.356350	-0.357671	0.105596	33.7541	-0.358697	-34119.1	-3.094922E-6	NaN
182	1.000000	0.730680	7.36683e+06	-47739.1	955.818	-29765.3	0.000000	0.000000	6.731043	0.087406	NaN	0.000000	0.001637	0.001643	28.0794	0.013934	0.001942	7.174423	-100.943	-162.798	0.056493	0.729433	-0.348343	-0.349591	0.087406	7.174423	-0.357480	-32764.6	-2.667709E-6	NaN
182	1.000000	0.738703	7.36683e+06	-47739.1	955.819	-29765.3	0.000000	0.000000	6.739062	-0.014896	NaN	0.000000	0.001651	0.001690	28.0779	0.073967	0.002079	35.5823	-39.1933	-164.65	-0.044960	0.737344	-0.340320	-0.341679	-0.014896	35.5823	-0.340006	-18266.1	8.155038E-7	NaN
182	1.000000	0.746665	7.36683e+06	-47739.1	955.819	-29765.3	0.000000	0.000000	6.747026	0.033934	NaN	0.000000	0.001636	0.001706	28.0778	0.033248	0.002159	15.3985	-14.2199	-164.686	0.056651	0.745367	-0.332358	-0.333656	0.033934	15.3985	-0.334011	-14932.5	-2.272500E-6	NaN
182	1.000000	0.754684	7.36683e+06	-47739.1	955.819	-29765.3	0.000000	0.000000	6.755044	0.028624	NaN	0.000000	0.001619	0.001681	28.0777	0.046797	0.002023	23.1369	-99.8375	-165.716	0.000966	0.753380	-0.324340	-0.325643	0.028624	23.1369	-0.325267	-11118.9	-2.574377E-6	NaN
182	1.000000	0.762690	7.36683e+06	-47739.1	955.817	-29765.3	0.000000	0.000000	6.763053	0.093295	NaN	0.000000	0.001593	0.001697	28.078	0.111894	0.002007	55.7391	169.648	-164.617	0.006370	0.761363	-0.316333	-0.317661	0.093295	55.7391	-0.317589	-8572.84	-1.088261E-5	NaN
182	1.000000	0.770692	7.36683e+06	-47739.1	955.817	-29765.3	0.000000	0.000000	6.771055	0.088258	NaN	0.000000	0.001645	0.001697	28.0777	0.086771	0.001890	45.9031	172.896	-162.215	0.048464	0.769395	-0.308331	-0.309629	0.088258	45.9031	-0.309773	-6572.08	-1.342924E-5	NaN
182	1.000000	0.778724	7.36683e+06	-47739.1	955.819	-29765.3	0.000000	0.000000	6.779083	-0.002002	NaN	0.000000	0.001667	0.001698	28.0778	0.063695	0.002119	30.0651	-55.2427	-166.427	-0.006454	0.777399	-0.300300	-0.301625	-0.002002	30.0651	-0.300250	-4746.25	4.217321E-7	NaN
182	1.000000	0.786693	7.36683e+06	-47739.1	955.819	-29765.3	0.000000	0.000000	6.787054	0.035880	NaN	0.000000	0.001689	0.001700	28.078	0.156441	0.001984	78.8627	-75.4314	-164.499	0.011849	0.785415	-0.292330	-0.293608	0.035880	78.8627	-0.292671	-3658.36	-9.807552E-6	NaN
182	1.000000	0.794724	7.36683e+06	-47739.1	955.818	-29765.3	0.000000	0.000000	6.795085	0.048305	NaN	0.000000	0.001640	0.001665	28.0778	0.092985	0.001992	46.6745	40.4715	-165.885	0.055661	0.793417	-0.284300	-0.285607	0.048305	46.6745	-0.285076	-2814.53	-1.716271E-5	NaN
182	1.000000	0.802692	7.36683e+06	-47739.1	955.819	-29765.3	0.000000	0.000000	6.803052	0.019556	NaN	0.000000	0.001679	0.001686	28.0778	0.048077	0.002030	23.6841	-58.1813	-166.638	0.099815	0.801358	-0.276331	-0.277666	0.019556	23.6841	-0.276950	-2122.81	-9.212418E-6	NaN
182	1.000000	0.810705	7.36683e+06	-47739.1	955.818	-29765.3	0.000000	0.000000	6.811064	-0.005273	NaN	0.000000	0.001697	0.001672	28.0778	0.034982	0.001881	18.6016	92.4028	-167.177	0.089283	0.809393	-0.268318	-0.269631	-0.005273	18.6016	-0.268106	-1558.59	3.383122E-6	NaN
182	1.000000	0.818710	7.36683e+06	-47739.1	955.819	-29765.3	0.000000	0.000000	6.819073	0.093020	NaN	0.000000	0.001664	0.001705	28.078	0.075222	0.002090	35.9837	-55.4827	-164.299	0.085691	0.817400	-0.260314	-0.261623	0.093020	35.9837	-0.262252	-1268.84	-7.331096E-5	NaN
182	1.000000	0.826724	7.36683e+06	-47739.1	955.818	-29765.3	0.000000	0.000000	6.827083	-0.002408	NaN	0.000000	0.001607	0.001694	28.0779	0.094811	0.002032	46.6633	-141.67	-164.667	-0.001452	0.825418	-0.252299	-0.253606	-0.002408	46.6633	-0.252261	-891.026	2.702095E-6	NaN
182	1.000000	0.834708	7.36683e+06	-47739.1	955.818	-29765.3	0.000000	0.000000	6.835069	0.032562	NaN	0.000000	0.001607	0.001699	28.0778	0.079879	0.001973	40.4916	6.585217	-165.888	0.019033	0.833370	-0.244315	-0.245654	0.032562	40.4916	-0.244918	-685.777	-4.748245E-5	NaN
182	1.000000	0.842713	7.36683e+06	-47739.1	955.818	-29765.3	0.000000	0.000000	6.843074	0.035876	NaN	0.000000	0.001643	0.001705	28.078	0.090527	0.001938	46.7112	-61.9651	-166.157	0.120415	0.841436	-0.236310	-0.237587	0.035876	46.7112	-0.236886	-513.854	-6.981692E-5	NaN
182	1.000000	0.850722	7.36683e+06	-47739.1	955.818	-29765.3	0.000000	0.000000	6.851082	0.014159	NaN	0.000000	0.001633	0.001659	28.0778	0.144079	0.001929	74.6889	-10.9383	-165.68	0.140798	0.849390	-0.228301	-0.229633	0.014159	74.6889	-0.228443	-378.367	-3.742000E-5	NaN
182	1.000000	0.858757	7.36683e+06	-47739.1	955.818	-29765.3	0.000000	0.000000	6.859120	0.083204	NaN	0.000000	0.001634	0.001718	28.0778	0.031673	0.002017	15.6998	-160.424	-165.829	0.010671	0.857389	-0.220266	-0.221634	0.083204	15.6998	-0.224241	-324.543	-0.000256	NaN
182	1.000000	0.866749	7.36683e+06	-47739.1	955.818	-29765.3	0.000000	0.000000	6.867110	0.041021	NaN	0.000000	0.001623	0.001661	28.0781	0.090105	0.002043	44.1146	168.786	-163.646	-0.051187	0.865391	-0.212275	-0.213633	0.041021	44.1146	-0.212972	-214.216	-0.000191	NaN
182	1.000000	0.874705	7.36683e+06	-47739.1	955.818	-29765.3	0.000000	0.000000	6.875065	0.029209	NaN	0.000000	0.001613	0.001724	28.0792	0.057459	0.001889	30.4171	-104.267	-167.342	-0.019036	0.873442	-0.204319	-0.205582	0.029209	30.4171	-0.205039	-159.292	-0.000183	NaN
182	1.000000	0.882767	7.36683e+06	-47739.1	955.818	-29765.3	0.000000	0.000000	6.883126	-0.012951	NaN	0.000000	0.001648	0.001695	28.0797	0.071882	0.001936	37.1312	3.583194	-165.3	0.054421	0.881452	-0.196257	-0.197571	-0.012951	37.1312	-0.195995	-113.155	0.000114	NaN
182	1.000000	0.890760	7.36683e+06	-47739.1	955.818	-29765.3	0.000000	0.000000	6.891120	0.025970	NaN	0.000000	0.001615	0.001675	28.0791	0.102401	0.002023	50.6069	-6.548867	-167.459	0.006954	0.889448	-0.188264	-0.189576	0.025970	50.6069	-0.188649	-85.3935	-0.000304	NaN
182	1.000000	0.898750	7.36683e+06	-47739.1	955.819	-29765.3	0.000000	0.000000	6.899112	0.049676	NaN	0.000000	0.001644	0.001666	28.079	0.084074	0.002051	40.9847	-7.928274	-163.997	0.134568	0.897452	-0.180273	-0.181572	0.049676	40.9847	-0.181182	-63.9085	-0.000777	NaN
182	1.000000	0.906725	7.36683e+06	-47739.1	955.818	-29765.3	0.000000	0.000000	6.907086	0.030806	NaN	0.000000	0.001657	0.001662	28.0791	0.046065	0.001975	23.318	-52.7122	-162.358	-0.030305	0.905473	-0.172298	-0.173551	0.030806	23.318	-0.173289	-46.8303	-0.000658	NaN
182	1.000000	0.914760	7.36683e+06	-47739.1	955.818	-29765.3	0.000000	0.000000	6.915120	0.035983	NaN	0.000000	0.001647	0.001698	28.079	0.025308	0.001974	12.8182	161.432	-161.718	0.013829	0.913458	-0.164264	-0.165565	0.035983	12.8182	-0.166369	-35.5068	-0.001013	NaN
182	1.000000	0.922781	7.36683e+06	-47739.1	955.818	-29765.3	0.000000	0.000000	6.923145	0.101019	NaN	0.000000	0.001655	0.001717	28.0796	0.043742	0.002041	21.4284	77.8558	-166.451	0.145845	0.921471	-0.156242	-0.157552	0.101019	21.4284	-0.159778	-27.1667	-0.003718	NaN
182	1.000000	0.930741	7.36683e+06	-47739.1	955.818	-29765.3	0.000000	0.000000	6.931101	0.038127	NaN	0.000000	0.001703	0.001670	28.0791	0.074775	0.002090	35.7751	90.0195	-165.984	0.004777	0.929441	-0.148283	-0.149583	0.038127	35.7751	-0.149082	-17.4279	-0.002188	NaN
182	1.000000	0.938789	7.36683e+06	-47739.1	955.818	-29765.3	0.000000	0.000000	6.939152	0.083213	NaN	0.000000	0.001620	0.001652	28.0792	0.064917	0.002111	30.7578	100.347	-163.334	0.008387	0.937453	-0.140234	-0.141570	0.083213	30.7578	-0.142263	-13.0415	-0.006381	NaN
182	1.000000	0.946740	7.36683e+06	-47739.1	955.818	-29765.3	0.000000	0.000000	6.947102	0.052733	NaN	0.000000	0.001612	0.001671	28.0793	0.011155	0.002082	5.357745	-84.4617	-167.846	0.054203	0.945460	-0.132283	-0.133564	0.052733	5.357745	-0.139665	-11.6592	-0.004523	NaN
182	1.000000	0.954759	7.36683e+06	-47739.1	955.818	-29765.3	0.000000	0.000000	6.955116	-0.067481	NaN	0.000000	0.001648	0.001669	28.0791	0.119500	0.001960	60.9776	147.389	-166.298	0.034684	0.953515	-0.124264	-0.125509	-0.067481	60.9776	-0.123434	-5.661265	0.011920	NaN
182	1.000000	0.962776	7.36683e+06	-47739.1	955.818	-29765.3	0.000000	0.000000	6.963136	0.009926	NaN	0.000000	0.001635	0.001689	28.0798	0.085078	0.001964	43.3149	84.3567	-165.102	-0.050906	0.961405	-0.116248	-0.117619	0.009926	43.3149	-0.116419	-4.085796	-0.002429	NaN
182	1.000000	0.970788	7.36683e+06	-47739.1	955.818	-29765.3	0.000000	0.000000	6.971148	-0.001625	NaN	0.000000	0.001604	0.001721	28.0791	0.038686	0.002076	18.6354	51.7379	-166.046	0.018207	0.969486	-0.108235	-0.109538	-0.001625	18.6354	-0.108170	-2.748593	0.000591	NaN
182	1.000000	0.978808	7.36683e+06	-47739.1	955.818	-29765.3	0.000000	0.000000	6.979169	0.061422	NaN	0.000000	0.001672	0.001722	28.0793	0.009010	0.001957	4.603737	-35.4544	-169.727	-0.034530	0.977484	-0.100216	-0.101539	0.061422	4.603737	-0.110222	-3.037793	-0.020219	NaN
182	1.000000	0.986769	7.36683e+06	-47739.1	955.819	-29765.3	0.000000	0.000000	6.987130	0.042062	NaN	0.000000	0.001635	0.001683	28.0791	0.095741	0.002083	45.9734	58.4429	-168.388	0.005174	0.985546	-0.092254	-0.093478	0.042062	45.9734	-0.092940	-1.265328	-0.033242	NaN
182	1.000000	0.994788	7.36683e+06	-47739.1	955.818	-29765.3	0.000000	0.000000	6.995149	0.030154	NaN	0.000000	0.001604	0.001710	28.0792	0.015107	0.001965	7.686565	116.762	-167.153	0.008868	0.993483	-0.084235	-0.085541	0.030154	7.686565	-0.087178	-0.926880	-0.032533	NaN
182	1.000000	1.002801	7.36683e+06	-47739.1	955.818	-29765.3	0.000000	0.000000	7.003159	-0.030318	NaN	0.000000	0.001601	0.001691	28.0791	0.093172	0.002003	46.5162	94.6977	-165.256	0.045002	1.001455	-0.076222	-0.077569	-0.030318	46.5162	-0.075734	-0.482448	0.062843	NaN
182	1.000000	1.010808	7.36683e+06	-47739.1	955.819	-29765.3	0.000000	0.000000	7.011167	-0.025545	NaN	0.000000	0.001613	0.001701	28.0778	0.055925	0.002024	27.6294	161.716	-168.047	-0.010410	1.009497	-0.068215	-0.069526	-0.025545	27.6294	-0.067522	-0.292362	0.087374	NaN
182	1.000000	1.018805	7.36683e+06	-47739.1	955.818	-29765.3	0.000000	0.000000	7.019163	-0.025968	NaN	0.000000	0.001598	0.001700	28.0783	0.026170	0.001950	13.42	56.6509	-167.835	0.064874	1.017468	-0.060219	-0.061555	-0.025968	13.42	-0.058768	-0.165961	0.156471	NaN
182	1.000000	1.026802	7.36683e+06	-47739.1	955.818	-29765.3	0.000000	0.000000	7.027163	0.027278	NaN	0.000000	0.001624	0.001745	28.078	0.049594	0.002012	24.6539	-54.6357	-163.194	0.005847	1.025510	-0.052221	-0.053514	0.027278	24.6539	-0.053051	-0.112703	-0.242032	NaN
182	1.000000	1.034798	7.36683e+06	-47739.1	955.817	-29765.3	0.000000	0.000000	7.035161	0.098397	NaN	0.000000	0.001614	0.001705	28.0779	0.090172	0.001950	46.2423	-178.995	-164.011	0.117433	1.033542	-0.044225	-0.045482	0.098397	46.2423	-0.045821	-0.068093	-1.445040	NaN
182	1.000000	1.042793	7.36683e+06	-47739.1	955.819	-29765.3	0.000000	0.000000	7.043154	0.040443	NaN	0.000000	0.001651	0.001689	28.0775	0.023615	0.002101	11.2407	-34.7338	-164.072	0.183764	1.041530	-0.036231	-0.037494	0.040443	11.2407	-0.038929	-0.041965	-0.963715	NaN
182	1.000000	1.050806	7.36683e+06	-47739.1	955.818	-29765.3	0.000000	0.000000	7.051168	0.062222	NaN	0.000000	0.001629	0.001723	28.0771	0.027649	0.002027	13.6414	-40.967	-165.887	0.032615	1.049506	-0.028217	-0.029518	0.062222	13.6414	-0.031638	-0.025591	-2.431397	NaN
182	1.000000	1.058818	7.36683e+06	-47739.1	955.819	-29765.3	0.000000	0.000000	7.059178	0.020162	NaN	0.000000	0.001647	0.001674	28.0775	0.116926	0.002036	57.4323	152.054	-167.23	0.013119	1.057553	-0.020206	-0.021471	0.020162	57.4323	-0.020469	-0.012911	-1.561681	NaN
182	1.000000	1.066807	7.36683e+06	-47739.1	955.82	-29765.3	0.000000	0.000000	7.067169	0.044716	NaN	0.000000	0.001632	0.001744	28.0774	0.043874	0.002046	21.4482	49.0341	-162.687	-0.015594	1.065518	-0.012216	-0.013505	0.044716	21.4482	-0.013780	-0.008554	-5.227224	NaN
182	1.000000	1.074822	7.36683e+06	-47739.1	955.818	-29765.3	0.000000	0.000000	7.075180	-0.040948	NaN	0.000000	0.001611	0.001682	28.0775	0.090449	0.002078	43.52	-65.2344	-166.76	0.063969	1.073451	-0.004201	-0.005572	-0.040948	43.52	-0.003495	-0.002449	16.7179	NaN
182	1.000000	1.082799	7.36683e+06	-47739.1	955.818	-29765.3	0.000000	0.000000	7.083283	3.034210	NaN	0.000000	0.001645	0.001788	28.0774	3.799577	0.001606	2365.59	5.623263	-164.056	1.594455	1.081515	0.003776	0.002492	3.034210	2365.59	0.002814	0.002224	1364.52	45833.1
182	2.000000	1.088430	7.36683e+06	-47739.1	955.819	-29765.3	0.000000	0.000000	7.089165	9.143194	NaN	0.000000	0.001643	0.001744	28.0772	9.205811	0.001560	5900.28	7.147966	-173.494	8.707123	1.088116	0.009407	0.009092	9.143194	5900.28	0.008244	0.007295	1253.35	63115.1
182	2.000000	1.090426	7.36683e+06	-47739.1	955.819	-29765.3	0.000000	0.000000	7.091246	11.2095	NaN	0.000000	0.001641	0.001738	28.0775	11.8344	0.001704	6943.35	6.143076	-172.502	11.2341	1.090105	0.011403	0.011081	11.2095	6943.35	0.010192	0.009396	1193.06	65445.7
182	2.000000	1.092420	7.36683e+06	-47739.1	955.819	-29765.3	0.000000	0.000000	7.093427	15.7683	NaN	0.000000	0.001608	0.001722	28.0776	14.3548	0.001729	8300.82	7.655301	-175.305	15.6916	1.092107	0.013396	0.013084	15.7683	8300.82	0.011971	0.011456	1376.45	70856.9
182	2.000000	1.094355	7.36683e+06	-47739.1	955.819	-29765.3	0.000000	0.000000	7.095546	20.2137	NaN	0.000000	0.001652	0.001705	28.0775	16.5707	0.001805	9179.05	7.986353	-176.395	19.433	1.093980	0.015332	0.014956	20.2137	9179.05	0.013680	0.013566	1490.05	72002.7
182	2.000000	1.096377	7.36683e+06	-47739.1	955.819	-29765.3	0.000000	0.000000	7.097753	24.7158	NaN	0.000000	0.001627	0.001675	28.0774	18.9951	0.001818	10445.9	5.921155	-175.586	24.0633	1.096049	0.017354	0.017025	24.7158	10445.9	0.015579	0.016065	1538.45	75296
182	2.000000	1.098348	7.36683e+06	-47739.1	955.817	-29765.3	0.000000	0.000000	7.100026	32.0753	NaN	0.000000	0.001632	0.001698	28.0772	20.0182	0.001699	11781.6	7.678317	-178.003	31.7865	1.097966	0.019324	0.018943	32.0753	11781.6	0.017282	0.018450	1738.47	79245.3
182	2.000000	1.100316	7.36683e+06	-47739.1	955.817	-29765.3	0.000000	0.000000	7.102157	36.0462	NaN	0.000000	0.001571	0.001712	28.0776	23.3529	0.001835	12724.4	11.6925	177.754	35.8901	1.100018	0.021292	0.020995	36.0462	12724.4	0.019167	0.021251	1696.22	79748.3
182	2.000000	1.102358	7.36683e+06	-47739.1	955.819	-29765.3	0.000000	0.000000	7.104454	42.2451	NaN	0.000000	0.001574	0.001722	28.0787	24.6229	0.001735	14188	6.486832	-178.783	42.3481	1.101963	0.023335	0.022939	42.2451	14188	0.021102	0.024303	1738.27	83150.2
182	2.000000	1.104321	7.36683e+06	-47739.1	955.818	-29765.3	0.000000	0.000000	7.106517	44.6704	NaN	0.000000	0.001558	0.001743	28.079	26.4942	0.001808	14655.8	4.257063	-177.257	44.5703	1.103989	0.025297	0.024966	44.6704	14655.8	0.023011	0.027497	1624.57	80749.7
182	2.000000	1.106342	7.36683e+06	-47739.1	955.819	-29765.3	0.000000	0.000000	7.108658	47.6018	NaN	0.000000	0.001598	0.001722	28.0788	29.7082	0.001912	15538.7	5.881890	179.597	47.5417	1.106067	0.027318	0.027044	47.6018	15538.7	0.025021	0.031053	1532.92	80563.1
182	2.000000	1.108364	7.36683e+06	-47739.1	955.818	-29765.3	0.000000	0.000000	7.111068	57.0453	NaN	0.000000	0.001605	0.001725	28.0788	30.3459	0.001842	16477.7	5.958395	-177.317	58.9914	1.107927	0.029340	0.028904	57.0453	16477.7	0.026744	0.034264	1664.86	81329.4
182	2.000000	1.110344	7.36683e+06	-47739.1	955.818	-29765.3	0.000000	0.000000	7.113241	61.7241	NaN	0.000000	0.001628	0.001729	28.0786	32.5193	0.001745	18631.3	6.974103	179.214	62.3122	1.109969	0.031320	0.030946	61.7241	18631.3	0.028835	0.038364	1608.89	86906.4
182	2.000000	1.112353	7.36683e+06	-47739.1	955.818	-29765.3	0.000000	0.000000	7.115516	68.1978	NaN	0.000000	0.001607	0.001737	28.0786	35.0682	0.001795	19538.7	4.945049	179.892	67.537	1.112025	0.033329	0.033001	68.1978	19538.7	0.030711	0.042231	1614.88	86866.8
182	2.000000	1.114310	7.36683e+06	-47739.1	955.818	-29765.3	0.000000	0.000000	7.117797	76.0574	NaN	0.000000	0.001620	0.001714	28.0793	36.747	0.001771	20754.5	3.361290	-179.762	75.6702	1.114026	0.035287	0.035003	76.0574	20754.5	0.032538	0.046170	1647.35	88248.6
182	2.000000	1.116280	7.36683e+06	-47739.1	955.818	-29765.3	0.000000	0.000000	7.120083	83.7702	NaN	0.000000	0.001619	0.001711	28.0786	39.5725	0.001823	21709.8	5.240957	177.706	81.4266	1.115915	0.037257	0.036891	83.7702	21709.8	0.034363	0.050272	1666.34	88463.9
182	2.000000	1.118277	7.36683e+06	-47739.1	955.818	-29765.3	0.000000	0.000000	7.122398	91.511	NaN	0.000000	0.001618	0.001694	28.079	41.0358	0.001800	22797.9	7.678169	175.924	90.8255	1.117954	0.039253	0.038931	91.511	22797.9	0.036243	0.054679	1673.61	89075.4
182	2.000000	1.120238	7.36683e+06	-47739.1	955.819	-29765.3	0.000000	0.000000	7.124677	99.2323	NaN	0.000000	0.001662	0.001700	28.0788	41.9901	0.001730	24269.6	2.823569	-179.993	96.8577	1.119965	0.041214	0.040941	99.2323	24269.6	0.038148	0.059329	1672.56	91033.5
182	2.000000	1.122269	7.36683e+06	-47739.1	955.82	-29765.3	0.000000	0.000000	7.127058	107.736	NaN	0.000000	0.001655	0.001695	28.0787	44.5069	0.001830	24321.9	4.205838	179.552	105.426	1.121945	0.043246	0.042921	107.736	24321.9	0.039924	0.063832	1687.82	87953.5
182	2.000000	1.124231	7.36683e+06	-47739.1	955.82	-29765.3	0.000000	0.000000	7.129294	114.418	NaN	0.000000	0.001663	0.001703	28.0802	46.9187	0.001832	25610.4	8.665134	173.3	112.696	1.123954	0.045208	0.044931	114.418	25610.4	0.041857	0.068915	1660.28	89131.7
182	2.000000	1.126276	7.36683e+06	-47739.1	955.819	-29765.3	0.000000	0.000000	7.131613	121.049	NaN	0.000000	0.001646	0.001690	28.0788	48.9232	0.001868	26190.2	1.405070	-179.351	120.802	1.126008	0.047253	0.046984	121.049	26190.2	0.043787	0.074180	1631.83	87855.5
182	2.000000	1.128278	7.36683e+06	-47739.1	955.821	-29765.3	0.000000	0.000000	7.134116	133.258	NaN	0.000000	0.001628	0.001660	28.0789	49.6084	0.001754	28290.3	3.504055	177.786	130.931	1.128021	0.049254	0.048998	133.258	28290.3	0.045721	0.079649	1673.07	91584.5
182	2.000000	1.130263	7.36683e+06	-47739.1	955.82	-29765.3	0.000000	0.000000	7.136608	145.584	NaN	0.000000	0.001638	0.001709	28.0789	52.4449	0.001884	27834.3	5.801965	175.766	144.935	1.129897	0.051240	0.050873	145.584	27834.3	0.047317	0.084300	1726.97	87586.8
182	2.000000	1.132243	7.36683e+06	-47739.1	955.818	-29765.3	0.000000	0.000000	7.138858	152.155	NaN	0.000000	0.001666	0.001702	28.0788	52.9033	0.001679	31505.1	1.892309	178.887	149.146	1.132039	0.053220	0.053016	152.155	31505.1	0.049598	0.091174	1668.85	95327.7
182	2.000000	1.134264	7.36683e+06	-47739.1	955.819	-29765.3	0.000000	0.000000	7.141543	168.287	NaN	0.000000	0.001648	0.001690	28.0791	55.3019	0.001830	30223.1	6.556193	174.64	167.094	1.133862	0.055241	0.054838	168.287	30223.1	0.051065	0.095733	1757.89	89244.6
182	2.000000	1.136247	7.36683e+06	-47739.1	955.82	-29765.3	0.000000	0.000000	7.143673	171.876	NaN	0.000000	0.001667	0.001715	28.0774	57.3075	0.001765	32477.7	0.980714	178.961	169.804	1.136051	0.057223	0.057028	171.876	32477.7	0.053254	0.102737	1672.97	92575.3
182	2.000000	1.138216	7.36683e+06	-47739.1	955.82	-29765.3	0.000000	0.000000	7.146227	186.118	NaN	0.000000	0.001638	0.001699	28.0777	58.1488	0.001711	33983.6	2.314235	177.084	182.906	1.137982	0.059192	0.058958	186.118	33983.6	0.055085	0.108775	1711.04	94141.1
182	2.000000	1.140232	7.36683e+06	-47739.1	955.819	-29765.3	0.000000	0.000000	7.148623	195.367	NaN	0.000000	0.001651	0.001742	28.0777	61.1293	0.001642	37234.3	5.964210	172.763	193.248	1.139925	0.061208	0.060901	195.367	37234.3	0.057273	0.116211	1681.14	99791.4
182	2.000000	1.142350	7.36683e+06	-47739.1	955.819	-29765.3	0.000000	0.000000	7.151228	207.198	NaN	0.000000	0.001722	0.001705	28.0775	64.5713	0.001912	33772.5	8.137622	173.033	209.555	1.141867	0.063327	0.062844	207.198	33772.5	0.058725	0.121278	1708.46	88602.4
182	2.000000	1.144255	7.36683e+06	-47739.1	955.821	-29765.3	0.000000	0.000000	7.153619	219.01	NaN	0.000000	0.001718	0.001738	28.0778	66.2331	0.001913	34626.6	5.386727	174.151	218.79	1.143901	0.065232	0.064878	219.01	34626.6	0.060488	0.127565	1716.85	88576.3
182	2.000000	1.146340	7.36683e+06	-47739.1	955.82	-29765.3	0.000000	0.000000	7.156039	227.164	NaN	0.000000	0.001671	0.001709	28.0773	68.3537	0.001838	37195.7	5.498781	173.802	231.07	1.145953	0.067317	0.066929	227.164	37195.7	0.062736	0.135803	1672.74	92217
182	2.000000	1.148239	7.36683e+06	-47739.1	955.82	-29765.3	0.000000	0.000000	7.158656	244.617	NaN	0.000000	0.001725	0.001724	28.0778	69.7246	0.001920	36315.5	8.252764	171.697	242.913	1.147874	0.069216	0.068851	244.617	36315.5	0.064164	0.141162	1732.88	88309.4
182	2.000000	1.150224	7.36683e+06	-47739.1	955.82	-29765.3	0.000000	0.000000	7.161128	256.466	NaN	0.000000	0.001719	0.001712	28.0777	71.6976	0.001827	39232.9	6.407759	172.22	254.686	1.149895	0.071201	0.070872	256.466	39232.9	0.066298	0.149355	1717.15	92750
182	2.000000	1.152220	7.36683e+06	-47739.1	955.818	-29765.3	0.000000	0.000000	7.163792	272.721	NaN	0.000000	0.001721	0.001690	28.0777	72.4825	0.001850	39185	2.272757	177.124	268.723	1.151897	0.073197	0.072874	272.721	39185	0.067977	0.155956	1748.7	90654.9
182	2.000000	1.154312	7.36683e+06	-47739.1	955.819	-29765.3	0.000000	0.000000	7.166208	280.598	NaN	0.000000	0.001688	0.001688	28.0776	74.5653	0.001901	39215.3	4.254347	174.473	282.63	1.153954	0.075289	0.074930	280.598	39215.3	0.069922	0.163772	1713.34	88533.7
182	2.000000	1.156291	7.36683e+06	-47739.1	955.82	-29765.3	0.000000	0.000000	7.169016	300.763	NaN	0.000000	0.001680	0.001655	28.0779	76.71	0.001790	42852.3	6.838696	171.475	302.981	1.155841	0.077268	0.076817	300.763	42852.3	0.072004	0.172334	1745.23	94310.8
182	2.000000	1.158142	7.36683e+06	-47739.1	955.82	-29765.3	0.000000	0.000000	7.171055	305.359	NaN	0.000000	0.001673	0.001690	28.0779	76.693	0.001792	42789.8	3.022507	174.836	298.998	1.157957	0.079118	0.078933	305.359	42789.8	0.073766	0.179744	1698.86	92212
182	2.000000	1.160213	7.36683e+06	-47739.1	955.82	-29765.3	0.000000	0.000000	7.174078	328.479	NaN	0.000000	0.001674	0.001662	28.0777	80.5471	0.001785	45116.2	6.257787	171.774	326.164	1.159860	0.081190	0.080837	328.479	45116.2	0.075729	0.188172	1745.63	95022.9
182	2.000000	1.162213	7.36683e+06	-47739.1	955.821	-29765.3	0.000000	0.000000	7.176627	341.848	NaN	0.000000	0.001718	0.001668	28.0776	82.9988	0.001824	45502.6	6.638675	171.182	337.793	1.161945	0.083189	0.082922	341.848	45502.6	0.077555	0.196170	1742.61	93862.6
182	2.000000	1.164153	7.36683e+06	-47739.1	955.82	-29765.3	0.000000	0.000000	7.179092	354.619	NaN	0.000000	0.001715	0.001669	28.0776	83.2836	0.001752	47546.7	5.753660	171.833	348.449	1.163798	0.085129	0.084775	354.619	47546.7	0.079535	0.205025	1729.64	95937.9
182	2.000000	1.166244	7.36683e+06	-47739.1	955.82	-29765.3	0.000000	0.000000	7.182082	376.51	NaN	0.000000	0.001648	0.001684	28.0773	86.9836	0.001740	49990.3	2.374480	174.286	375.889	1.165883	0.087220	0.086860	376.51	49990.3	0.081571	0.214317	1756.79	98657.6
182	2.000000	1.168197	7.36683e+06	-47739.1	955.82	-29765.3	0.000000	0.000000	7.184347	384.076	NaN	0.000000	0.001686	0.001692	28.0778	88.0565	0.001787	49289.1	6.316161	171.242	382.103	1.167899	0.089173	0.088876	384.076	49289.1	0.083329	0.222495	1726.22	95469.4
182	2.000000	1.170166	7.36683e+06	-47739.1	955.821	-29765.3	0.000000	0.000000	7.187082	402.711	NaN	0.000000	0.001664	0.001691	28.0789	90.2782	0.001765	51143.3	4.025590	172.806	397.08	1.169785	0.091142	0.090761	402.711	51143.3	0.085237	0.231532	1739.33	97108.3
182	2.000000	1.172118	7.36683e+06	-47739.1	955.819	-29765.3	0.000000	0.000000	7.189566	415.639	NaN	0.000000	0.001676	0.001702	28.079	93.0923	0.001815	51284.3	7.209744	169.801	408.648	1.171899	0.093095	0.092875	415.639	51284.3	0.087016	0.240114	1731.01	95620
182	2.000000	1.174176	7.36683e+06	-47739.1	955.819	-29765.3	0.000000	0.000000	7.192517	437.366	NaN	0.000000	0.001713	0.001692	28.0789	94.9739	0.001910	49720.7	8.837380	169.092	434.144	1.173703	0.095152	0.094680	437.366	49720.7	0.088555	0.247652	1766.05	91283.1
182	2.000000	1.176229	7.36683e+06	-47739.1	955.82	-29765.3	0.000000	0.000000	7.195414	457.891	NaN	0.000000	0.001675	0.001691	28.079	96.1384	0.001774	54183.2	2.715146	174.316	455.396	1.175749	0.097206	0.096726	457.891	54183.2	0.090868	0.259185	1766.66	97237.3
182	2.000000	1.178183	7.36683e+06	-47739.1	955.819	-29765.3	0.000000	0.000000	7.197555	462.428	NaN	0.000000	0.001684	0.001705	28.0789	96.9736	0.001846	52531.3	2.068960	174.601	458.905	1.177898	0.099160	0.098875	462.428	52531.3	0.092558	0.267770	1726.96	92749.4
182	2.000000	1.180164	7.36683e+06	-47739.1	955.819	-29765.3	0.000000	0.000000	7.200279	480.51	NaN	0.000000	0.001682	0.001669	28.0788	100.083	0.001786	56039	0.981587	175.149	477.463	1.179850	0.101140	0.100827	480.51	56039	0.094709	0.278886	1722.96	96950.6
182	2.000000	1.182137	7.36683e+06	-47739.1	955.82	-29765.3	0.000000	0.000000	7.202779	493.343	NaN	0.000000	0.001672	0.001678	28.0788	102.406	0.001809	56608.2	2.096684	173.799	486.945	1.181920	0.103113	0.102897	493.343	56608.2	0.096577	0.288708	1708.8	96255
182	2.000000	1.184153	7.36683e+06	-47739.1	955.819	-29765.3	0.000000	0.000000	7.205894	520.082	NaN	0.000000	0.001658	0.001699	28.0788	103.697	0.001702	60910.4	5.868166	170.191	516.559	1.183725	0.105129	0.104701	520.082	60910.4	0.098725	0.300200	1732.45	101569
182	2.000000	1.186381	7.36683e+06	-47739.1	955.818	-29765.3	0.000000	0.000000	7.208212	522.248	NaN	0.000000	0.001659	0.001667	28.0791	107.263	0.001820	58922.5	5.094273	171.142	531.207	1.186021	0.107357	0.106998	522.248	58922.5	0.100710	0.311004	1679.23	96532