File: remote_trans/data/nanoindenter/0828-1/data/Data_2025-08-06,11h17m57s/2025-07-22_16-23-58_1_788.txt
2025-07-22, 16:23:58, 1
Index	Phase	Displacement	Time	Pos X	Pos Y	Pos Z	Rot A	Rot B	Piezo Z	Force A	Force B	Gripper	Voltage A	Voltage B	Temperature	Amplitude force	Amplitude pos	Stiffness	Phase shift	Phase excitation	Force A raw	Displacement raw	HMax	HMax raw	Real Force	Real Stiffness	Contact Depth	Area	Hardness	Reduced Mod.
[#]	[#]	[um]	[s]	[um]	[um]	[um]	[m°]	[m°]	[um]	[uN]	[uN]	[V]	[V]	[V]	[°C]	[uN]	[um]	[N/m]	[°]	[°]	[uN]	[um]	[um]	[um]	[uN]	[N/m]	[um]	[um^2]	[MPa]	[MPa]
788	1.000000	0.002738	7.37276e+06	-39539.1	1055.82	-29793.5	0.000000	0.000000	6.002811	0.085079	NaN	0.000000	0.001622	0.001695	28.0836	0.060373	0.000985	61.2878	-113.905	-175.988	0.081182	0.001478	-1.083239	-1.084499	0.085079	61.2878	-1.084280	-3.083172E+14	-2.759465E-16	NaN
788	1.000000	0.012813	7.37276e+06	-39539.1	1055.82	-29793.5	0.000000	0.000000	6.012883	0.021211	NaN	0.000000	0.001577	0.001693	28.0835	0.038922	0.001372	28.3606	146.372	13.8569	-0.086061	0.011315	-1.073164	-1.074661	0.021211	28.3606	-1.073725	-2.224466E+14	-9.535178E-17	NaN
788	1.000000	0.022656	7.37276e+06	-39539.1	1055.82	-29793.5	0.000000	0.000000	6.022727	0.028312	NaN	0.000000	0.001597	0.001714	28.0822	0.058730	0.001693	34.6834	68.0663	-164.047	-0.004556	0.021354	-1.063321	-1.064623	0.028312	34.6834	-1.063933	-1.643129E+14	-1.723065E-16	NaN
788	1.000000	0.032657	7.37276e+06	-39539.1	1055.82	-29793.5	0.000000	0.000000	6.032724	-0.045137	NaN	0.000000	0.001589	0.001676	28.0826	0.061140	0.002016	30.332	99.179	13.4833	0.020029	0.031296	-1.053320	-1.054680	-0.045137	30.332	-1.052204	-1.142986E+14	3.949019E-16	NaN
788	1.000000	0.042681	7.37276e+06	-39539.1	1055.82	-29793.5	0.000000	0.000000	6.042751	0.022259	NaN	0.000000	0.001576	0.001682	28.0827	0.037232	0.001785	20.8593	-103.677	-166.481	-0.009671	0.041371	-1.043296	-1.044606	0.022259	20.8593	-1.044097	-8.893027E+13	-2.502935E-16	NaN
788	1.000000	0.052668	7.37276e+06	-39539.1	1055.82	-29793.5	0.000000	0.000000	6.052741	0.072959	NaN	0.000000	0.001597	0.001681	28.0824	0.046846	0.001940	24.146	163.154	15.2119	0.042526	0.051348	-1.033308	-1.034629	0.072959	24.146	-1.035575	-6.830557E+13	-1.068128E-15	NaN
788	1.000000	0.062695	7.37276e+06	-39539.1	1055.82	-29793.5	0.000000	0.000000	6.062768	0.076280	NaN	0.000000	0.001608	0.001678	28.0824	0.045033	0.001940	23.2155	148.758	-163.894	0.112216	0.061380	-1.023281	-1.024596	0.076280	23.2155	-1.025746	-5.037956E+13	-1.514110E-15	NaN
788	1.000000	0.072680	7.37276e+06	-39539.1	1055.82	-29793.5	0.000000	0.000000	6.072751	0.033315	NaN	0.000000	0.001587	0.001704	28.0825	0.054239	0.002088	25.9801	-73.7274	15.7789	0.050443	0.071327	-1.013296	-1.014649	0.033315	25.9801	-1.014258	-3.529316E+13	-9.439459E-16	NaN
788	1.000000	0.082678	7.37276e+06	-39539.1	1055.82	-29793.5	0.000000	0.000000	6.082748	0.024812	NaN	0.000000	0.001584	0.001682	28.0825	0.068547	0.002018	33.9608	-70.2166	-165.066	-0.021415	0.081367	-1.003299	-1.004610	0.024812	33.9608	-1.003847	-2.555987E+13	-9.707474E-16	NaN
788	1.000000	0.092679	7.37276e+06	-39539.1	1055.82	-29793.5	0.000000	0.000000	6.092750	0.024503	NaN	0.000000	0.001597	0.001679	28.0824	0.058682	0.001925	30.4788	163.906	15.4207	0.039499	0.091378	-0.993298	-0.994599	0.024503	30.4788	-0.993900	-1.877759E+13	-1.304901E-15	NaN
788	1.000000	0.102732	7.37276e+06	-39539.1	1055.82	-29793.5	0.000000	0.000000	6.102803	0.043482	NaN	0.000000	0.001570	0.001701	28.0824	0.108002	0.001831	58.997	-61.0929	-164.81	-0.058708	0.101439	-0.983245	-0.984538	0.043482	58.997	-0.983797	-1.372669E+13	-3.167712E-15	NaN
788	1.000000	0.112706	7.37276e+06	-39539.1	1055.82	-29793.5	0.000000	0.000000	6.112774	-0.015752	NaN	0.000000	0.001579	0.001687	28.0828	0.092497	0.001980	46.7272	69.9799	17.8115	-0.026317	0.111373	-0.973271	-0.974603	-0.015752	46.7272	-0.973018	-9.825113E+12	1.603251E-15	NaN
788	1.000000	0.122697	7.37276e+06	-39539.1	1055.82	-29793.5	0.000000	0.000000	6.122767	0.007787	NaN	0.000000	0.001620	0.001658	28.0826	0.054473	0.002052	26.5444	13.5422	-166.174	0.000700	0.121414	-0.963280	-0.964563	0.007787	26.5444	-0.963500	-7.312233E+12	-1.064924E-15	NaN
788	1.000000	0.132690	7.37276e+06	-39539.1	1055.82	-29793.5	0.000000	0.000000	6.132757	-0.053044	NaN	0.000000	0.001557	0.001677	28.0829	0.093305	0.001867	49.9872	126.027	13.8162	-0.147434	0.131371	-0.953287	-0.954605	-0.053044	49.9872	-0.952491	-5.195387E+12	1.020985E-14	NaN
788	1.000000	0.142706	7.37276e+06	-39539.1	1055.82	-29793.5	0.000000	0.000000	6.142775	-0.017422	NaN	0.000000	0.001622	0.001654	28.0828	0.061091	0.001930	31.6458	-153.315	-162.627	-0.021289	0.141397	-0.943271	-0.944580	-0.017422	31.6458	-0.942858	-3.852038E+12	4.522692E-15	NaN
788	1.000000	0.152711	7.37276e+06	-39539.1	1055.82	-29793.5	0.000000	0.000000	6.152780	-0.003311	NaN	0.000000	0.001620	0.001645	28.0834	0.038094	0.001958	19.4588	-108.176	14.3189	-0.003490	0.151304	-0.933266	-0.934672	-0.003311	19.4588	-0.933138	-2.848059E+12	1.162445E-15	NaN
788	1.000000	0.162690	7.37276e+06	-39539.1	1055.82	-29793.5	0.000000	0.000000	6.162760	0.027862	NaN	0.000000	0.001650	0.001688	28.0839	0.124128	0.001934	64.1659	70.5435	-167.337	0.002912	0.161383	-0.923287	-0.924593	0.027862	64.1659	-0.923613	-2.118257E+12	-1.315317E-14	NaN
788	1.000000	0.172715	7.37276e+06	-39539.1	1055.82	-29793.5	0.000000	0.000000	6.172786	0.053960	NaN	0.000000	0.001671	0.001667	28.0837	0.062766	0.002082	30.1408	-29.3918	12.8537	0.106712	0.171336	-0.913262	-0.914641	0.053960	30.1408	-0.914605	-1.600853E+12	-3.370710E-14	NaN
788	1.000000	0.182724	7.37276e+06	-39539.1	1055.82	-29793.5	0.000000	0.000000	6.182795	0.039301	NaN	0.000000	0.001611	0.001688	28.0839	0.015634	0.002117	7.384197	-46.7614	-168.34	0.076361	0.181432	-0.903253	-0.904544	0.039301	7.384197	-0.907245	-1.273339E+12	-3.086446E-14	NaN
788	1.000000	0.192695	7.37276e+06	-39539.1	1055.82	-29793.5	0.000000	0.000000	6.192767	0.081914	NaN	0.000000	0.001576	0.001683	28.0842	0.036989	0.001960	18.8702	-38.5371	15.9408	0.075950	0.191392	-0.893282	-0.894585	0.081914	18.8702	-0.896538	-9.126010E+11	-8.975893E-14	NaN
788	1.000000	0.202747	7.37276e+06	-39539.1	1055.82	-29793.5	0.000000	0.000000	6.202816	0.005654	NaN	0.000000	0.001583	0.001663	28.0841	0.041796	0.001891	22.1074	-161.348	-166.274	0.016807	0.201449	-0.883230	-0.884527	0.005654	22.1074	-0.883422	-6.067103E+11	-9.318597E-15	NaN
788	1.000000	0.212759	7.37276e+06	-39539.1	1055.82	-29793.5	0.000000	0.000000	6.212831	0.045585	NaN	0.000000	0.001632	0.001688	28.084	0.060750	0.001989	30.5461	-18.8615	15.1396	0.020295	0.211379	-0.873217	-0.874598	0.045585	30.5461	-0.874337	-4.572058E+11	-9.970388E-14	NaN
788	1.000000	0.222759	7.37276e+06	-39539.1	1055.82	-29793.5	0.000000	0.000000	6.222827	-0.049108	NaN	0.000000	0.001632	0.001660	28.0842	0.043757	0.001903	22.9975	161.615	-167.925	-0.077295	0.221451	-0.863217	-0.864526	-0.049108	22.9975	-0.861616	-3.076045E+11	1.596465E-13	NaN
788	1.000000	0.232743	7.37276e+06	-39539.1	1055.82	-29793.5	0.000000	0.000000	6.232813	0.030202	NaN	0.000000	0.001635	0.001642	28.084	0.014213	0.001984	7.164958	136.923	12.8078	-0.071805	0.231382	-0.853234	-0.854595	0.030202	7.164958	-0.856395	-2.614141E+11	-1.155335E-13	NaN
788	1.000000	0.242782	7.37276e+06	-39539.1	1055.82	-29793.5	0.000000	0.000000	6.242849	-0.055121	NaN	0.000000	0.001641	0.001643	28.084	0.077033	0.001851	41.6128	94.5499	-168.382	0.012506	0.241471	-0.843195	-0.844505	-0.055121	41.6128	-0.842201	-1.679233E+11	3.282489E-13	NaN
788	1.000000	0.252783	7.37276e+06	-39539.1	1055.82	-29793.5	0.000000	0.000000	6.252853	0.027408	NaN	0.000000	0.001646	0.001645	28.0838	0.111497	0.002002	55.6973	142.628	14.4925	0.055326	0.251383	-0.833194	-0.834594	0.027408	55.6973	-0.833563	-1.282557E+11	-2.136986E-13	NaN
788	1.000000	0.262782	7.37276e+06	-39539.1	1055.82	-29793.5	0.000000	0.000000	6.262855	0.098821	NaN	0.000000	0.001662	0.001695	28.084	0.085138	0.002046	41.608	-154.227	-166.135	0.091898	0.261448	-0.823195	-0.824529	0.098821	41.608	-0.824976	-9.810402E+10	-1.007310E-12	NaN
788	1.000000	0.272784	7.37276e+06	-39539.1	1055.82	-29793.5	0.000000	0.000000	6.272854	0.002759	NaN	0.000000	0.001593	0.001663	28.0837	0.046396	0.002073	22.3849	-158.102	14.3912	0.017784	0.271421	-0.813193	-0.814556	0.002759	22.3849	-0.813285	-6.809854E+10	-4.051149E-14	NaN
788	1.000000	0.282773	7.37276e+06	-39539.1	1055.82	-29793.5	0.000000	0.000000	6.282843	0.007614	NaN	0.000000	0.001627	0.001657	28.0837	0.029208	0.002021	14.45	-169.462	-166.317	0.038576	0.281483	-0.803204	-0.804494	0.007614	14.45	-0.803599	-5.031639E+10	-1.513291E-13	NaN
788	1.000000	0.292762	7.37276e+06	-39539.1	1055.82	-29793.5	0.000000	0.000000	6.292835	0.085821	NaN	0.000000	0.001612	0.001670	28.0827	0.139242	0.001959	71.0914	-84.5821	12.8059	0.091639	0.291425	-0.793215	-0.794552	0.085821	71.0914	-0.794121	-3.741455E+10	-2.293789E-12	NaN
788	1.000000	0.302794	7.37276e+06	-39539.1	1055.82	-29793.5	0.000000	0.000000	6.302866	0.048738	NaN	0.000000	0.001609	0.001687	28.0828	0.042331	0.001873	22.5948	31.142	-166.032	-0.026990	0.301467	-0.783183	-0.784510	0.048738	22.5948	-0.784800	-2.795463E+10	-1.743469E-12	NaN
788	1.000000	0.312760	7.37276e+06	-39539.1	1055.82	-29793.5	0.000000	0.000000	6.312831	0.037315	NaN	0.000000	0.001642	0.001648	28.0828	0.096003	0.002026	47.3792	-158.044	15.1811	-0.044109	0.311426	-0.773217	-0.774550	0.037315	47.3792	-0.773807	-1.981833E+10	-1.882833E-12	NaN
788	1.000000	0.322781	7.37276e+06	-39539.1	1055.82	-29793.5	0.000000	0.000000	6.322851	0.012164	NaN	0.000000	0.001603	0.001680	28.0826	0.071170	0.001914	37.1749	68.461	-165.727	0.010933	0.321493	-0.763196	-0.764484	0.012164	37.1749	-0.763441	-1.432547E+10	-8.491235E-13	NaN
788	1.000000	0.332804	7.37276e+06	-39539.1	1055.82	-29793.5	0.000000	0.000000	6.332877	0.088513	NaN	0.000000	0.001575	0.001640	28.0828	0.139125	0.001960	70.9976	-71.1132	12.4079	-0.007851	0.331429	-0.753173	-0.754547	0.088513	70.9976	-0.754108	-1.069383E+10	-8.277027E-12	NaN
788	1.000000	0.342800	7.37276e+06	-39539.1	1055.82	-29793.5	0.000000	0.000000	6.342873	0.103028	NaN	0.000000	0.001566	0.001675	28.0828	0.051042	0.001945	26.2456	-146.091	-165.934	0.035668	0.341477	-0.743177	-0.744499	0.103028	26.2456	-0.746121	-8.325550E+9	-1.237493E-11	NaN
788	1.000000	0.352809	7.37276e+06	-39539.1	1055.82	-29793.5	0.000000	0.000000	6.352880	0.043760	NaN	0.000000	0.001600	0.001659	28.0827	0.155613	0.001971	78.9335	151.708	14.7823	0.022881	0.351480	-0.733168	-0.734497	0.043760	78.9335	-0.733583	-5.618769E+9	-7.788180E-12	NaN
788	1.000000	0.362858	7.37276e+06	-39539.1	1055.82	-29793.5	0.000000	0.000000	6.362930	0.068332	NaN	0.000000	0.001615	0.001688	28.0829	0.082196	0.002061	39.8832	-170.465	-163.714	0.017244	0.361436	-0.723119	-0.724540	0.068332	39.8832	-0.724404	-4.212317E+9	-1.622189E-11	NaN
788	1.000000	0.372818	7.37276e+06	-39539.1	1055.82	-29793.5	0.000000	0.000000	6.372888	0.013488	NaN	0.000000	0.001642	0.001654	28.0828	0.038926	0.002124	18.3282	-48.481	10.487	-0.024403	0.371451	-0.713159	-0.714526	0.013488	18.3282	-0.713711	-3.010807E+9	-4.479976E-12	NaN
788	1.000000	0.382822	7.37276e+06	-39539.1	1055.82	-29793.5	0.000000	0.000000	6.382891	-0.013547	NaN	0.000000	0.001633	0.001665	28.0829	0.073024	0.001983	36.8202	-174.74	-165.631	-0.039943	0.381512	-0.703155	-0.704464	-0.013547	36.8202	-0.702879	-2.142095E+9	6.324310E-12	NaN
788	1.000000	0.392791	7.37277e+06	-39539.1	1055.82	-29793.5	0.000000	0.000000	6.392861	0.029730	NaN	0.000000	0.001574	0.001614	28.0826	0.120120	0.001997	60.1583	-102.646	13.5482	0.032518	0.391391	-0.693186	-0.694585	0.029730	60.1583	-0.693557	-1.597783E+9	-1.860713E-11	NaN
788	1.000000	0.402808	7.37277e+06	-39539.1	1055.82	-29793.5	0.000000	0.000000	6.402878	-0.004512	NaN	0.000000	0.001598	0.001638	28.0832	0.049520	0.001975	25.0726	76.9539	-166.24	-0.037893	0.401490	-0.683168	-0.684487	-0.004512	25.0726	-0.683033	-1.147326E+9	3.932266E-12	NaN
788	1.000000	0.412843	7.37277e+06	-39539.1	1055.82	-29793.5	0.000000	0.000000	6.412914	0.038586	NaN	0.000000	0.001618	0.001646	28.0829	0.023888	0.001906	12.5302	-153.742	17.1597	0.058951	0.411487	-0.673133	-0.674490	0.038586	12.5302	-0.675443	-9.033812E+8	-4.271251E-11	NaN
788	1.000000	0.422812	7.37277e+06	-39539.1	1055.82	-29793.5	0.000000	0.000000	6.422881	-0.014047	NaN	0.000000	0.001626	0.001651	28.0829	0.122616	0.001995	61.4706	73.3475	-165.185	0.002695	0.421491	-0.663164	-0.664486	-0.014047	61.4706	-0.662993	-6.101849E+8	2.302054E-11	NaN
788	1.000000	0.432834	7.37277e+06	-39539.1	1055.82	-29793.5	0.000000	0.000000	6.432902	-0.030326	NaN	0.000000	0.001574	0.001660	28.084	0.056827	0.002089	27.2027	-149.331	14.1508	-0.055081	0.431462	-0.653143	-0.654515	-0.030326	27.2027	-0.652307	-4.355682E+8	6.962449E-11	NaN
788	1.000000	0.442848	7.37277e+06	-39539.1	1055.82	-29793.5	0.000000	0.000000	6.442916	-0.028883	NaN	0.000000	0.001619	0.001681	28.0844	0.084537	0.002034	41.5694	98.9634	-164.328	-0.052012	0.441542	-0.643129	-0.644435	-0.028883	41.5694	-0.642608	-3.206781E+8	9.006713E-11	NaN
788	1.000000	0.452866	7.37277e+06	-39539.1	1055.82	-29793.5	0.000000	0.000000	6.452939	0.091444	NaN	0.000000	0.001632	0.001673	28.0842	0.041693	0.002034	20.5013	105.535	12.5509	0.096366	0.451465	-0.633110	-0.634512	0.091444	20.5013	-0.636456	-2.640304E+8	-3.463402E-10	NaN
788	1.000000	0.462825	7.37277e+06	-39539.1	1055.82	-29793.5	0.000000	0.000000	6.462894	-0.013281	NaN	0.000000	0.001621	0.001688	28.0843	0.021597	0.002036	10.6064	-59.0035	-167.529	0.033544	0.461585	-0.623152	-0.624392	-0.013281	10.6064	-0.622213	-1.682840E+8	7.891919E-11	NaN
788	1.000000	0.472845	7.37277e+06	-39539.1	1055.82	-29793.5	0.000000	0.000000	6.472914	-0.027081	NaN	0.000000	0.001600	0.001667	28.0842	0.064035	0.002015	31.7773	24.5785	13.8321	-0.122508	0.471488	-0.613131	-0.614489	-0.027081	31.7773	-0.612492	-1.237084E+8	2.189110E-10	NaN
788	1.000000	0.482874	7.37277e+06	-39539.1	1055.82	-29793.5	0.000000	0.000000	6.482944	0.023157	NaN	0.000000	0.001568	0.001687	28.0843	0.010246	0.001971	5.198708	-11.1788	-165.856	0.060875	0.481568	-0.603103	-0.604408	0.023157	5.198708	-0.606444	-1.021362E+8	-2.267296E-10	NaN
788	1.000000	0.492872	7.37277e+06	-39539.1	1055.82	-29793.5	0.000000	0.000000	6.492939	-0.051471	NaN	0.000000	0.001548	0.001718	28.0838	0.051098	0.002062	24.7834	-118.229	13.8376	-0.030232	0.491508	-0.593105	-0.594469	-0.051471	24.7834	-0.591548	-6.367973E+7	8.082736E-10	NaN
788	1.000000	0.502880	7.37277e+06	-39539.1	1055.82	-29793.5	0.000000	0.000000	6.502948	-0.017513	NaN	0.000000	0.001541	0.001706	28.0838	0.117267	0.002050	57.1967	-178.121	-165.081	-0.044993	0.501593	-0.583097	-0.584384	-0.017513	57.1967	-0.582867	-4.833859E+7	3.622926E-10	NaN
788	1.000000	0.512880	7.37277e+06	-39539.1	1055.82	-29793.5	0.000000	0.000000	6.512951	0.050734	NaN	0.000000	0.001526	0.001658	28.0841	0.042785	0.002005	21.3369	61.3854	11.2793	0.058877	0.511505	-0.573097	-0.574472	0.050734	21.3369	-0.574880	-3.750105E+7	-1.352856E-9	NaN
788	1.000000	0.522874	7.37277e+06	-39539.1	1055.82	-29793.5	0.000000	0.000000	6.522943	-0.006875	NaN	0.000000	0.001476	0.001702	28.0838	0.034545	0.001975	17.488	59.0468	-168.04	-0.033179	0.521595	-0.563103	-0.564382	-0.006875	17.488	-0.562808	-2.553949E+7	2.692012E-10	NaN
788	1.000000	0.532880	7.37277e+06	-39539.1	1055.82	-29793.5	0.000000	0.000000	6.532950	0.018886	NaN	0.000000	0.001535	0.001672	28.0835	0.064989	0.001935	33.5914	56.6737	17.5879	-0.009583	0.531563	-0.553097	-0.554414	0.018886	33.5914	-0.553519	-1.899677E+7	-9.941760E-10	NaN
788	1.000000	0.542871	7.37277e+06	-39539.1	1055.82	-29793.5	0.000000	0.000000	6.542942	0.053042	NaN	0.000000	0.001531	0.001672	28.0834	0.057563	0.001962	29.3341	-129.837	-163.491	0.018216	0.541608	-0.543106	-0.544369	0.053042	29.3341	-0.544462	-1.423061E+7	-3.727310E-9	NaN
788	1.000000	0.552897	7.37277e+06	-39539.1	1055.82	-29793.5	0.000000	0.000000	6.552963	-0.072098	NaN	0.000000	0.001521	0.001659	28.0837	0.059684	0.002033	29.3593	-25.8931	11.8638	0.001326	0.551539	-0.533080	-0.534438	-0.072098	29.3593	-0.531238	-9.32765e+06	7.729532E-9	NaN
788	1.000000	0.562893	7.37277e+06	-39539.1	1055.82	-29793.5	0.000000	0.000000	6.562966	0.081736	NaN	0.000000	0.001526	0.001649	28.0828	0.077405	0.001992	38.8507	158.064	-164.068	0.081087	0.561584	-0.523083	-0.524393	0.081736	38.8507	-0.524661	-7.55793e+06	-1.081464E-8	NaN
788	1.000000	0.572918	7.37277e+06	-39539.1	1055.82	-29793.5	0.000000	0.000000	6.572987	-0.004011	NaN	0.000000	0.001545	0.001684	28.0823	0.061918	0.002072	29.876	-13.7489	13.1642	-0.016497	0.571521	-0.513059	-0.514456	-0.004011	29.876	-0.512958	-5.19531e+06	7.720353E-10	NaN
788	1.000000	0.582898	7.37277e+06	-39539.1	1055.82	-29793.5	0.000000	0.000000	6.582967	-0.014679	NaN	0.000000	0.001509	0.001660	28.0823	0.015374	0.002016	7.625588	-175.351	-164.445	-0.030351	0.581568	-0.503079	-0.504409	-0.014679	7.625588	-0.501635	-3.61264e+06	4.063245E-9	NaN
788	1.000000	0.592901	7.37277e+06	-39539.1	1055.82	-29793.5	0.000000	0.000000	6.592968	-0.056650	NaN	0.000000	0.001519	0.001658	28.0824	0.103350	0.001941	53.2471	60.4939	14.8589	0.052828	0.591580	-0.493076	-0.494397	-0.056650	53.2471	-0.492278	-2.67436e+06	2.118262E-8	NaN
788	1.000000	0.602917	7.37277e+06	-39539.1	1055.82	-29793.5	0.000000	0.000000	6.602986	0.002557	NaN	0.000000	0.001522	0.001696	28.0824	0.055619	0.002093	26.5737	-51.1778	-164.487	-0.073751	0.601634	-0.483060	-0.484343	0.002557	26.5737	-0.483132	-1.99235e+06	-1.283512E-9	NaN
788	1.000000	0.612899	7.37277e+06	-39539.1	1055.82	-29793.5	0.000000	0.000000	6.612968	-0.004499	NaN	0.000000	0.001570	0.001648	28.0822	0.140567	0.002022	69.5241	167.004	14.9002	0.039468	0.611575	-0.473078	-0.474402	-0.004499	69.5241	-0.473029	-1.4384e+06	3.127575E-9	NaN
788	1.000000	0.622914	7.37277e+06	-39539.1	1055.82	-29793.5	0.000000	0.000000	6.622987	0.088089	NaN	0.000000	0.001532	0.001636	28.0826	0.083474	0.002096	39.8213	167.728	-166.457	-0.032360	0.621635	-0.463063	-0.464342	0.088089	39.8213	-0.464722	-1.09988e+06	-8.008962E-8	NaN
788	1.000000	0.632927	7.37277e+06	-39539.1	1055.82	-29793.5	0.000000	0.000000	6.632995	-0.029016	NaN	0.000000	0.001591	0.001651	28.0825	0.016966	0.001817	9.337559	-1.739323	15.3835	-0.007711	0.631536	-0.453050	-0.454441	-0.029016	9.337559	-0.450720	-698997	4.151150E-8	NaN
788	1.000000	0.642919	7.37277e+06	-39539.1	1055.82	-29793.5	0.000000	0.000000	6.642987	-0.030672	NaN	0.000000	0.001550	0.001664	28.0827	0.105782	0.002128	49.7012	118.894	-170.802	-0.037383	0.641593	-0.443058	-0.444383	-0.030672	49.7012	-0.442595	-537010	5.711619E-8	NaN
788	1.000000	0.652942	7.37277e+06	-39539.1	1055.82	-29793.5	0.000000	0.000000	6.653011	-0.010336	NaN	0.000000	0.001592	0.001644	28.0824	0.068376	0.001931	35.4148	-29.6652	14.893	-0.030564	0.651593	-0.433035	-0.434384	-0.010336	35.4148	-0.432816	-390737	2.645282E-8	NaN
788	1.000000	0.662904	7.37277e+06	-39539.1	1055.82	-29793.5	0.000000	0.000000	6.662973	-0.009696	NaN	0.000000	0.001576	0.001703	28.0827	0.187757	0.001979	94.8589	67.3361	-166.567	0.030533	0.661663	-0.423073	-0.424314	-0.009696	94.8589	-0.422996	-283721	3.417463E-8	NaN
788	1.000000	0.672957	7.37277e+06	-39539.1	1055.82	-29793.5	0.000000	0.000000	6.673028	0.032184	NaN	0.000000	0.001581	0.001694	28.0823	0.082064	0.002009	40.8476	-25.3157	13.1095	-0.023602	0.671549	-0.413020	-0.414427	0.032184	40.8476	-0.413611	-208797	-1.541381E-7	NaN
788	1.000000	0.682948	7.37277e+06	-39539.1	1055.82	-29793.5	0.000000	0.000000	6.683014	-0.058605	NaN	0.000000	0.001582	0.001688	28.0825	0.051557	0.002094	24.6263	-143.875	-166.042	-0.005309	0.681632	-0.403029	-0.404345	-0.058605	24.6263	-0.401244	-139232	4.209140E-7	NaN
788	1.000000	0.692928	7.37277e+06	-39539.1	1055.82	-29793.5	0.000000	0.000000	6.692997	-0.007109	NaN	0.000000	0.001623	0.001669	28.0822	0.014537	0.001966	7.395240	28.4014	15.7642	0.082499	0.691594	-0.393049	-0.394383	-0.007109	7.395240	-0.392328	-103862	6.844309E-8	NaN
788	1.000000	0.702960	7.37277e+06	-39539.1	1055.82	-29793.5	0.000000	0.000000	6.703029	-0.005010	NaN	0.000000	0.001593	0.001647	28.084	0.083184	0.001865	44.6058	94.666	-170.009	-0.013218	0.701634	-0.383017	-0.384342	-0.005010	44.6058	-0.382933	-76200	6.575193E-8	NaN
788	1.000000	0.712957	7.37277e+06	-39539.1	1055.82	-29793.5	0.000000	0.000000	6.713026	0.003041	NaN	0.000000	0.001526	0.001635	28.0837	0.060620	0.001969	30.7878	-142.561	13.9519	-0.036808	0.711576	-0.373020	-0.374401	0.003041	30.7878	-0.373094	-55038.1	-5.524720E-8	NaN
788	1.000000	0.722920	7.37277e+06	-39539.1	1055.82	-29793.5	0.000000	0.000000	6.722989	-0.003056	NaN	0.000000	0.001580	0.001658	28.0837	0.033770	0.002040	16.5546	54.1816	-162.65	-0.066927	0.721628	-0.363057	-0.364349	-0.003056	16.5546	-0.362919	-39265.8	7.781988E-8	NaN
788	1.000000	0.732966	7.37277e+06	-39539.1	1055.82	-29793.5	0.000000	0.000000	6.733037	0.041140	NaN	0.000000	0.001618	0.001631	28.0835	0.103576	0.001944	53.2703	-160.053	12.8218	0.040140	0.731627	-0.353011	-0.354349	0.041140	53.2703	-0.353590	-28778.3	-1.429537E-6	NaN
788	1.000000	0.742968	7.37277e+06	-39539.1	1055.82	-29793.5	0.000000	0.000000	6.743039	0.040821	NaN	0.000000	0.001580	0.001626	28.0837	0.155667	0.001997	77.9565	-8.261637	-168.409	0.011531	0.741626	-0.343009	-0.344350	0.040821	77.9565	-0.343402	-20469.5	-1.994245E-6	NaN
788	1.000000	0.752987	7.37277e+06	-39539.1	1055.82	-29793.5	0.000000	0.000000	6.753059	0.056831	NaN	0.000000	0.001569	0.001659	28.0835	0.079466	0.001975	40.2341	-35.0736	14.2098	0.031293	0.751600	-0.332989	-0.334377	0.056831	40.2341	-0.334049	-14951.6	-3.800993E-6	NaN
788	1.000000	0.762992	7.37277e+06	-39539.1	1055.82	-29793.5	0.000000	0.000000	6.763062	-0.006939	NaN	0.000000	0.001587	0.001642	28.0834	0.069658	0.001953	35.6749	63.4799	-171.604	0.021576	0.761620	-0.322984	-0.324357	-0.006939	35.6749	-0.322838	-10242	6.775440E-7	NaN
788	1.000000	0.772984	7.37277e+06	-39539.1	1055.82	-29793.5	0.000000	0.000000	6.773051	-0.067758	NaN	0.000000	0.001593	0.001675	28.0836	0.099549	0.002001	49.7476	-109.271	11.1047	-0.077279	0.771589	-0.312993	-0.314388	-0.067758	49.7476	-0.311971	-7082.89	9.566404E-6	NaN
788	1.000000	0.782995	7.37277e+06	-39539.1	1055.82	-29793.5	0.000000	0.000000	6.783062	-0.058913	NaN	0.000000	0.001564	0.001691	28.0834	0.107376	0.002013	53.3499	-36.9387	-165	-0.071703	0.781658	-0.302982	-0.304319	-0.058913	53.3499	-0.302154	-5066.1	1.162882E-5	NaN
788	1.000000	0.793001	7.37277e+06	-39539.1	1055.82	-29793.5	0.000000	0.000000	6.793072	0.032854	NaN	0.000000	0.001592	0.001695	28.0834	0.166820	0.002034	82.0146	-70.5977	16.2629	-0.051985	0.791657	-0.292976	-0.294320	0.032854	82.0146	-0.293276	-3735.38	-8.795444E-6	NaN
788	1.000000	0.803010	7.37277e+06	-39539.1	1055.82	-29793.5	0.000000	0.000000	6.803081	0.044882	NaN	0.000000	0.001529	0.001677	28.0834	0.073842	0.001996	36.9913	-131.211	-167.175	0.027212	0.801700	-0.282967	-0.284277	0.044882	36.9913	-0.283877	-2700.09	-1.662249E-5	NaN
788	1.000000	0.812995	7.37277e+06	-39539.1	1055.82	-29793.5	0.000000	0.000000	6.813066	0.042798	NaN	0.000000	0.001592	0.001693	28.0837	0.092272	0.001886	48.935	85.3665	14.06	0.021696	0.811618	-0.272981	-0.274358	0.042798	48.935	-0.273637	-1891.28	-2.262917E-5	NaN
788	1.000000	0.823003	7.37277e+06	-39539.1	1055.82	-29793.5	0.000000	0.000000	6.823078	0.126666	NaN	0.000000	0.001567	0.001699	28.0835	0.097241	0.001928	50.4332	118.566	-166.251	0.109648	0.821671	-0.262974	-0.264306	0.126666	50.4332	-0.264857	-1390.63	-9.108557E-5	NaN
788	1.000000	0.833018	7.37277e+06	-39539.1	1055.82	-29793.5	0.000000	0.000000	6.833085	-0.037421	NaN	0.000000	0.001577	0.001710	28.0836	0.024776	0.001991	12.4448	-107.104	13.8564	-0.028520	0.831607	-0.252959	-0.254370	-0.037421	12.4448	-0.250704	-843.043	4.438755E-5	NaN
788	1.000000	0.842981	7.37277e+06	-39539.1	1055.82	-29793.5	0.000000	0.000000	6.843050	-0.009914	NaN	0.000000	0.001572	0.001713	28.0822	0.046608	0.001968	23.6826	158.046	-169.638	0.031269	0.841713	-0.242995	-0.244264	-0.009914	23.6826	-0.242681	-632.961	1.566350E-5	NaN
788	1.000000	0.853026	7.37277e+06	-39539.1	1055.82	-29793.5	0.000000	0.000000	6.853096	0.026177	NaN	0.000000	0.001554	0.001705	28.0822	0.063296	0.002021	31.3179	-130.068	13.2569	-0.052486	0.851685	-0.232951	-0.234291	0.026177	31.3179	-0.233578	-455.935	-5.741453E-5	NaN
788	1.000000	0.863040	7.37277e+06	-39539.1	1055.82	-29793.5	0.000000	0.000000	6.863109	-0.007775	NaN	0.000000	0.001566	0.001712	28.0819	0.023390	0.002094	11.1711	-24.3558	-166.905	-0.004793	0.861710	-0.222937	-0.224267	-0.007775	11.1711	-0.222415	-303.537	2.561631E-5	NaN
788	1.000000	0.873015	7.37277e+06	-39539.1	1055.82	-29793.5	0.000000	0.000000	6.873084	-0.010587	NaN	0.000000	0.001586	0.001728	28.0822	0.155241	0.002092	74.2179	-51.2348	12.4931	-0.025869	0.871712	-0.212962	-0.214265	-0.010587	74.2179	-0.212855	-213.283	4.963826E-5	NaN
788	1.000000	0.883027	7.37277e+06	-39539.1	1055.82	-29793.5	0.000000	0.000000	6.883097	0.026751	NaN	0.000000	0.001617	0.001701	28.0822	0.096572	0.001979	48.7938	-92.0943	-163.694	0.012030	0.881691	-0.202950	-0.204286	0.026751	48.7938	-0.203361	-149.552	-0.000179	NaN
788	1.000000	0.893048	7.37277e+06	-39539.1	1055.82	-29793.5	0.000000	0.000000	6.893120	0.060557	NaN	0.000000	0.001641	0.001703	28.0822	0.098991	0.001988	49.7972	89.8052	14.8934	0.113736	0.891678	-0.192929	-0.194299	0.060557	49.7972	-0.193841	-104.227	-0.000581	NaN
788	1.000000	0.903026	7.37277e+06	-39539.1	1055.82	-29793.5	0.000000	0.000000	6.903098	0.057520	NaN	0.000000	0.001688	0.001704	28.082	0.117347	0.001999	58.6956	-112.063	-160.607	0.032547	0.901752	-0.182951	-0.184225	0.057520	58.6956	-0.183686	-70.4617	-0.000816	NaN
788	1.000000	0.913048	7.37277e+06	-39539.1	1055.82	-29793.5	0.000000	0.000000	6.913116	-0.052935	NaN	0.000000	0.001638	0.001703	28.0823	0.104412	0.001938	53.8877	149.331	14.8071	0.034208	0.911697	-0.172928	-0.174280	-0.052935	53.8877	-0.172192	-44.8314	0.001181	NaN
788	1.000000	0.923035	7.37277e+06	-39539.1	1055.82	-29793.5	0.000000	0.000000	6.923103	-0.024949	NaN	0.000000	0.001625	0.001746	28.0823	0.011450	0.002003	5.715243	-167.718	-167.143	-0.061783	0.921701	-0.162942	-0.164276	-0.024949	5.715243	-0.159668	-27.0446	0.000923	NaN
788	1.000000	0.933061	7.37277e+06	-39539.1	1055.82	-29793.5	0.000000	0.000000	6.933130	-0.004458	NaN	0.000000	0.001582	0.001732	28.0822	0.036111	0.002004	18.0195	-12.8034	15.8556	0.032821	0.931630	-0.152916	-0.154347	-0.004458	18.0195	-0.152731	-20.3059	0.000220	NaN
788	1.000000	0.943072	7.37277e+06	-39539.1	1055.82	-29793.5	0.000000	0.000000	6.943145	0.066256	NaN	0.000000	0.001619	0.001737	28.0822	0.082922	0.001875	44.219	156.829	-167.719	-0.015769	0.941668	-0.142904	-0.144309	0.066256	44.219	-0.144028	-14.0657	-0.004710	NaN
788	1.000000	0.953063	7.37277e+06	-39539.1	1055.82	-29793.5	0.000000	0.000000	6.953134	0.038625	NaN	0.000000	0.001625	0.001712	28.0823	0.074388	0.002036	36.5412	-153.48	15.4727	0.023270	0.951674	-0.132914	-0.134303	0.038625	36.5412	-0.133706	-8.985468	-0.004299	NaN
788	1.000000	0.963066	7.37277e+06	-39539.1	1055.82	-29793.5	0.000000	0.000000	6.963134	-0.027026	NaN	0.000000	0.001648	0.001710	28.0821	0.040888	0.001997	20.4753	77.1063	-165.69	0.008270	0.961728	-0.122911	-0.124248	-0.027026	20.4753	-0.121921	-5.280754	0.005118	NaN
788	1.000000	0.973062	7.37277e+06	-39539.1	1055.82	-29793.5	0.000000	0.000000	6.973133	0.036465	NaN	0.000000	0.001637	0.001766	28.083	0.037616	0.002068	18.1883	-112.045	13.1132	0.042387	0.971708	-0.112915	-0.114269	0.036465	18.1883	-0.114418	-3.716176	-0.009812	NaN
788	1.000000	0.983087	7.37277e+06	-39539.1	1055.82	-29793.5	0.000000	0.000000	6.983154	-0.059626	NaN	0.000000	0.001636	0.001777	28.0833	0.139068	0.002083	66.7752	153.912	-167.621	-0.044564	0.981802	-0.102889	-0.104175	-0.059626	66.7752	-0.102220	-2.044984	0.029157	NaN
788	1.000000	0.993065	7.37277e+06	-39539.1	1055.82	-29793.5	0.000000	0.000000	6.993132	-0.058901	NaN	0.000000	0.001644	0.001782	28.0834	0.133593	0.002027	65.9146	69.252	17.6718	0.049848	0.991687	-0.092912	-0.094289	-0.058901	65.9146	-0.092242	-1.219175	0.048312	NaN
788	1.000000	1.003093	7.37277e+06	-39539.1	1055.82	-29793.5	0.000000	0.000000	7.003161	-0.054269	NaN	0.000000	0.001596	0.001784	28.0833	0.048672	0.001978	24.6052	87.8143	-164.611	-0.028615	1.001797	-0.082883	-0.084180	-0.054269	24.6052	-0.081229	-0.664197	0.081705	NaN
788	1.000000	1.013078	7.37277e+06	-39539.1	1055.82	-29793.5	0.000000	0.000000	7.013148	0.019617	NaN	0.000000	0.001683	0.001774	28.0833	0.064535	0.001969	32.7691	-124.001	10.554	0.020046	1.011639	-0.072899	-0.074338	0.019617	32.7691	-0.073348	-0.418353	-0.046892	NaN
788	1.000000	1.023069	7.37277e+06	-39539.1	1055.82	-29793.5	0.000000	0.000000	7.023137	-0.032767	NaN	0.000000	0.001653	0.001708	28.0834	0.069624	0.002021	34.4517	-174.576	-166.912	-0.055044	1.021790	-0.062907	-0.064187	-0.032767	34.4517	-0.062194	-0.207963	0.157563	NaN
788	1.000000	1.033082	7.37277e+06	-39539.1	1055.82	-29793.5	0.000000	0.000000	7.033153	0.045761	NaN	0.000000	0.001610	0.001689	28.0836	0.049828	0.001951	25.5433	-132.748	15.4763	0.057174	1.031715	-0.052895	-0.054262	0.045761	25.5433	-0.054238	-0.122258	-0.374299	NaN
788	1.000000	1.043100	7.37277e+06	-39539.1	1055.82	-29793.5	0.000000	0.000000	7.043171	0.058370	NaN	0.000000	0.001674	0.001718	28.0834	0.080591	0.002187	36.8439	-47.2657	-165.31	-0.010071	1.041812	-0.042877	-0.044164	0.058370	36.8439	-0.044065	-0.060174	-0.970024	NaN
788	1.000000	1.053095	7.37277e+06	-39539.1	1055.82	-29793.5	0.000000	0.000000	7.053162	-0.042577	NaN	0.000000	0.001671	0.001707	28.0833	0.055112	0.002042	26.9869	173.655	11.4145	-0.066619	1.051728	-0.032882	-0.034248	-0.042577	26.9869	-0.031699	-0.025693	1.657119	NaN
788	1.000000	1.063079	7.37277e+06	-39539.1	1055.82	-29793.5	0.000000	0.000000	7.063147	-0.030723	NaN	0.000000	0.001645	0.001688	28.0834	0.074438	0.001953	38.1078	136.383	-167.762	-0.049493	1.061810	-0.022898	-0.024167	-0.030723	38.1078	-0.022293	-0.014366	2.138592	NaN
788	1.000000	1.073088	7.37277e+06	-39539.1	1055.82	-29793.5	0.000000	0.000000	7.073155	-0.039352	NaN	0.000000	0.001662	0.001692	28.0832	0.049756	0.002238	22.2282	120.011	12.3861	-0.011244	1.071740	-0.012889	-0.014236	-0.039352	22.2282	-0.011561	-0.007278	5.406861	NaN
788	1.000000	1.083121	7.37277e+06	-39539.1	1055.82	-29793.5	0.000000	0.000000	7.083190	0.009195	NaN	0.000000	0.001659	0.001698	28.0833	0.068376	0.001979	34.5586	-166.357	-165.743	0.074450	1.081770	-0.002856	-0.004206	0.009195	34.5586	-0.003056	-0.002158	-4.261224	NaN
788	1.000000	1.093032	7.37277e+06	-39539.1	1055.82	-29793.5	0.000000	0.000000	7.093454	8.578377	NaN	0.000000	0.001659	0.001707	28.0832	6.907884	0.001902	3632.28	12.3359	6.440859	6.470262	1.091709	0.007055	0.005732	8.578377	3632.28	0.005284	0.004394	1952.35	50064.4
788	2.000000	1.096616	7.37277e+06	-39539.1	1055.82	-29793.5	0.000000	0.000000	7.097120	10.5757	NaN	0.000000	0.001657	0.001747	28.0836	9.338515	0.001644	5680.63	2.320854	-169.892	10.5209	1.096261	0.010639	0.010284	10.5757	5680.63	0.009243	0.008352	1266.19	56789
788	2.000000	1.099048	7.37277e+06	-39539.1	1055.82	-29793.5	0.000000	0.000000	7.099601	11.7785	NaN	0.000000	0.001622	0.001767	28.0819	11.9503	0.001725	6926.8	6.586377	4.461398	10.2374	1.098666	0.013071	0.012689	11.7785	6926.8	0.011796	0.011246	1047.32	59676.1
788	2.000000	1.101585	7.37277e+06	-39539.1	1055.82	-29793.5	0.000000	0.000000	7.102262	14.7804	NaN	0.000000	0.001628	0.001751	28.0823	13.6921	0.001755	7802.32	7.185609	-174.177	16.7154	1.101325	0.015608	0.015348	14.7804	7802.32	0.014188	0.014217	1039.6	59784.3
788	2.000000	1.104064	7.37277e+06	-39539.1	1055.82	-29793.5	0.000000	0.000000	7.104879	18.1597	NaN	0.000000	0.001652	0.001776	28.0821	16.4895	0.001773	9302.39	5.434119	3.327532	16.5785	1.103678	0.018087	0.017701	18.1597	9302.39	0.016623	0.017511	1037.07	64227
788	2.000000	1.106608	7.37277e+06	-39539.1	1055.82	-29793.5	0.000000	0.000000	7.107557	21.4031	NaN	0.000000	0.001672	0.001739	28.0826	18.21	0.001774	10265.7	9.957157	-179.887	22.4664	1.106217	0.020632	0.020240	21.4031	10265.7	0.019068	0.021099	1014.43	64570.6
788	2.000000	1.108991	7.37277e+06	-39539.1	1055.82	-29793.5	0.000000	0.000000	7.110230	28.4787	NaN	0.000000	0.001620	0.001753	28.0823	20.6552	0.001707	12097.9	4.675804	2.523003	25.6885	1.108627	0.023014	0.022651	28.4787	12097.9	0.021248	0.024542	1160.4	70555.3
788	2.000000	1.111509	7.37277e+06	-39539.1	1055.82	-29793.5	0.000000	0.000000	7.112774	29.0892	NaN	0.000000	0.001622	0.001742	28.0827	23.4035	0.001853	12627.8	3.915080	-175.21	27.3978	1.111236	0.025532	0.025260	29.0892	12627.8	0.023805	0.028877	1007.35	67893
788	2.000000	1.114007	7.37277e+06	-39539.1	1055.82	-29793.5	0.000000	0.000000	7.115518	35.0747	NaN	0.000000	0.001652	0.001745	28.0827	25.86	0.001814	14256.7	8.667436	-1.622187	33.1892	1.113638	0.028030	0.027661	35.0747	14256.7	0.026185	0.033207	1056.25	71479
788	2.000000	1.116501	7.37277e+06	-39539.1	1055.82	-29793.5	0.000000	0.000000	7.118236	40.5309	NaN	0.000000	0.001644	0.001750	28.0827	27.3243	0.001871	14605.4	3.266466	-176.325	40.5861	1.116277	0.030524	0.030300	40.5309	14605.4	0.028443	0.037578	1078.58	68836.6
788	2.000000	1.119004	7.37277e+06	-39539.1	1055.82	-29793.5	0.000000	0.000000	7.120918	44.8946	NaN	0.000000	0.001643	0.001729	28.0826	30.2066	0.001826	16544.3	7.349170	-0.624298	43.7005	1.118675	0.033027	0.032698	44.8946	16544.3	0.030992	0.042825	1048.32	73042
788	2.000000	1.121468	7.37277e+06	-39539.1	1055.82	-29793.5	0.000000	0.000000	7.123657	51.6051	NaN	0.000000	0.001666	0.001758	28.0829	33.3037	0.001837	18132.7	8.899603	175.429	49.3451	1.121241	0.035491	0.035264	51.6051	18132.7	0.033356	0.047988	1075.38	75626.1
788	2.000000	1.124006	7.37277e+06	-39539.1	1055.82	-29793.5	0.000000	0.000000	7.126729	64.5662	NaN	0.000000	0.001631	0.001744	28.0825	34.9932	0.001827	19158.2	5.404482	-1.596549	62.7262	1.123637	0.038029	0.037660	64.5662	19158.2	0.035502	0.052921	1220.06	76087.9
788	2.000000	1.126519	7.37277e+06	-39539.1	1055.82	-29793.5	0.000000	0.000000	7.129575	72.6702	NaN	0.000000	0.001627	0.001772	28.0827	37.6049	0.001759	21375.7	6.750294	176.925	75.626	1.126180	0.040543	0.040203	72.6702	21375.7	0.037993	0.058944	1232.86	80440.2
788	2.000000	1.129014	7.37277e+06	-39539.1	1055.82	-29793.5	0.000000	0.000000	7.132409	80.93	NaN	0.000000	0.001625	0.001775	28.0821	40.3301	0.001852	21771.2	11.5376	-6.960146	84.1262	1.128555	0.043037	0.042578	80.93	21771.2	0.040249	0.064674	1251.35	78215
788	2.000000	1.131536	7.37277e+06	-39539.1	1055.82	-29793.5	0.000000	0.000000	7.135492	94.5943	NaN	0.000000	0.001641	0.001773	28.083	41.8219	0.001720	24319.5	10.7498	171.939	97.1854	1.131137	0.045559	0.045161	94.5943	24319.5	0.042642	0.071034	1331.68	83367.3
788	2.000000	1.134015	7.37277e+06	-39539.1	1055.82	-29793.5	0.000000	0.000000	7.138180	99.6636	NaN	0.000000	0.001643	0.001772	28.0835	43.7326	0.001744	25076.6	8.497504	-5.687657	97.8235	1.133551	0.048038	0.047575	99.6636	25076.6	0.045058	0.077751	1281.83	82165.5
788	2.000000	1.136454	7.37277e+06	-39539.1	1055.82	-29793.5	0.000000	0.000000	7.140937	107.42	NaN	0.000000	0.001656	0.001781	28.0837	46.0807	0.001740	26489.7	5.932094	175.296	106.909	1.136117	0.050477	0.050140	107.42	26489.7	0.047435	0.084651	1268.97	83182.8
788	2.000000	1.138920	7.37277e+06	-39539.1	1055.82	-29793.5	0.000000	0.000000	7.143912	119.809	NaN	0.000000	0.001626	0.001763	28.0832	49.0592	0.001775	27638.3	4.698044	-4.113723	117.65	1.138645	0.052943	0.052669	119.809	27638.3	0.049692	0.091463	1309.92	83495.5
788	2.000000	1.141471	7.37277e+06	-39539.1	1055.82	-29793.5	0.000000	0.000000	7.146932	131.199	NaN	0.000000	0.001633	0.001758	28.0839	51.6885	0.001796	28779.6	3.462252	176.829	130.871	1.141153	0.055495	0.055176	131.199	28779.6	0.052075	0.098936	1326.1	83595.1
788	2.000000	1.143960	7.37277e+06	-39539.1	1055.82	-29793.5	0.000000	0.000000	7.150082	147.269	NaN	0.000000	0.001530	0.001778	28.0834	52.962	0.001802	29387.5	4.988791	-4.563787	144.623	1.143605	0.057984	0.057628	147.269	29387.5	0.054225	0.105919	1390.4	82499
788	2.000000	1.146396	7.37277e+06	-39539.1	1055.82	-29793.5	0.000000	0.000000	7.152957	157.977	NaN	0.000000	0.001574	0.001757	28.0833	55.8396	0.001760	31729.6	5.161522	174.421	154.199	1.146081	0.060419	0.060104	157.977	31729.6	0.056685	0.114190	1383.46	85787.7
788	2.000000	1.148943	7.37277e+06	-39539.1	1055.82	-29793.5	0.000000	0.000000	7.155977	169.481	NaN	0.000000	0.001552	0.001700	28.0831	58.6792	0.001838	31918.7	5.384739	-5.472968	166.726	1.148580	0.062967	0.062603	169.481	31918.7	0.058984	0.122191	1387.02	83425.5
788	2.000000	1.151398	7.37277e+06	-39539.1	1055.82	-29793.5	0.000000	0.000000	7.158928	181.552	NaN	0.000000	0.001616	0.001701	28.0837	61.3558	0.001711	35859.3	1.447083	176.329	178.484	1.151153	0.065422	0.065176	181.552	35859.3	0.061624	0.131698	1378.55	90278.9
788	2.000000	1.153969	7.37277e+06	-39539.1	1055.82	-29793.5	0.000000	0.000000	7.162199	198.59	NaN	0.000000	0.001630	0.001721	28.083	64.6292	0.001797	35959.7	8.717180	-10.0903	196.517	1.153565	0.067992	0.067588	198.59	35959.7	0.063851	0.139977	1418.73	87813.6
788	2.000000	1.156441	7.37277e+06	-39539.1	1055.82	-29793.5	0.000000	0.000000	7.165326	214.523	NaN	0.000000	0.001657	0.001725	28.0833	66.6386	0.001840	36224.1	5.824101	173.219	214.175	1.156096	0.070464	0.070119	214.523	36224.1	0.066022	0.148285	1446.7	85945.4
788	2.000000	1.158937	7.37277e+06	-39539.1	1055.82	-29793.5	0.000000	0.000000	7.168274	225.535	NaN	0.000000	0.001640	0.001752	28.0831	70.257	0.001811	38803.5	6.242675	-8.658175	224.06	1.158631	0.072960	0.072655	225.535	38803.5	0.068601	0.158443	1423.45	89065.2
788	2.000000	1.161478	7.37277e+06	-39539.1	1055.82	-29793.5	0.000000	0.000000	7.171478	241.647	NaN	0.000000	0.001584	0.001726	28.0839	72.2466	0.001873	38567.4	4.570697	173.526	242.485	1.161237	0.075501	0.075260	241.647	38567.4	0.070802	0.167366	1443.82	86131
788	2.000000	1.164024	7.37277e+06	-39539.1	1055.82	-29793.5	0.000000	0.000000	7.174841	261.522	NaN	0.000000	0.001557	0.001763	28.0834	74.0597	0.001912	38727.3	4.461334	-6.268364	262.671	1.163607	0.078048	0.077630	261.522	38727.3	0.072983	0.176433	1482.27	84236.4
788	2.000000	1.166519	7.37277e+06	-39539.1	1055.82	-29793.5	0.000000	0.000000	7.177816	273.23	NaN	0.000000	0.001559	0.001759	28.0828	75.8452	0.001871	40542.5	4.464857	172.911	278.071	1.166204	0.080542	0.080227	273.23	40542.5	0.075488	0.187125	1460.15	85628.5
788	2.000000	1.168835	7.37277e+06	-39539.1	1055.82	-29793.5	0.000000	0.000000	7.181115	297.146	NaN	0.000000	0.001596	0.001777	28.0824	78.0217	0.001853	42097.6	2.986982	-5.818994	290.603	1.168511	0.082858	0.082534	297.146	42097.6	0.077564	0.196211	1514.42	86829.9
788	2.000000	1.171382	7.37277e+06	-39539.1	1055.82	-29793.5	0.000000	0.000000	7.183891	302.713	NaN	0.000000	0.001579	0.001738	28.0829	81.1981	0.001855	43783.5	6.010284	170.67	300.554	1.171229	0.085405	0.085253	302.713	43783.5	0.080219	0.208126	1454.47	87684.1
788	2.000000	1.173915	7.37277e+06	-39539.1	1055.82	-29793.5	0.000000	0.000000	7.187204	321.698	NaN	0.000000	0.001569	0.001742	28.0822	81.9522	0.001838	44581.3	4.840735	-7.785690	318.407	1.173598	0.087938	0.087621	321.698	44581.3	0.082526	0.218742	1470.67	87088.2
788	2.000000	1.176441	7.37277e+06	-39539.1	1055.82	-29793.5	0.000000	0.000000	7.190221	333.652	NaN	0.000000	0.001550	0.001736	28.0822	83.3532	0.001814	45959.1	5.058901	171.391	333.883	1.176133	0.090464	0.090156	333.652	45959.1	0.085019	0.230493	1447.56	87461.2
788	2.000000	1.178892	7.37277e+06	-39539.1	1055.82	-29793.5	0.000000	0.000000	7.193715	359.022	NaN	0.000000	0.001539	0.001753	28.0822	84.6761	0.001779	47608.5	1.173285	-4.556478	355.623	1.178524	0.092915	0.092547	359.022	47608.5	0.087259	0.241297	1487.89	88548.7
788	2.000000	1.181450	7.37277e+06	-39539.1	1055.82	-29793.5	0.000000	0.000000	7.196723	369.984	NaN	0.000000	0.001548	0.001737	28.0823	88.7074	0.001811	48991.1	6.451054	170.174	372.392	1.181111	0.095473	0.095134	369.984	48991.1	0.089809	0.253874	1457.35	88834.4
788	2.000000	1.183801	7.37277e+06	-39539.1	1055.82	-29793.5	0.000000	0.000000	7.199772	386.964	NaN	0.000000	0.001549	0.001737	28.0821	89.9928	0.001785	50411.1	4.601731	-8.704727	377.962	1.183472	0.097824	0.097495	386.964	50411.1	0.092067	0.265263	1458.79	89425.3
788	2.000000	1.186346	7.37277e+06	-39539.1	1055.82	-29793.5	0.000000	0.000000	7.203108	406.211	NaN	0.000000	0.001589	0.001730	28.0823	91.4515	0.001802	50749.7	0.560822	175.423	401.856	1.186078	0.100370	0.100101	406.211	50749.7	0.094366	0.277100	1465.94	88082.3
788	2.000000	1.188941	7.37277e+06	-39539.1	1055.82	-29793.5	0.000000	0.000000	7.206309	420.945	NaN	0.000000	0.001604	0.001749	28.0825	96.2468	0.001909	50417.4	6.049473	-9.924095	420.616	1.188611	0.102965	0.102634	420.945	50417.4	0.096703	0.289374	1454.68	85629.7
788	2.000000	1.191374	7.37277e+06	-39539.1	1055.82	-29793.5	0.000000	0.000000	7.209639	442.786	NaN	0.000000	0.001635	0.001754	28.0825	97.8416	0.001844	53058.8	5.404061	170.166	440.814	1.191017	0.105397	0.105041	442.786	53058.8	0.099138	0.302434	1464.08	88148.6
788	2.000000	1.192929	7.37277e+06	-39539.1	1055.82	-29793.5	0.000000	0.000000	7.211665	454.235	NaN	0.000000	0.001658	0.001726	28.0824	98.3414	0.001724	57027.9	4.728202	-9.385881	452.938	1.192563	0.106952	0.106586	454.235	57027.9	0.100979	0.312480	1453.64	93207.2