File: remote_trans/data/nanoindenter/0828-1/data/Data_2025-08-06,11h17m57s/2025-07-22_16-23-58_1_240.txt
2025-07-22, 16:23:58, 1
Index	Phase	Displacement	Time	Pos X	Pos Y	Pos Z	Rot A	Rot B	Piezo Z	Force A	Force B	Gripper	Voltage A	Voltage B	Temperature	Amplitude force	Amplitude pos	Stiffness	Phase shift	Phase excitation	Force A raw	Displacement raw	HMax	HMax raw	Real Force	Real Stiffness	Contact Depth	Area	Hardness	Reduced Mod.
[#]	[#]	[um]	[s]	[um]	[um]	[um]	[m°]	[m°]	[um]	[uN]	[uN]	[V]	[V]	[V]	[°C]	[uN]	[um]	[N/m]	[°]	[°]	[uN]	[um]	[um]	[um]	[uN]	[N/m]	[um]	[um^2]	[MPa]	[MPa]
240	1.000000	0.002554	7.36739e+06	-50639.1	955.819	-29755.4	0.000000	0.000000	6.002801	0.001684	NaN	0.000000	0.001625	0.001622	28.079	0.014598	0.000900	16.212	128.145	-161.4	0.064808	0.001322	-1.081016	-1.082248	0.001684	16.212	-1.081094	-2.793895E+14	-6.025931E-18	NaN
240	1.000000	0.012617	7.36739e+06	-50639.1	955.819	-29755.4	0.000000	0.000000	6.012865	0.004646	NaN	0.000000	0.001618	0.001656	28.0785	0.097952	0.001258	77.8925	-121.813	17.9921	-0.069758	0.011130	-1.070953	-1.072439	0.004646	77.8925	-1.070997	-2.044504E+14	-2.272325E-17	NaN
240	1.000000	0.022489	7.36739e+06	-50639.1	955.818	-29755.4	0.000000	0.000000	6.022738	0.043398	NaN	0.000000	0.001607	0.001587	28.0786	0.046722	0.001693	27.5912	-16.8545	-166.956	0.042032	0.021241	-1.061081	-1.062329	0.043398	27.5912	-1.062260	-1.560258E+14	-2.781453E-16	NaN
240	1.000000	0.032488	7.36739e+06	-50639.1	955.818	-29755.4	0.000000	0.000000	6.032738	0.053644	NaN	0.000000	0.001599	0.001596	28.0788	0.078577	0.001938	40.5403	-36.6953	14.022	-0.024359	0.031111	-1.051082	-1.052459	0.053644	40.5403	-1.052074	-1.138399E+14	-4.712271E-16	NaN
240	1.000000	0.042514	7.36739e+06	-50639.1	955.818	-29755.4	0.000000	0.000000	6.042762	-0.006264	NaN	0.000000	0.001610	0.001632	28.0788	0.058171	0.001967	29.5706	13.7859	-164.595	-0.001340	0.041199	-1.041055	-1.042371	-0.006264	29.5706	-1.040897	-8.054206E+13	7.777746E-17	NaN
240	1.000000	0.052519	7.36739e+06	-50639.1	955.818	-29755.4	0.000000	0.000000	6.052765	-0.029967	NaN	0.000000	0.001575	0.001657	28.079	0.060685	0.001972	30.7666	-17.915	14.3085	-0.014170	0.051165	-1.031051	-1.032405	-0.029967	30.7666	-1.030320	-5.804789E+13	5.162381E-16	NaN
240	1.000000	0.062499	7.36739e+06	-50639.1	955.819	-29755.4	0.000000	0.000000	6.062747	0.000653	NaN	0.000000	0.001574	0.001677	28.0787	0.049223	0.001957	25.1548	-2.337697	-164.896	0.040281	0.061227	-1.021071	-1.022343	0.000653	25.1548	-1.021090	-4.361321E+13	-1.496747E-17	NaN
240	1.000000	0.072518	7.36739e+06	-50639.1	955.819	-29755.4	0.000000	0.000000	6.072768	0.036140	NaN	0.000000	0.001590	0.001696	28.0787	0.096789	0.002133	45.3748	166.762	13.6365	0.011619	0.071098	-1.011051	-1.012471	0.036140	45.3748	-1.011648	-3.255124E+13	-1.110257E-15	NaN
240	1.000000	0.082498	7.36739e+06	-50639.1	955.819	-29755.4	0.000000	0.000000	6.082744	-0.058610	NaN	0.000000	0.001593	0.001698	28.0774	0.074786	0.002007	37.2535	143.782	-164.6	0.015943	0.081208	-1.001071	-1.002362	-0.058610	37.2535	-0.999891	-2.261010E+13	2.592185E-15	NaN
240	1.000000	0.092515	7.36739e+06	-50639.1	955.818	-29755.4	0.000000	0.000000	6.092765	0.040647	NaN	0.000000	0.001602	0.001662	28.0774	0.031109	0.002036	15.2807	106.341	17.2197	0.020597	0.091129	-0.991054	-0.992440	0.040647	15.2807	-0.993049	-1.828832E+13	-2.222542E-15	NaN
240	1.000000	0.102510	7.36739e+06	-50639.1	955.819	-29755.4	0.000000	0.000000	6.102760	0.043130	NaN	0.000000	0.001532	0.001608	28.0774	0.102133	0.001945	52.5227	-166.163	-167.375	0.058616	0.101190	-0.981059	-0.982379	0.043130	52.5227	-0.981675	-1.285214E+13	-3.355861E-15	NaN
240	1.000000	0.112531	7.36739e+06	-50639.1	955.819	-29755.4	0.000000	0.000000	6.112781	0.044442	NaN	0.000000	0.001569	0.001643	28.0778	0.093736	0.001993	47.0327	124.477	14.0597	0.124318	0.111165	-0.971038	-0.972404	0.044442	47.0327	-0.971747	-9.445120E+12	-4.705257E-15	NaN
240	1.000000	0.122542	7.36739e+06	-50639.1	955.818	-29755.4	0.000000	0.000000	6.122790	0.007614	NaN	0.000000	0.001576	0.001661	28.0776	0.094491	0.001871	50.4969	57.541	-164.355	0.025993	0.121199	-0.961027	-0.962370	0.007614	50.4969	-0.961140	-6.795850E+12	-1.120456E-15	NaN
240	1.000000	0.132551	7.36739e+06	-50639.1	955.818	-29755.4	0.000000	0.000000	6.132802	0.062496	NaN	0.000000	0.001552	0.001610	28.0776	0.099453	0.001996	49.8284	-133.995	15.2827	0.000673	0.131127	-0.951018	-0.952443	0.062496	49.8284	-0.951959	-5.110259E+12	-1.222952E-14	NaN
240	1.000000	0.142530	7.36739e+06	-50639.1	955.819	-29755.4	0.000000	0.000000	6.142776	-0.023692	NaN	0.000000	0.001558	0.001622	28.0775	0.153530	0.001955	78.519	-92.2946	-163.232	-0.014270	0.141242	-0.941040	-0.942328	-0.023692	78.519	-0.940814	-3.615046E+12	6.553593E-15	NaN
240	1.000000	0.152552	7.36739e+06	-50639.1	955.818	-29755.4	0.000000	0.000000	6.152801	0.027057	NaN	0.000000	0.001614	0.001628	28.0777	0.023798	0.002113	11.265	-179.689	14.6611	-0.000121	0.151190	-0.931018	-0.932380	0.027057	11.265	-0.932819	-2.819966E+12	-9.594642E-15	NaN
240	1.000000	0.162562	7.36739e+06	-50639.1	955.817	-29755.4	0.000000	0.000000	6.162810	-0.013852	NaN	0.000000	0.001628	0.001658	28.0776	0.098245	0.001933	50.8188	-144.299	-164.844	-0.026653	0.161247	-0.921007	-0.922323	-0.013852	50.8188	-0.920803	-1.941081E+12	7.136222E-15	NaN
240	1.000000	0.172554	7.36739e+06	-50639.1	955.818	-29755.4	0.000000	0.000000	6.172802	0.011523	NaN	0.000000	0.001637	0.001638	28.0772	0.092831	0.001853	50.1009	0.807655	14.8903	0.023111	0.171189	-0.911016	-0.912381	0.011523	50.1009	-0.911188	-1.439491E+12	-8.004634E-15	NaN
240	1.000000	0.182540	7.36739e+06	-50639.1	955.819	-29755.4	0.000000	0.000000	6.182787	-0.022522	NaN	0.000000	0.001653	0.001639	28.0773	0.092031	0.001985	46.3572	-131.748	-162.447	-0.069815	0.181221	-0.901029	-0.902349	-0.022522	46.3572	-0.900665	-1.037649E+12	2.170523E-14	NaN
240	1.000000	0.192556	7.36739e+06	-50639.1	955.818	-29755.4	0.000000	0.000000	6.192802	-0.031302	NaN	0.000000	0.001678	0.001637	28.0772	0.051499	0.001817	28.3419	-89.0063	17.5188	0.098067	0.191197	-0.891014	-0.892372	-0.031302	28.3419	-0.890186	-7.489009E+11	4.179774E-14	NaN
240	1.000000	0.202553	7.36739e+06	-50639.1	955.818	-29755.4	0.000000	0.000000	6.202802	0.041800	NaN	0.000000	0.001667	0.001653	28.0774	0.035491	0.002001	17.7362	-81.9362	-167.885	4.258913E-5	0.201256	-0.881016	-0.882313	0.041800	17.7362	-0.882784	-5.947798E+11	-7.027866E-14	NaN
240	1.000000	0.212561	7.36739e+06	-50639.1	955.818	-29755.4	0.000000	0.000000	6.212813	0.104436	NaN	0.000000	0.001648	0.001594	28.0771	0.041009	0.001985	20.6629	13.8	15.8525	0.005426	0.211248	-0.871008	-0.872322	0.104436	20.6629	-0.874799	-4.638339E+11	-2.251575E-13	NaN
240	1.000000	0.222568	7.36739e+06	-50639.1	955.819	-29755.4	0.000000	0.000000	6.222816	-0.002044	NaN	0.000000	0.001644	0.001662	28.0786	0.092095	0.002020	45.5933	-171.169	-166.306	0.067322	0.221260	-0.861001	-0.862309	-0.002044	45.5933	-0.860967	-3.014493E+11	6.779260E-15	NaN
240	1.000000	0.232604	7.36739e+06	-50639.1	955.818	-29755.4	0.000000	0.000000	6.232852	0.008217	NaN	0.000000	0.001672	0.001629	28.0786	0.069704	0.001986	35.0972	-113.165	14.6808	-0.052067	0.231246	-0.850966	-0.852323	0.008217	35.0972	-0.851141	-2.219177E+11	-3.702738E-14	NaN
240	1.000000	0.242569	7.36739e+06	-50639.1	955.819	-29755.4	0.000000	0.000000	6.242819	0.055445	NaN	0.000000	0.001585	0.001637	28.0788	0.024467	0.002182	11.2154	-26.4917	-162.743	0.077901	0.241247	-0.841000	-0.842322	0.055445	11.2154	-0.844708	-1.815803E+11	-3.053492E-13	NaN
240	1.000000	0.252561	7.36739e+06	-50639.1	955.819	-29755.4	0.000000	0.000000	6.252808	-0.030937	NaN	0.000000	0.001598	0.001640	28.0786	0.069643	0.001973	35.2904	46.5412	18.1421	-0.078893	0.251221	-0.831008	-0.832349	-0.030937	35.2904	-0.830350	-1.160206E+11	2.666544E-13	NaN
240	1.000000	0.262585	7.36739e+06	-50639.1	955.819	-29755.4	0.000000	0.000000	6.262837	0.099697	NaN	0.000000	0.001582	0.001672	28.0789	0.122374	0.002016	60.7018	-91.3381	-166.267	0.091042	0.261298	-0.820984	-0.822272	0.099697	60.7018	-0.822216	-9.000432E+10	-1.107695E-12	NaN
240	1.000000	0.272618	7.36739e+06	-50639.1	955.819	-29755.4	0.000000	0.000000	6.272866	0.028004	NaN	0.000000	0.001580	0.001686	28.0782	0.107597	0.002103	51.1751	-163.362	16.8039	0.066993	0.271231	-0.810952	-0.812338	0.028004	51.1751	-0.811362	-6.412891E+10	-4.366792E-13	NaN
240	1.000000	0.282608	7.36739e+06	-50639.1	955.818	-29755.4	0.000000	0.000000	6.282857	0.028792	NaN	0.000000	0.001603	0.001648	28.0787	0.029870	0.001960	15.238	-173.498	-166.546	0.036331	0.281298	-0.800961	-0.802272	0.028792	15.238	-0.802379	-4.843375E+10	-5.944686E-13	NaN
240	1.000000	0.292596	7.36739e+06	-50639.1	955.819	-29755.4	0.000000	0.000000	6.292844	0.022610	NaN	0.000000	0.001578	0.001683	28.0785	0.048273	0.002010	24.0209	8.846700	17.4037	0.003398	0.291247	-0.790974	-0.792322	0.022610	24.0209	-0.791680	-3.466526E+10	-6.522406E-13	NaN
240	1.000000	0.302591	7.36739e+06	-50639.1	955.818	-29755.4	0.000000	0.000000	6.302840	0.017675	NaN	0.000000	0.001543	0.001665	28.0792	0.079834	0.002001	39.8907	179.876	-166.78	-0.051672	0.301305	-0.780978	-0.782264	0.017675	39.8907	-0.781310	-2.506336E+10	-7.051968E-13	NaN
240	1.000000	0.312588	7.36739e+06	-50639.1	955.819	-29755.4	0.000000	0.000000	6.312838	0.048548	NaN	0.000000	0.001575	0.001609	28.0785	0.116082	0.002003	57.9434	-161.875	15.1313	-0.002319	0.311192	-0.770981	-0.772377	0.048548	57.9434	-0.771609	-1.850062E+10	-2.624124E-12	NaN
240	1.000000	0.322608	7.36739e+06	-50639.1	955.818	-29755.4	0.000000	0.000000	6.322855	-0.016890	NaN	0.000000	0.001530	0.001612	28.0788	0.061099	0.002022	30.2218	59.979	-161.343	-0.097157	0.321366	-0.760961	-0.762203	-0.016890	30.2218	-0.760542	-1.308214E+10	1.291078E-12	NaN
240	1.000000	0.332587	7.36739e+06	-50639.1	955.818	-29755.4	0.000000	0.000000	6.332835	0.006877	NaN	0.000000	0.001567	0.001645	28.0787	0.056197	0.002050	27.4099	147.949	13.3774	0.008645	0.331239	-0.750982	-0.752331	0.006877	27.4099	-0.751170	-9.753244E+9	-7.051105E-13	NaN
240	1.000000	0.342652	7.36739e+06	-50639.1	955.819	-29755.4	0.000000	0.000000	6.342900	0.006615	NaN	0.000000	0.001545	0.001645	28.0788	0.066441	0.002007	33.1102	-16.4629	-167.536	-0.039212	0.341338	-0.740917	-0.742231	0.006615	33.1102	-0.741067	-7.105448E+9	-9.310344E-13	NaN
240	1.000000	0.352625	7.36739e+06	-50639.1	955.818	-29755.4	0.000000	0.000000	6.352874	0.018095	NaN	0.000000	0.001568	0.001607	28.0786	0.033992	0.001997	17.0219	102.976	15.0019	0.058232	0.351258	-0.730944	-0.732311	0.018095	17.0219	-0.731742	-5.303285E+9	-3.411999E-12	NaN
240	1.000000	0.362647	7.36739e+06	-50639.1	955.818	-29755.4	0.000000	0.000000	6.362894	-0.025610	NaN	0.000000	0.001562	0.001638	28.0777	0.062444	0.001990	31.3856	-43.9501	-165.892	-0.099487	0.361301	-0.720923	-0.722268	-0.025610	31.3856	-0.720311	-3.704330E+9	6.913519E-12	NaN
240	1.000000	0.372626	7.36739e+06	-50639.1	955.818	-29755.4	0.000000	0.000000	6.372878	0.087241	NaN	0.000000	0.001546	0.001654	28.0774	0.044931	0.002075	21.6511	-32.9145	15.3293	-0.002120	0.371271	-0.710943	-0.712299	0.087241	21.6511	-0.713965	-3.034968E+9	-2.874520E-11	NaN
240	1.000000	0.382650	7.36739e+06	-50639.1	955.818	-29755.4	0.000000	0.000000	6.382902	0.109383	NaN	0.000000	0.001538	0.001654	28.0771	0.085731	0.001983	43.2388	-35.5424	-163.112	0.072860	0.381299	-0.700920	-0.702270	0.109383	43.2388	-0.702817	-2.137940E+9	-5.116280E-11	NaN
240	1.000000	0.392672	7.36739e+06	-50639.1	955.818	-29755.4	0.000000	0.000000	6.392921	0.028700	NaN	0.000000	0.001604	0.001644	28.0773	0.066882	0.002161	30.9486	-101.952	15.7554	0.044849	0.391261	-0.690897	-0.692308	0.028700	30.9486	-0.691592	-1.502034E+9	-1.910762E-11	NaN
240	1.000000	0.402637	7.36739e+06	-50639.1	955.818	-29755.4	0.000000	0.000000	6.402887	0.055451	NaN	0.000000	0.001579	0.001648	28.0773	0.117189	0.001828	64.0996	153.891	-165.695	0.012681	0.401351	-0.680932	-0.682218	0.055451	64.0996	-0.681581	-1.096039E+9	-5.059200E-11	NaN
240	1.000000	0.412653	7.36739e+06	-50639.1	955.819	-29755.4	0.000000	0.000000	6.412902	0.026786	NaN	0.000000	0.001590	0.001667	28.0775	0.118191	0.001884	62.7327	-157.896	18.7036	0.029556	0.411258	-0.670916	-0.672311	0.026786	62.7327	-0.671236	-7.912469E+8	-3.385323E-11	NaN
240	1.000000	0.422662	7.36739e+06	-50639.1	955.819	-29755.4	0.000000	0.000000	6.422908	-0.049651	NaN	0.000000	0.001574	0.001665	28.0773	0.068252	0.002057	33.1749	-46.108	-162.657	0.019763	0.421367	-0.660907	-0.662202	-0.049651	33.1749	-0.659785	-5.514640E+8	9.003414E-11	NaN
240	1.000000	0.432664	7.3674e+06	-50639.1	955.819	-29755.4	0.000000	0.000000	6.432912	0.007725	NaN	0.000000	0.001553	0.001700	28.077	0.078558	0.002016	38.9623	-135.293	16.1417	-0.046419	0.431335	-0.650905	-0.652234	0.007725	38.9623	-0.651054	-4.186842E+8	-1.845115E-11	NaN
240	1.000000	0.442703	7.3674e+06	-50639.1	955.819	-29755.4	0.000000	0.000000	6.442951	0.003422	NaN	0.000000	0.001559	0.001637	28.0774	0.072503	0.002034	35.6535	-9.840307	-163.907	-0.098254	0.441378	-0.640867	-0.642192	0.003422	35.6535	-0.640939	-3.042060E+8	-1.124777E-11	NaN
240	1.000000	0.452674	7.3674e+06	-50639.1	955.818	-29755.4	0.000000	0.000000	6.452920	-0.043911	NaN	0.000000	0.001552	0.001650	28.0773	0.086409	0.002037	42.4104	-49.2585	20.3211	0.029849	0.451252	-0.630895	-0.632318	-0.043911	42.4104	-0.630119	-2.161000E+8	2.031989E-10	NaN
240	1.000000	0.462687	7.3674e+06	-50639.1	955.819	-29755.4	0.000000	0.000000	6.462936	0.024832	NaN	0.000000	0.001551	0.001644	28.0772	0.111986	0.002032	55.1128	14.5119	-165.06	-0.041368	0.461384	-0.620882	-0.622185	0.024832	55.1128	-0.621220	-1.630810E+8	-1.522669E-10	NaN
240	1.000000	0.472683	7.3674e+06	-50639.1	955.818	-29755.4	0.000000	0.000000	6.472933	0.053062	NaN	0.000000	0.001577	0.001650	28.0772	0.031929	0.001949	16.3823	-85.2658	15.5209	-0.037445	0.471336	-0.610886	-0.612233	0.053062	16.3823	-0.613316	-1.269767E+8	-4.178892E-10	NaN
240	1.000000	0.482660	7.3674e+06	-50639.1	955.817	-29755.4	0.000000	0.000000	6.482908	-0.007229	NaN	0.000000	0.001586	0.001612	28.0774	0.053826	0.002038	26.4111	99.3566	-168.075	0.063841	0.481421	-0.600909	-0.602148	-0.007229	26.4111	-0.600704	-8.514415E+7	8.490072E-11	NaN
240	1.000000	0.492684	7.3674e+06	-50639.1	955.819	-29755.4	0.000000	0.000000	6.492931	-0.003665	NaN	0.000000	0.001559	0.001646	28.0785	0.090805	0.001942	46.7501	153.46	17.8472	-0.026455	0.491332	-0.590886	-0.592237	-0.003665	46.7501	-0.590827	-6.223933E+7	5.888671E-11	NaN
240	1.000000	0.502702	7.3674e+06	-50639.1	955.817	-29755.4	0.000000	0.000000	6.502952	0.052106	NaN	0.000000	0.001553	0.001690	28.0784	0.017771	0.001982	8.964910	-117.152	-165.861	0.070827	0.501343	-0.580867	-0.582226	0.052106	8.964910	-0.585227	-5.210038E+7	-1.000100E-9	NaN
240	1.000000	0.512704	7.3674e+06	-50639.1	955.818	-29755.4	0.000000	0.000000	6.512950	-0.039248	NaN	0.000000	0.001585	0.001670	28.0788	0.048249	0.002023	23.8521	120.037	14.2754	-0.046600	0.511274	-0.570866	-0.572295	-0.039248	23.8521	-0.569632	-3.173547E+7	1.236716E-9	NaN
240	1.000000	0.522679	7.3674e+06	-50639.1	955.818	-29755.4	0.000000	0.000000	6.522928	0.034932	NaN	0.000000	0.001620	0.001650	28.0789	0.140786	0.001953	72.0769	13.6545	-167.255	-0.002983	0.521401	-0.560891	-0.562168	0.034932	72.0769	-0.561254	-2.430686E+7	-1.437135E-9	NaN
240	1.000000	0.532652	7.3674e+06	-50639.1	955.819	-29755.4	0.000000	0.000000	6.532897	-0.070335	NaN	0.000000	0.001610	0.001687	28.0789	0.039713	0.002058	19.2959	37.2446	12.4961	-0.012175	0.531305	-0.550917	-0.552265	-0.070335	19.2959	-0.548183	-1.602468E+7	4.389192E-9	NaN
240	1.000000	0.542729	7.3674e+06	-50639.1	955.819	-29755.4	0.000000	0.000000	6.542975	-0.047557	NaN	0.000000	0.001600	0.001664	28.0784	0.072556	0.001993	36.4095	-84.3178	-163.152	-0.020215	0.541394	-0.540841	-0.542175	-0.047557	36.4095	-0.539861	-1.228660E+7	3.870673E-9	NaN
240	1.000000	0.552728	7.3674e+06	-50639.1	955.819	-29755.4	0.000000	0.000000	6.552974	-0.049042	NaN	0.000000	0.001600	0.001661	28.0789	0.101281	0.001943	52.1362	-10.5765	16.356	0.004471	0.551289	-0.530842	-0.532280	-0.049042	52.1362	-0.530136	-9.00462e+06	5.446319E-9	NaN
240	1.000000	0.562713	7.3674e+06	-50639.1	955.819	-29755.4	0.000000	0.000000	6.562962	0.029957	NaN	0.000000	0.001547	0.001653	28.0791	0.009802	0.001988	4.931040	-74.3894	-161.053	-0.023636	0.561416	-0.520857	-0.522153	0.029957	4.931040	-0.525413	-7.74196e+06	-3.869495E-9	NaN
240	1.000000	0.572721	7.3674e+06	-50639.1	955.819	-29755.4	0.000000	0.000000	6.572970	0.042256	NaN	0.000000	0.001582	0.001646	28.0788	0.068409	0.001937	35.3219	16.2298	16.6756	0.066562	0.571335	-0.510849	-0.512235	0.042256	35.3219	-0.511746	-4.99724e+06	-8.455772E-9	NaN
240	1.000000	0.582754	7.3674e+06	-50639.1	955.819	-29755.4	0.000000	0.000000	6.583001	-0.013220	NaN	0.000000	0.001585	0.001626	28.0785	0.100677	0.001991	50.555	87.215	-163.384	0.030915	0.581333	-0.500816	-0.502236	-0.013220	50.555	-0.500619	-3.49671e+06	3.780831E-9	NaN
240	1.000000	0.592711	7.3674e+06	-50639.1	955.818	-29755.4	0.000000	0.000000	6.592957	-0.036358	NaN	0.000000	0.001553	0.001637	28.0789	0.042952	0.001843	23.3023	-17.1302	15.3674	-0.035655	0.591389	-0.490859	-0.492180	-0.036358	23.3023	-0.489688	-2.46058e+06	1.477636E-8	NaN
240	1.000000	0.602751	7.3674e+06	-50639.1	955.819	-29755.4	0.000000	0.000000	6.602997	-0.048752	NaN	0.000000	0.001593	0.001686	28.0788	0.070218	0.001853	37.8897	16.2096	-165.549	-0.055401	0.601417	-0.480818	-0.482152	-0.048752	37.8897	-0.479853	-1.79256e+06	2.719710E-8	NaN
240	1.000000	0.612716	7.3674e+06	-50639.1	955.818	-29755.4	0.000000	0.000000	6.612965	0.033429	NaN	0.000000	0.001582	0.001681	28.0787	0.064985	0.002037	31.8948	-121.925	12.4032	0.006991	0.611421	-0.470854	-0.472149	0.033429	31.8948	-0.471640	-1.37532e+06	-2.430607E-8	NaN
240	1.000000	0.622726	7.3674e+06	-50639.1	955.818	-29755.4	0.000000	0.000000	6.622974	0.010212	NaN	0.000000	0.001585	0.001650	28.0786	0.076950	0.001965	39.163	176.074	-166.712	-0.052201	0.621401	-0.460844	-0.462169	0.010212	39.163	-0.461039	-976391	-1.045898E-8	NaN
240	1.000000	0.632726	7.3674e+06	-50639.1	955.817	-29755.4	0.000000	0.000000	6.632972	-0.042926	NaN	0.000000	0.001546	0.001663	28.0775	0.163501	0.001984	82.4177	92.1446	17.1182	0.021480	0.631325	-0.450843	-0.452244	-0.042926	82.4177	-0.450452	-692969	6.194535E-8	NaN
240	1.000000	0.642744	7.3674e+06	-50639.1	955.818	-29755.4	0.000000	0.000000	6.642994	0.068661	NaN	0.000000	0.001548	0.001600	28.0775	0.141724	0.002096	67.6147	-17.6146	-162.402	0.032002	0.641447	-0.440826	-0.442123	0.068661	67.6147	-0.441587	-519711	-1.321136E-7	NaN
240	1.000000	0.652739	7.3674e+06	-50639.1	955.818	-29755.4	0.000000	0.000000	6.652984	-0.048377	NaN	0.000000	0.001607	0.001659	28.0771	0.028588	0.002014	14.196	107.695	17.118	-0.010132	0.651370	-0.430831	-0.432199	-0.048377	14.196	-0.428275	-337017	1.435445E-7	NaN
240	1.000000	0.662766	7.3674e+06	-50639.1	955.818	-29755.4	0.000000	0.000000	6.663013	-0.015337	NaN	0.000000	0.001557	0.001616	28.0775	0.052168	0.001927	27.0754	-133.611	-161.198	-0.035635	0.661483	-0.420803	-0.422087	-0.015337	27.0754	-0.420378	-260485	5.887914E-8	NaN
240	1.000000	0.672776	7.3674e+06	-50639.1	955.818	-29755.4	0.000000	0.000000	6.673026	0.058666	NaN	0.000000	0.001552	0.001653	28.0775	0.132805	0.001988	66.8168	125.521	17.7057	0.083654	0.671380	-0.410793	-0.412190	0.058666	66.8168	-0.411452	-194554	-3.015411E-7	NaN
240	1.000000	0.682799	7.3674e+06	-50639.1	955.818	-29755.4	0.000000	0.000000	6.683042	-0.108947	NaN	0.000000	0.001590	0.001622	28.0774	0.113467	0.002019	56.2093	57.6392	-165.354	-0.057468	0.681452	-0.400770	-0.402118	-0.108947	56.2093	-0.399317	-130692	8.336122E-7	NaN
240	1.000000	0.692780	7.3674e+06	-50639.1	955.818	-29755.4	0.000000	0.000000	6.693027	-0.027958	NaN	0.000000	0.001572	0.001633	28.0774	0.058361	0.002033	28.7077	158.481	14.6029	-0.035456	0.691413	-0.390789	-0.392157	-0.027958	28.7077	-0.390059	-96383.9	2.900714E-7	NaN
240	1.000000	0.702782	7.3674e+06	-50639.1	955.819	-29755.4	0.000000	0.000000	6.703031	0.029576	NaN	0.000000	0.001552	0.001687	28.0775	0.017007	0.001952	8.714319	62.931	-165.846	-0.024738	0.701523	-0.380787	-0.382046	0.029576	8.714319	-0.383332	-77212.5	-3.830416E-7	NaN
240	1.000000	0.712762	7.3674e+06	-50639.1	955.818	-29755.4	0.000000	0.000000	6.713011	0.043596	NaN	0.000000	0.001575	0.001663	28.0773	0.059213	0.002051	28.8762	160.892	16.6695	0.057937	0.711416	-0.370808	-0.372154	0.043596	28.8762	-0.371940	-52973.5	-8.229742E-7	NaN
240	1.000000	0.722813	7.3674e+06	-50639.1	955.819	-29755.4	0.000000	0.000000	6.723059	-0.039667	NaN	0.000000	0.001555	0.001660	28.0773	0.101749	0.002070	49.165	-77.1222	-163.545	-0.003748	0.721462	-0.360757	-0.362107	-0.039667	49.165	-0.360151	-35812.5	1.107639E-6	NaN
240	1.000000	0.732760	7.3674e+06	-50639.1	955.819	-29755.4	0.000000	0.000000	6.733007	-0.015263	NaN	0.000000	0.001570	0.001679	28.0773	0.045203	0.002074	21.7968	-97.8032	16.5572	-0.120509	0.731441	-0.350810	-0.352128	-0.015263	21.7968	-0.350285	-25771.1	5.922501E-7	NaN
240	1.000000	0.742781	7.3674e+06	-50639.1	955.818	-29755.4	0.000000	0.000000	6.743027	-0.043787	NaN	0.000000	0.001557	0.001668	28.0777	0.058364	0.001913	30.5112	139.912	-162.953	-0.007018	0.741466	-0.340788	-0.342103	-0.043787	30.5112	-0.339712	-18086.3	2.420991E-6	NaN
240	1.000000	0.752801	7.3674e+06	-50639.1	955.819	-29755.4	0.000000	0.000000	6.753051	0.038802	NaN	0.000000	0.001553	0.001651	28.0773	0.107705	0.001972	54.628	-78.3963	14.6451	-0.003795	0.751454	-0.330768	-0.332115	0.038802	54.628	-0.331301	-13630.1	-2.846809E-6	NaN
240	1.000000	0.762808	7.3674e+06	-50639.1	955.818	-29755.4	0.000000	0.000000	6.763056	-0.001086	NaN	0.000000	0.001567	0.001691	28.0775	0.048451	0.002004	24.1817	95.5433	-161.393	-0.017656	0.761534	-0.320761	-0.322036	-0.001086	24.1817	-0.320727	-9535.48	1.138750E-7	NaN
240	1.000000	0.772811	7.3674e+06	-50639.1	955.818	-29755.4	0.000000	0.000000	6.773059	0.005267	NaN	0.000000	0.001542	0.001695	28.0785	0.053374	0.001886	28.3	151.423	12.256	-0.020072	0.771474	-0.310758	-0.312096	0.005267	28.3	-0.310898	-6828.75	-7.712702E-7	NaN
240	1.000000	0.782819	7.3674e+06	-50639.1	955.818	-29755.4	0.000000	0.000000	6.783067	-0.012522	NaN	0.000000	0.001541	0.001650	28.0788	0.044704	0.001944	22.9935	-29.5226	-162.587	-0.065455	0.781469	-0.300750	-0.302101	-0.012522	22.9935	-0.300342	-4761.25	2.630075E-6	NaN
240	1.000000	0.792817	7.3674e+06	-50639.1	955.818	-29755.4	0.000000	0.000000	6.793066	0.036474	NaN	0.000000	0.001602	0.001694	28.0786	0.072231	0.002093	34.5158	-139.588	16.1487	0.044810	0.791413	-0.290753	-0.292156	0.036474	34.5158	-0.291545	-3519.17	-1.036426E-5	NaN
240	1.000000	0.802825	7.3674e+06	-50639.1	955.818	-29755.4	0.000000	0.000000	6.803074	0.028708	NaN	0.000000	0.001583	0.001672	28.0787	0.099091	0.001917	51.6849	101.234	-161.597	0.009388	0.801489	-0.280744	-0.282080	0.028708	51.6849	-0.281161	-2457.4	-1.168215E-5	NaN
240	1.000000	0.812820	7.3674e+06	-50639.1	955.818	-29755.4	0.000000	0.000000	6.813070	0.055351	NaN	0.000000	0.001528	0.001657	28.0784	0.056190	0.001991	28.2176	168.011	14.3531	0.053541	0.811448	-0.270749	-0.272122	0.055351	28.2176	-0.272220	-1799.97	-3.075107E-5	NaN
240	1.000000	0.822821	7.3674e+06	-50639.1	955.818	-29755.4	0.000000	0.000000	6.823070	0.042269	NaN	0.000000	0.001618	0.001673	28.0789	0.136777	0.002201	62.1322	-43.4032	-166.307	-0.002140	0.821537	-0.260749	-0.262033	0.042269	62.1322	-0.261259	-1225.2	-3.449996E-5	NaN
240	1.000000	0.832815	7.3674e+06	-50639.1	955.818	-29755.4	0.000000	0.000000	6.833063	0.002653	NaN	0.000000	0.001632	0.001670	28.0785	0.120312	0.002010	59.8585	-63.1538	9.845868	-0.022415	0.831479	-0.250755	-0.252091	0.002653	59.8585	-0.250788	-845.563	-3.137199E-6	NaN
240	1.000000	0.842840	7.3674e+06	-50639.1	955.818	-29755.4	0.000000	0.000000	6.843089	0.028306	NaN	0.000000	0.001622	0.001694	28.0793	0.088672	0.002098	42.2571	-26.9401	-162.594	0.060434	0.841534	-0.240730	-0.242036	0.028306	42.2571	-0.241232	-600.878	-4.710719E-5	NaN
240	1.000000	0.852825	7.3674e+06	-50639.1	955.818	-29755.4	0.000000	0.000000	6.853070	-0.065336	NaN	0.000000	0.001637	0.001688	28.0786	0.048021	0.002100	22.8672	-153.873	15.6922	-0.016363	0.851492	-0.230744	-0.232077	-0.065336	22.8672	-0.228601	-380.552	0.000172	NaN
240	1.000000	0.862847	7.3674e+06	-50639.1	955.818	-29755.4	0.000000	0.000000	6.863094	-0.009805	NaN	0.000000	0.001643	0.001595	28.0791	0.067623	0.002080	32.5045	-25.9533	-162.617	0.044977	0.861537	-0.220722	-0.222032	-0.009805	32.5045	-0.220496	-282.88	3.466191E-5	NaN
240	1.000000	0.872878	7.3674e+06	-50639.1	955.818	-29755.4	0.000000	0.000000	6.873124	-0.040532	NaN	0.000000	0.001662	0.001584	28.0786	0.046395	0.002165	21.4282	-72.6613	16.2569	-0.029255	0.871469	-0.210691	-0.212100	-0.040532	21.4282	-0.209273	-186.653	0.000217	NaN
240	1.000000	0.882872	7.3674e+06	-50639.1	955.818	-29755.4	0.000000	0.000000	6.883119	-0.003726	NaN	0.000000	0.001653	0.001597	28.0787	0.118153	0.001961	60.2667	75.1596	-167.132	-0.023217	0.881583	-0.200698	-0.201986	-0.003726	60.2667	-0.200652	-135.021	2.759521E-5	NaN
240	1.000000	0.892871	7.3674e+06	-50639.1	955.818	-29755.4	0.000000	0.000000	6.893118	-0.009708	NaN	0.000000	0.001626	0.001622	28.0786	0.049459	0.001865	26.5208	-111.294	14.1647	-0.063871	0.891480	-0.190699	-0.192089	-0.009708	26.5208	-0.190424	-91.4343	0.000106	NaN
240	1.000000	0.902856	7.3674e+06	-50639.1	955.819	-29755.4	0.000000	0.000000	6.903104	0.008023	NaN	0.000000	0.001645	0.001654	28.0775	0.065190	0.001882	34.6384	-27.9799	-165.674	0.082357	0.901565	-0.180713	-0.182005	0.008023	34.6384	-0.180887	-63.1746	-0.000127	NaN
240	1.000000	0.912869	7.3674e+06	-50639.1	955.818	-29755.4	0.000000	0.000000	6.913119	0.051622	NaN	0.000000	0.001632	0.001698	28.0773	0.034959	0.001907	18.3319	73.6943	15.7201	0.020190	0.911489	-0.170701	-0.172080	0.051622	18.3319	-0.172813	-45.9523	-0.001123	NaN
240	1.000000	0.922867	7.3674e+06	-50639.1	955.819	-29755.4	0.000000	0.000000	6.923115	0.012901	NaN	0.000000	0.001648	0.001626	28.0775	0.061654	0.002064	29.8781	81.2432	-168.56	0.038513	0.921577	-0.160703	-0.161992	0.012901	29.8781	-0.161027	-28.5895	-0.000451	NaN
240	1.000000	0.932888	7.3674e+06	-50639.1	955.818	-29755.4	0.000000	0.000000	6.933135	-0.002740	NaN	0.000000	0.001662	0.001654	28.0775	0.076525	0.002080	36.7968	-125.332	13.6873	0.005624	0.931488	-0.150682	-0.152081	-0.002740	36.7968	-0.150626	-18.5957	0.000147	NaN
240	1.000000	0.942858	7.3674e+06	-50639.1	955.819	-29755.4	0.000000	0.000000	6.943104	-0.050123	NaN	0.000000	0.001604	0.001611	28.0775	0.090184	0.002037	44.2789	-143.926	-164.307	0.019487	0.941558	-0.140712	-0.142011	-0.050123	44.2789	-0.139863	-11.7594	0.004262	NaN
240	1.000000	0.952876	7.3674e+06	-50639.1	955.819	-29755.4	0.000000	0.000000	6.953123	-0.014245	NaN	0.000000	0.001622	0.001593	28.0775	0.097321	0.001961	49.6314	-40.7341	17.781	-0.137038	0.951559	-0.130693	-0.132010	-0.014245	49.6314	-0.130478	-7.785599	0.001830	NaN
240	1.000000	0.962883	7.3674e+06	-50639.1	955.819	-29755.4	0.000000	0.000000	6.963131	-0.005850	NaN	0.000000	0.001559	0.001622	28.0777	0.163185	0.002074	78.6775	-93.9851	-162.124	-0.000375	0.961570	-0.120686	-0.122000	-0.005850	78.6775	-0.120631	-4.974988	0.001176	NaN
240	1.000000	0.972883	7.3674e+06	-50639.1	955.819	-29755.4	0.000000	0.000000	6.973129	-0.044247	NaN	0.000000	0.001563	0.001605	28.0775	0.032290	0.002177	14.8331	-163.654	15.9457	-0.145046	0.971491	-0.110687	-0.112078	-0.044247	14.8331	-0.108449	-2.786495	0.015879	NaN
240	1.000000	0.982872	7.3674e+06	-50639.1	955.819	-29755.4	0.000000	0.000000	6.983119	-0.011863	NaN	0.000000	0.001567	0.001592	28.0774	0.099971	0.002010	49.7393	157.51	-165.089	-0.004698	0.981608	-0.100698	-0.101961	-0.011863	49.7393	-0.100519	-1.876128	0.006323	NaN
240	1.000000	0.992899	7.3674e+06	-50639.1	955.819	-29755.4	0.000000	0.000000	6.993146	-0.036762	NaN	0.000000	0.001523	0.001603	28.0776	0.098231	0.002072	47.4071	32.956	17.924	-0.035660	0.991560	-0.090670	-0.092010	-0.036762	47.4071	-0.090089	-1.086164	0.033845	NaN
240	1.000000	1.002900	7.3674e+06	-50639.1	955.818	-29755.4	0.000000	0.000000	7.003148	0.023831	NaN	0.000000	0.001545	0.001635	28.0774	0.103744	0.001868	55.532	173.567	-163.415	0.001650	1.001603	-0.080670	-0.081966	0.023831	55.532	-0.080992	-0.655245	-0.036370	NaN
240	1.000000	1.012918	7.3674e+06	-50639.1	955.818	-29755.4	0.000000	0.000000	7.013167	0.015768	NaN	0.000000	0.001555	0.001670	28.0774	0.059035	0.001992	29.643	-11.5735	11.924	0.035209	1.011531	-0.070651	-0.072038	0.015768	29.643	-0.071050	-0.363845	-0.043337	NaN
240	1.000000	1.022907	7.3674e+06	-50639.1	955.819	-29755.4	0.000000	0.000000	7.023156	0.024887	NaN	0.000000	0.001567	0.001642	28.0773	0.133336	0.002102	63.4416	-151.196	-164.812	-0.032933	1.021658	-0.060662	-0.061912	0.024887	63.4416	-0.060956	-0.191797	-0.129757	NaN
240	1.000000	1.032929	7.3674e+06	-50639.1	955.818	-29755.4	0.000000	0.000000	7.033176	-0.027061	NaN	0.000000	0.001622	0.001648	28.0774	0.115085	0.001914	60.1424	-128.383	19.0617	-0.010748	1.031569	-0.050640	-0.052000	-0.027061	60.1424	-0.050303	-0.093193	0.290377	NaN
240	1.000000	1.042913	7.3674e+06	-50639.1	955.819	-29755.4	0.000000	0.000000	7.043163	0.055710	NaN	0.000000	0.001579	0.001628	28.0787	0.069728	0.002151	32.4106	75.4818	-165.674	0.070013	1.041589	-0.040656	-0.041980	0.055710	32.4106	-0.041945	-0.051833	-1.074800	NaN
240	1.000000	1.052916	7.3674e+06	-50639.1	955.819	-29755.4	0.000000	0.000000	7.053164	-0.008627	NaN	0.000000	0.001579	0.001697	28.0785	0.043014	0.002052	20.9663	157.259	12.2086	0.027192	1.051562	-0.030653	-0.032008	-0.008627	20.9663	-0.030344	-0.023528	0.366670	NaN
240	1.000000	1.062929	7.3674e+06	-50639.1	955.818	-29755.4	0.000000	0.000000	7.063179	0.051325	NaN	0.000000	0.001573	0.001676	28.0786	0.138695	0.002024	68.5149	-171.4	-164.948	0.046547	1.061615	-0.020641	-0.021954	0.051325	68.5149	-0.021202	-0.013477	-3.808428	NaN
240	1.000000	1.072948	7.3674e+06	-50639.1	955.818	-29755.4	0.000000	0.000000	7.073196	0.010970	NaN	0.000000	0.001611	0.001676	28.0787	0.021891	0.002070	10.5751	-172.842	14.8496	0.084019	1.071562	-0.010621	-0.012008	0.010970	10.5751	-0.011399	-0.007186	-1.526581	NaN
240	1.000000	1.082918	7.3674e+06	-50639.1	955.818	-29755.4	0.000000	0.000000	7.083163	-0.070057	NaN	0.000000	0.001575	0.001663	28.0786	0.077674	0.002003	38.7793	82.3804	-166.691	0.007647	1.081667	-0.000651	-0.001902	-0.070057	38.7793	0.000704	0.000533	-131.358	1534.18
240	1.000000	1.092912	7.3674e+06	-50639.1	955.819	-29755.4	0.000000	0.000000	7.093312	3.695731	NaN	0.000000	0.001631	0.001646	28.0787	4.386218	0.001759	2493.1	11.5968	10.8829	2.180531	1.091583	0.009342	0.008013	3.695731	2493.1	0.008231	0.007281	507.608	26694.8
240	2.000000	1.099555	7.3674e+06	-50639.1	955.819	-29755.4	0.000000	0.000000	7.100174	9.013679	NaN	0.000000	0.001619	0.001669	28.0785	9.681835	0.001843	5252.24	13.0944	-174.58	8.859034	1.099213	0.015986	0.015644	9.013679	5252.24	0.014699	0.014886	605.518	39330.6
240	2.000000	1.102027	7.3674e+06	-50639.1	955.819	-29755.4	0.000000	0.000000	7.102761	11.8131	NaN	0.000000	0.001611	0.001645	28.0797	12.4979	0.001638	7630.05	8.926269	3.707815	11.2881	1.101636	0.018458	0.018066	11.8131	7630.05	0.017297	0.018471	639.55	51292.7
240	2.000000	1.104475	7.3674e+06	-50639.1	955.819	-29755.4	0.000000	0.000000	7.105369	15.7157	NaN	0.000000	0.001571	0.001646	28.0787	15.8435	0.001768	8959.14	7.241009	-175.247	15.2383	1.104199	0.020906	0.020630	15.7157	8959.14	0.019590	0.021903	717.523	55308.4
240	2.000000	1.107009	7.3674e+06	-50639.1	955.819	-29755.4	0.000000	0.000000	7.108114	20.85	NaN	0.000000	0.001560	0.001668	28.0796	18.513	0.001853	9989.54	11.1868	1.975649	20.3177	1.106591	0.023439	0.023022	20.85	9989.54	0.021874	0.025573	815.307	57072.4
240	2.000000	1.109467	7.3674e+06	-50639.1	955.819	-29755.4	0.000000	0.000000	7.110827	27.0278	NaN	0.000000	0.001603	0.001669	28.0784	21.572	0.001804	11961	4.769966	-175.108	27.0683	1.109154	0.025898	0.025585	27.0278	11961	0.024203	0.029582	913.651	63537
240	2.000000	1.111917	7.3674e+06	-50639.1	955.818	-29755.4	0.000000	0.000000	7.113475	31.8607	NaN	0.000000	0.001564	0.001644	28.0795	24.4838	0.001697	14430.3	5.483973	3.038083	30.078	1.111538	0.028348	0.027969	31.8607	14430.3	0.026692	0.034165	932.542	71327.3
240	2.000000	1.114492	7.3674e+06	-50639.1	955.819	-29755.4	0.000000	0.000000	7.116234	36.3452	NaN	0.000000	0.001583	0.001612	28.0787	28.1231	0.001715	16396.6	6.988476	179.547	36.6377	1.114223	0.030923	0.030653	36.3452	16396.6	0.029260	0.039224	926.604	75640
240	2.000000	1.116899	7.3674e+06	-50639.1	955.819	-29755.4	0.000000	0.000000	7.118924	43.2252	NaN	0.000000	0.001627	0.001631	28.0797	29.8086	0.001741	17117.6	4.192689	2.608945	39.589	1.116647	0.033330	0.033078	43.2252	17117.6	0.031436	0.043772	987.511	74751.2
240	2.000000	1.119442	7.3674e+06	-50639.1	955.82	-29755.4	0.000000	0.000000	7.121763	50.4223	NaN	0.000000	0.001658	0.001618	28.0773	32.9171	0.001837	17917.7	7.737561	178.381	49.6888	1.119148	0.035872	0.035578	50.4223	17917.7	0.033762	0.048902	1031.09	74027.1
240	2.000000	1.121838	7.3674e+06	-50639.1	955.82	-29755.4	0.000000	0.000000	7.124720	64.0752	NaN	0.000000	0.001666	0.001637	28.079	35.4661	0.001767	20068.1	7.079206	-1.613572	60.0927	1.121513	0.038268	0.037944	64.0752	20068.1	0.035873	0.053799	1191.01	79048.1
240	2.000000	1.124359	7.3674e+06	-50639.1	955.819	-29755.4	0.000000	0.000000	7.127473	69.7122	NaN	0.000000	0.001630	0.001630	28.0774	38.8991	0.001777	21892.3	5.087278	178.573	66.6068	1.124139	0.040789	0.040570	69.7122	21892.3	0.038401	0.059962	1162.61	81682.1
240	2.000000	1.126926	7.3674e+06	-50639.1	955.819	-29755.4	0.000000	0.000000	7.130522	81.4169	NaN	0.000000	0.001633	0.001642	28.0779	40.8459	0.001730	23611.8	7.852324	-4.121662	78.9176	1.126642	0.043357	0.043073	81.4169	23611.8	0.040771	0.066035	1232.93	83948.8
240	2.000000	1.129394	7.3674e+06	-50639.1	955.819	-29755.4	0.000000	0.000000	7.133360	90.4038	NaN	0.000000	0.001641	0.001645	28.0774	42.9558	0.001766	24328.8	6.978513	176.749	89.5636	1.129016	0.045825	0.045446	90.4038	24328.8	0.043038	0.072115	1253.6	82771.5
240	2.000000	1.131854	7.3674e+06	-50639.1	955.819	-29755.4	0.000000	0.000000	7.136219	100.109	NaN	0.000000	0.001626	0.001632	28.079	45.7603	0.001697	26965.2	5.822934	-3.672538	96.5162	1.131413	0.048285	0.047843	100.109	26965.2	0.045500	0.079014	1266.97	87644.4
240	2.000000	1.134367	7.3674e+06	-50639.1	955.819	-29755.4	0.000000	0.000000	7.139207	111.687	NaN	0.000000	0.001624	0.001637	28.0773	50.3393	0.001879	26795.5	8.535764	173.8	110.374	1.134115	0.050797	0.050546	111.687	26795.5	0.047671	0.085351	1308.56	83797.3
240	2.000000	1.136854	7.3674e+06	-50639.1	955.819	-29755.4	0.000000	0.000000	7.142172	123.304	NaN	0.000000	0.001599	0.001615	28.0778	51.6993	0.001765	29283.4	6.960245	-5.164733	119.307	1.136516	0.053284	0.052946	123.304	29283.4	0.050126	0.092804	1328.65	87823.9
240	2.000000	1.139334	7.3674e+06	-50639.1	955.819	-29755.4	0.000000	0.000000	7.145120	134.665	NaN	0.000000	0.001598	0.001645	28.0776	53.4959	0.001693	31600.7	5.617460	175.181	132.716	1.139086	0.055765	0.055517	134.665	31600.7	0.052568	0.100517	1339.72	91064.5
240	2.000000	1.141812	7.3674e+06	-50639.1	955.819	-29755.4	0.000000	0.000000	7.148410	154.418	NaN	0.000000	0.001622	0.001633	28.0787	56.3644	0.001817	31025.6	6.198850	-5.065563	149.706	1.141520	0.058243	0.057951	154.418	31025.6	0.054510	0.106862	1445.03	86712.8
240	2.000000	1.144335	7.3674e+06	-50639.1	955.819	-29755.4	0.000000	0.000000	7.151598	170.605	NaN	0.000000	0.001647	0.001616	28.0773	58.3061	0.001696	34369.3	4.392040	175.689	167.988	1.144053	0.060765	0.060484	170.605	34369.3	0.057042	0.115417	1478.17	92429.2
240	2.000000	1.146953	7.3674e+06	-50639.1	955.819	-29755.4	0.000000	0.000000	7.154721	182.887	NaN	0.000000	0.001641	0.001631	28.0778	60.7427	0.001753	34641.2	6.745411	-5.879974	183.953	1.146442	0.063383	0.062872	182.887	34641.2	0.059424	0.123750	1477.88	89969.3
240	2.000000	1.149328	7.3674e+06	-50639.1	955.82	-29755.4	0.000000	0.000000	7.157795	199.873	NaN	0.000000	0.001632	0.001635	28.0775	63.2413	0.001847	34242.2	5.839512	174.438	197.249	1.149082	0.065758	0.065512	199.873	34242.2	0.061380	0.130805	1528.02	86501.3
240	2.000000	1.151835	7.3674e+06	-50639.1	955.82	-29755.4	0.000000	0.000000	7.160937	215.315	NaN	0.000000	0.001624	0.001631	28.0792	65.5704	0.001685	38914.1	3.327827	-3.965513	210.965	1.151533	0.068266	0.067963	215.315	38914.1	0.064116	0.140980	1527.27	94689.2
240	2.000000	1.154355	7.3674e+06	-50639.1	955.819	-29755.4	0.000000	0.000000	7.164243	234.423	NaN	0.000000	0.001583	0.001682	28.0786	70.3035	0.001801	39032.8	6.398540	172.416	232.244	1.154024	0.070785	0.070454	234.423	39032.8	0.066281	0.149289	1570.26	92297.1
240	2.000000	1.156832	7.3674e+06	-50639.1	955.82	-29755.4	0.000000	0.000000	7.167513	253.711	NaN	0.000000	0.001563	0.001649	28.0789	71.8409	0.001861	38607.3	6.364477	-6.777385	248.782	1.156412	0.073263	0.072843	253.711	38607.3	0.068334	0.157377	1612.12	88914.4
240	2.000000	1.159310	7.3674e+06	-50639.1	955.82	-29755.4	0.000000	0.000000	7.170398	263.61	NaN	0.000000	0.001559	0.001622	28.0786	73.6367	0.001850	39795.8	2.949411	176.481	259.548	1.159058	0.075741	0.075488	263.61	39795.8	0.070773	0.167245	1576.19	88906.6
240	2.000000	1.161850	7.3674e+06	-50639.1	955.82	-29755.4	0.000000	0.000000	7.173994	289.303	NaN	0.000000	0.001620	0.001615	28.0791	76.4901	0.001774	43123.9	4.838982	-5.912533	287.071	1.161367	0.078280	0.077797	289.303	43123.9	0.073249	0.177554	1629.38	93503
240	2.000000	1.164362	7.3674e+06	-50639.1	955.819	-29755.4	0.000000	0.000000	7.177282	308.155	NaN	0.000000	0.001614	0.001625	28.0789	79.4207	0.001893	41950.7	2.815302	176.198	306.835	1.164063	0.080793	0.080494	308.155	41950.7	0.075284	0.186243	1654.59	88812.1
240	2.000000	1.166785	7.3674e+06	-50639.1	955.819	-29755.4	0.000000	0.000000	7.180714	332.691	NaN	0.000000	0.001643	0.001655	28.0788	81.4375	0.001730	47060.6	9.252550	-11.7324	327.731	1.166524	0.083216	0.082955	332.691	47060.6	0.077914	0.197762	1682.28	96685
240	2.000000	1.169417	7.3674e+06	-50639.1	955.82	-29755.4	0.000000	0.000000	7.183911	346.43	NaN	0.000000	0.001645	0.001615	28.0786	83.4412	0.001719	48542.3	6.739404	171.252	351.26	1.169110	0.085847	0.085541	346.43	48542.3	0.080495	0.209380	1654.55	96922.7
240	2.000000	1.171856	7.3674e+06	-50639.1	955.82	-29755.4	0.000000	0.000000	7.187075	364.048	NaN	0.000000	0.001622	0.001608	28.079	87.1588	0.001819	47925.1	8.612045	-10.7682	362.747	1.171536	0.088287	0.087967	364.048	47925.1	0.082590	0.219039	1662.02	93556.9
240	2.000000	1.174299	7.3674e+06	-50639.1	955.82	-29755.4	0.000000	0.000000	7.190566	389.567	NaN	0.000000	0.001670	0.001617	28.0787	88.3299	0.001816	48648	2.137821	175.756	387.2	1.173999	0.090729	0.090429	389.567	48648	0.084723	0.229084	1700.54	92862.6
240	2.000000	1.176920	7.3674e+06	-50639.1	955.82	-29755.4	0.000000	0.000000	7.194014	409.65	NaN	0.000000	0.001605	0.001688	28.0787	90.0924	0.001781	50576.9	4.739606	-6.689298	412.515	1.176527	0.093351	0.092957	409.65	50576.9	0.087276	0.241380	1697.12	94053.5
240	2.000000	1.179217	7.3674e+06	-50639.1	955.82	-29755.4	0.000000	0.000000	7.197488	438.269	NaN	0.000000	0.001622	0.001647	28.0786	91.6914	0.001853	49481.8	4.221143	173.234	431.909	1.179032	0.095648	0.095462	438.269	49481.8	0.089005	0.249877	1753.94	90438.9
240	2.000000	1.181758	7.3674e+06	-50639.1	955.819	-29755.4	0.000000	0.000000	7.201216	467.162	NaN	0.000000	0.001610	0.001669	28.0787	94.1507	0.001799	52345.3	3.799898	-6.454187	459.713	1.181392	0.098189	0.097822	467.162	52345.3	0.091495	0.262357	1780.64	93369.4
240	2.000000	1.184264	7.3674e+06	-50639.1	955.82	-29755.4	0.000000	0.000000	7.204716	491.32	NaN	0.000000	0.001531	0.001697	28.0787	96.8458	0.001801	53780	3.687530	173.28	486.965	1.184016	0.100695	0.100446	491.32	53780	0.093843	0.274383	1790.64	93802.8
240	2.000000	1.186782	7.3674e+06	-50639.1	955.819	-29755.4	0.000000	0.000000	7.208080	511.91	NaN	0.000000	0.001574	0.001706	28.0775	97.6396	0.001717	56854.6	1.787311	-4.926711	507.443	1.186538	0.103212	0.102969	511.91	56854.6	0.096459	0.288083	1776.95	96778.8
240	2.000000	1.189222	7.3674e+06	-50639.1	955.82	-29755.4	0.000000	0.000000	7.211920	545.958	NaN	0.000000	0.001596	0.001709	28.0775	100.03	0.001675	59703.3	5.396029	170.948	541.295	1.189019	0.105652	0.105449	545.958	59703.3	0.098794	0.300571	1816.41	99494.4
240	2.000000	1.191677	7.3674e+06	-50639.1	955.82	-29755.4	0.000000	0.000000	7.215366	570.037	NaN	0.000000	0.001593	0.001673	28.0771	103.923	0.001867	55673.8	3.322925	-6.427435	560.825	1.191382	0.108107	0.107813	570.037	55673.8	0.100428	0.309459	1842.04	91437
240	2.000000	1.194408	7.3674e+06	-50639.1	955.819	-29755.4	0.000000	0.000000	7.219181	596.397	NaN	0.000000	0.001569	0.001690	28.0774	106.394	0.001684	63183.4	9.256825	167.784	599.304	1.193903	0.110839	0.110333	596.397	63183.4	0.103759	0.327953	1818.54	100802
240	2.000000	1.196769	7.3674e+06	-50639.1	955.819	-29755.4	0.000000	0.000000	7.222604	622.212	NaN	0.000000	0.001538	0.001690	28.0774	107.288	0.001735	61845.6	5.978898	-9.277109	615.315	1.196281	0.113200	0.112711	622.212	61845.6	0.105654	0.338698	1837.07	97090.2