File: remote_trans/data/nanoindenter/0828-1/data/Data_2025-08-06,11h17m57s/2025-07-22_16-23-58_1_774.txt
2025-07-22, 16:23:58, 1
Index	Phase	Displacement	Time	Pos X	Pos Y	Pos Z	Rot A	Rot B	Piezo Z	Force A	Force B	Gripper	Voltage A	Voltage B	Temperature	Amplitude force	Amplitude pos	Stiffness	Phase shift	Phase excitation	Force A raw	Displacement raw	HMax	HMax raw	Real Force	Real Stiffness	Contact Depth	Area	Hardness	Reduced Mod.
[#]	[#]	[um]	[s]	[um]	[um]	[um]	[m°]	[m°]	[um]	[uN]	[uN]	[V]	[V]	[V]	[°C]	[uN]	[um]	[N/m]	[°]	[°]	[uN]	[um]	[um]	[um]	[uN]	[N/m]	[um]	[um^2]	[MPa]	[MPa]
774	1.000000	0.002531	7.37263e+06	-38839.1	1055.82	-29796	0.000000	0.000000	6.002799	-0.057771	NaN	0.000000	0.001760	0.001773	28.0805	0.062646	0.001027	60.9803	134.011	-168.883	0.042716	0.001288	-1.088399	-1.089642	-0.057771	60.9803	-1.087688	-3.425837E+14	1.686330E-16	NaN
774	1.000000	0.012593	7.37263e+06	-38839.1	1055.82	-29796	0.000000	0.000000	6.012860	-0.055825	NaN	0.000000	0.001765	0.001794	28.0805	0.100002	0.001188	84.1746	177.809	15.629	-0.036354	0.011133	-1.078337	-1.079797	-0.055825	84.1746	-1.077840	-2.526391E+14	2.209672E-16	NaN
774	1.000000	0.022440	7.37263e+06	-38839.1	1055.82	-29796	0.000000	0.000000	6.022709	-0.010394	NaN	0.000000	0.001773	0.001768	28.0804	0.031468	0.001793	17.5465	77.1425	-166.455	-0.058526	0.021171	-1.068490	-1.069759	-0.010394	17.5465	-1.068045	-1.866075E+14	5.570197E-17	NaN
774	1.000000	0.032481	7.37263e+06	-38839.1	1055.82	-29796	0.000000	0.000000	6.032749	-0.061450	NaN	0.000000	0.001789	0.001804	28.0805	0.071786	0.002077	34.5608	-40.5479	21.1847	-0.108357	0.031131	-1.058448	-1.059799	-0.061450	34.5608	-1.057115	-1.330585E+14	4.618244E-16	NaN
774	1.000000	0.042494	7.37263e+06	-38839.1	1055.82	-29796	0.000000	0.000000	6.042766	0.041737	NaN	0.000000	0.001765	0.001694	28.0821	0.090534	0.002088	43.36	-74.7974	-167.403	-0.015135	0.041162	-1.048436	-1.049768	0.041737	43.36	-1.049158	-1.040137E+14	-4.012669E-16	NaN
774	1.000000	0.052489	7.37263e+06	-38839.1	1055.82	-29796	0.000000	0.000000	6.052759	-0.000461	NaN	0.000000	0.001756	0.001761	28.082	0.160016	0.001965	81.4536	-21.4373	11.9888	-0.005767	0.051129	-1.038440	-1.039801	-0.000461	81.4536	-1.038436	-7.463369E+13	6.179771E-18	NaN
774	1.000000	0.062494	7.37263e+06	-38839.1	1055.82	-29796	0.000000	0.000000	6.062764	-0.004280	NaN	0.000000	0.001753	0.001730	28.082	0.105643	0.002031	52.0143	25.5405	-166.976	0.025453	0.061186	-1.028435	-1.029744	-0.004280	52.0143	-1.028374	-5.465177E+13	7.831101E-17	NaN
774	1.000000	0.072486	7.37263e+06	-38839.1	1055.82	-29796	0.000000	0.000000	6.072756	-0.015680	NaN	0.000000	0.001736	0.001771	28.0821	0.044991	0.001792	25.1133	34.0445	14.0625	0.026963	0.071124	-1.018443	-1.019806	-0.015680	25.1133	-1.017975	-3.960095E+13	3.959462E-16	NaN
774	1.000000	0.082457	7.37263e+06	-38839.1	1055.82	-29796	0.000000	0.000000	6.082726	-0.041134	NaN	0.000000	0.001719	0.001766	28.082	0.021942	0.002090	10.4998	-83.2712	-164.188	0.003603	0.081170	-1.008472	-1.009759	-0.041134	10.4998	-1.005534	-2.693198E+13	1.527330E-15	NaN
774	1.000000	0.092468	7.37263e+06	-38839.1	1055.82	-29796	0.000000	0.000000	6.092738	0.005133	NaN	0.000000	0.001737	0.001792	28.0819	0.036763	0.002067	17.788	-122.005	15.2018	-0.009812	0.091143	-0.998461	-0.999787	0.005133	17.788	-0.998678	-2.177549E+13	-2.357251E-16	NaN
774	1.000000	0.102503	7.37263e+06	-38839.1	1055.82	-29796	0.000000	0.000000	6.102773	0.003361	NaN	0.000000	0.001711	0.001782	28.0818	0.049296	0.001965	25.0814	115.901	-164.568	0.023625	0.101206	-0.988427	-0.989724	0.003361	25.0814	-0.988527	-1.589547E+13	-2.114207E-16	NaN
774	1.000000	0.112483	7.37263e+06	-38839.1	1055.82	-29796	0.000000	0.000000	6.112752	-0.032577	NaN	0.000000	0.001739	0.001797	28.082	0.087882	0.001956	44.9338	114.539	15.4661	-0.006686	0.111136	-0.978447	-0.979793	-0.032577	44.9338	-0.977903	-1.143289E+13	2.849372E-15	NaN
774	1.000000	0.122522	7.37263e+06	-38839.1	1055.82	-29796	0.000000	0.000000	6.122793	0.007746	NaN	0.000000	0.001731	0.001801	28.0818	0.131950	0.001956	67.466	-107.973	-167.356	0.012861	0.121191	-0.968407	-0.969738	0.007746	67.466	-0.968493	-8.538024E+12	-9.072793E-16	NaN
774	1.000000	0.132533	7.37263e+06	-38839.1	1055.82	-29796	0.000000	0.000000	6.132804	0.010162	NaN	0.000000	0.001713	0.001772	28.082	0.020481	0.001939	10.5604	-63.1048	13.7525	-0.055198	0.131076	-0.958396	-0.959854	0.010162	10.5604	-0.959118	-6.382332E+12	-1.592285E-15	NaN
774	1.000000	0.142504	7.37263e+06	-38839.1	1055.82	-29796	0.000000	0.000000	6.142776	0.041552	NaN	0.000000	0.001704	0.001800	28.082	0.102326	0.001916	53.3992	-143.787	-163.8	-0.051771	0.141167	-0.948425	-0.949763	0.041552	53.3992	-0.949009	-4.662953E+12	-8.911121E-15	NaN
774	1.000000	0.152517	7.37263e+06	-38839.1	1055.82	-29796	0.000000	0.000000	6.152787	0.003337	NaN	0.000000	0.001706	0.001803	28.0819	0.063122	0.002142	29.4707	-114.673	14.6424	0.016208	0.151171	-0.938413	-0.939759	0.003337	29.4707	-0.938498	-3.364103E+12	-9.920546E-16	NaN
774	1.000000	0.162515	7.37263e+06	-38839.1	1055.82	-29796	0.000000	0.000000	6.162786	0.037914	NaN	0.000000	0.001717	0.001807	28.0816	0.056689	0.001994	28.4353	-171.474	-165.873	0.137102	0.161202	-0.928415	-0.929728	0.037914	28.4353	-0.929415	-2.536873E+12	-1.494503E-14	NaN
774	1.000000	0.172526	7.37263e+06	-38839.1	1055.82	-29796	0.000000	0.000000	6.172796	0.019251	NaN	0.000000	0.001697	0.001793	28.0812	0.040511	0.001913	21.1816	-66.4556	13.338	-0.023334	0.171155	-0.918404	-0.919774	0.019251	21.1816	-0.919086	-1.840183E+12	-1.046120E-14	NaN
774	1.000000	0.182513	7.37263e+06	-38839.1	1055.82	-29796	0.000000	0.000000	6.182781	-0.051463	NaN	0.000000	0.001691	0.001784	28.0804	0.048936	0.001927	25.3885	60.4166	-162.826	-0.071803	0.181225	-0.908417	-0.909704	-0.051463	25.3885	-0.906897	-1.259631E+12	4.085563E-14	NaN
774	1.000000	0.192536	7.37263e+06	-38839.1	1055.82	-29796	0.000000	0.000000	6.192806	0.008253	NaN	0.000000	0.001695	0.001809	28.0802	0.011891	0.002086	5.700157	-69.8274	17.0628	-0.084304	0.191164	-0.898393	-0.899765	0.008253	5.700157	-0.899479	-1.000074E+12	-8.252757E-15	NaN
774	1.000000	0.202563	7.37263e+06	-38839.1	1055.82	-29796	0.000000	0.000000	6.202834	0.021129	NaN	0.000000	0.001699	0.001782	28.0804	0.058279	0.001987	29.3235	164.513	-169.264	0.037957	0.201302	-0.888367	-0.889628	0.021129	29.3235	-0.888907	-7.196862E+11	-2.935887E-14	NaN
774	1.000000	0.212543	7.37263e+06	-38839.1	1055.82	-29796	0.000000	0.000000	6.212812	-0.023529	NaN	0.000000	0.001704	0.001772	28.0805	0.085457	0.001878	45.5024	-149.523	14.6579	-0.049057	0.211133	-0.878387	-0.879797	-0.023529	45.5024	-0.877999	-5.124432E+11	4.591491E-14	NaN
774	1.000000	0.222567	7.37263e+06	-38839.1	1055.82	-29796	0.000000	0.000000	6.222837	-0.000696	NaN	0.000000	0.001705	0.001750	28.0809	0.042596	0.001939	21.9733	-102.14	-164.365	0.068232	0.221227	-0.868363	-0.869703	-0.000696	21.9733	-0.868339	-3.792908E+11	1.834585E-15	NaN
774	1.000000	0.232546	7.37263e+06	-38839.1	1055.82	-29796	0.000000	0.000000	6.232818	0.054749	NaN	0.000000	0.001685	0.001743	28.0805	0.066079	0.001893	34.9141	35.5894	15.3848	0.013959	0.231274	-0.858384	-0.859655	0.054749	34.9141	-0.859560	-2.885133E+11	-1.897631E-13	NaN
774	1.000000	0.242564	7.37263e+06	-38839.1	1055.82	-29796	0.000000	0.000000	6.242834	0.018369	NaN	0.000000	0.001691	0.001745	28.0806	0.071886	0.002227	32.2834	-25.3414	-166.212	-0.002104	0.241249	-0.848366	-0.849681	0.018369	32.2834	-0.848793	-2.062482E+11	-8.906430E-14	NaN
774	1.000000	0.252540	7.37263e+06	-38839.1	1055.82	-29796	0.000000	0.000000	6.252809	-0.023393	NaN	0.000000	0.001745	0.001773	28.0806	0.132863	0.001999	66.4608	-27.1836	14.7541	-0.074565	0.251217	-0.838390	-0.839713	-0.023393	66.4608	-0.838126	-1.478762E+11	1.581943E-13	NaN
774	1.000000	0.262574	7.37263e+06	-38839.1	1055.82	-29796.1	0.000000	0.000000	6.262843	-0.042259	NaN	0.000000	0.001685	0.001785	28.0807	0.060509	0.002012	30.0764	-52.4057	-165.196	-0.026351	0.261198	-0.828355	-0.829732	-0.042259	30.0764	-0.827302	-1.054891E+11	4.005983E-13	NaN
774	1.000000	0.272559	7.37263e+06	-38839.1	1055.82	-29796.1	0.000000	0.000000	6.272826	-0.071556	NaN	0.000000	0.001646	0.001820	28.0805	0.063583	0.002017	31.5199	178.694	17.5271	0.034539	0.271213	-0.818370	-0.819717	-0.071556	31.5199	-0.816668	-7.568645E+10	9.454212E-13	NaN
774	1.000000	0.282604	7.37263e+06	-38839.1	1055.82	-29796	0.000000	0.000000	6.282871	-0.071915	NaN	0.000000	0.001686	0.001791	28.0807	0.102418	0.002054	49.8529	-3.262327	-165.17	-0.050161	0.281231	-0.808326	-0.809698	-0.071915	49.8529	-0.807244	-5.638627E+10	1.275401E-12	NaN
774	1.000000	0.292599	7.37263e+06	-38839.1	1055.82	-29796.1	0.000000	0.000000	6.292868	-0.010387	NaN	0.000000	0.001665	0.001751	28.0806	0.061204	0.002061	29.6979	-111.843	9.926289	-0.038013	0.291185	-0.798331	-0.799744	-0.010387	29.6979	-0.798068	-4.232938E+10	2.453887E-13	NaN
774	1.000000	0.302572	7.37263e+06	-38839.1	1055.82	-29796.1	0.000000	0.000000	6.302840	-0.051702	NaN	0.000000	0.001691	0.001788	28.0816	0.018975	0.002019	9.400417	42.1224	-168.796	-0.087245	0.301254	-0.788358	-0.789676	-0.051702	9.400417	-0.784233	-2.746257E+10	1.882635E-12	NaN
774	1.000000	0.312585	7.37263e+06	-38839.1	1055.82	-29796.1	0.000000	0.000000	6.312854	-0.032338	NaN	0.000000	0.001697	0.001763	28.0818	0.038186	0.001983	19.2589	61.5426	15.3296	0.059962	0.311235	-0.778344	-0.779694	-0.032338	19.2589	-0.777085	-2.195915E+10	1.472664E-12	NaN
774	1.000000	0.322590	7.37263e+06	-38839.1	1055.82	-29796.1	0.000000	0.000000	6.322859	-0.018861	NaN	0.000000	0.001611	0.001803	28.0818	0.082275	0.001992	41.3007	-123.96	-164.594	0.021148	0.321322	-0.768340	-0.769608	-0.018861	41.3007	-0.767997	-1.652231E+10	1.141544E-12	NaN
774	1.000000	0.332608	7.37263e+06	-38839.1	1055.82	-29796.1	0.000000	0.000000	6.332880	0.037462	NaN	0.000000	0.001614	0.001781	28.0818	0.084797	0.002117	40.0533	-69.5813	15.7548	-0.021738	0.331236	-0.758321	-0.759694	0.037462	40.0533	-0.759023	-1.247398E+10	-3.003178E-12	NaN
774	1.000000	0.342619	7.37263e+06	-38839.1	1055.82	-29796.1	0.000000	0.000000	6.342889	-0.000621	NaN	0.000000	0.001593	0.001787	28.0816	0.103334	0.002054	50.3197	-59.396	-164.782	-0.015356	0.341294	-0.748311	-0.749636	-0.000621	50.3197	-0.748302	-8.914571E+9	6.968794E-14	NaN
774	1.000000	0.352621	7.37263e+06	-38839.1	1055.82	-29796.1	0.000000	0.000000	6.352889	-0.054610	NaN	0.000000	0.001630	0.001799	28.0815	0.180688	0.001951	92.6021	156.632	13.7015	-0.081639	0.351231	-0.738309	-0.739698	-0.054610	92.6021	-0.737867	-6.426800E+9	8.497264E-12	NaN
774	1.000000	0.362599	7.37263e+06	-38839.1	1055.82	-29796.1	0.000000	0.000000	6.362868	-0.027579	NaN	0.000000	0.001644	0.001810	28.0817	0.113347	0.001925	58.8667	68.5218	-162.972	-0.117662	0.361306	-0.728330	-0.729623	-0.027579	58.8667	-0.727979	-4.712583E+9	5.852159E-12	NaN
774	1.000000	0.372609	7.37263e+06	-38839.1	1055.82	-29796.1	0.000000	0.000000	6.372880	0.035411	NaN	0.000000	0.001692	0.001741	28.0817	0.034413	0.001858	18.5184	-161.853	15.0572	0.003324	0.371304	-0.718321	-0.719626	0.035411	18.5184	-0.719755	-3.640277E+9	-9.727547E-12	NaN
774	1.000000	0.382635	7.37263e+06	-38839.1	1055.82	-29796.1	0.000000	0.000000	6.382904	-0.030085	NaN	0.000000	0.001684	0.001794	28.0815	0.071194	0.001984	35.8831	171.321	-166.859	0.024483	0.381329	-0.708294	-0.709601	-0.030085	35.8831	-0.707665	-2.489919E+9	1.208285E-11	NaN
774	1.000000	0.392649	7.37263e+06	-38839.1	1055.82	-29796.1	0.000000	0.000000	6.392917	-0.038812	NaN	0.000000	0.001626	0.001754	28.0817	0.081662	0.001943	42.0246	150.33	15.1572	0.032603	0.391252	-0.698281	-0.699678	-0.038812	42.0246	-0.697588	-1.813813E+9	2.139803E-11	NaN
774	1.000000	0.402620	7.37263e+06	-38839.1	1055.82	-29796.1	0.000000	0.000000	6.402891	0.019789	NaN	0.000000	0.001631	0.001784	28.0819	0.048222	0.002065	23.3506	-124.634	-167.859	-0.008398	0.401361	-0.688309	-0.689568	0.019789	23.3506	-0.688945	-1.381964E+9	-1.431965E-11	NaN
774	1.000000	0.412643	7.37263e+06	-38839.1	1055.82	-29796.1	0.000000	0.000000	6.412911	-0.046887	NaN	0.000000	0.001609	0.001775	28.0817	0.026104	0.002166	12.0545	150.792	14.6462	0.028838	0.411299	-0.678286	-0.679631	-0.046887	12.0545	-0.675369	-9.012830E+8	5.202235E-11	NaN
774	1.000000	0.422629	7.37263e+06	-38839.1	1055.82	-29796.1	0.000000	0.000000	6.422899	-0.002589	NaN	0.000000	0.001653	0.001789	28.0817	0.069858	0.002015	34.6715	55.9644	-166.799	0.006663	0.421361	-0.668301	-0.669568	-0.002589	34.6715	-0.668245	-7.200528E+8	3.595648E-12	NaN
774	1.000000	0.432644	7.37263e+06	-38839.1	1055.82	-29796.1	0.000000	0.000000	6.432914	-0.003593	NaN	0.000000	0.001617	0.001792	28.0818	0.011549	0.002045	5.646165	78.227	16.3016	-0.004637	0.431284	-0.658286	-0.659646	-0.003593	5.646165	-0.657809	-5.181414E+8	6.935120E-12	NaN
774	1.000000	0.442646	7.37263e+06	-38839.1	1055.82	-29796.1	0.000000	0.000000	6.442915	-0.028092	NaN	0.000000	0.001615	0.001794	28.0818	0.057562	0.001965	29.2952	-41.5252	-165.193	-0.009070	0.441318	-0.648283	-0.649612	-0.028092	29.2952	-0.647564	-3.750050E+8	7.491162E-11	NaN
774	1.000000	0.452629	7.37263e+06	-38839.1	1055.82	-29796.1	0.000000	0.000000	6.452899	0.011565	NaN	0.000000	0.001671	0.001814	28.0809	0.013316	0.001977	6.735311	-11.1449	13.51	0.004160	0.451275	-0.638301	-0.639654	0.011565	6.735311	-0.639589	-2.915060E+8	-3.967289E-11	NaN
774	1.000000	0.462654	7.37263e+06	-38839.1	1055.82	-29796.1	0.000000	0.000000	6.462925	0.031283	NaN	0.000000	0.001642	0.001768	28.0806	0.115989	0.002049	56.6135	-117.075	-165.941	-0.006626	0.461316	-0.628276	-0.629613	0.031283	56.6135	-0.628690	-2.065542E+8	-1.514495E-10	NaN
774	1.000000	0.472672	7.37263e+06	-38839.1	1055.82	-29796.1	0.000000	0.000000	6.472943	0.029958	NaN	0.000000	0.001661	0.001743	28.0807	0.061680	0.002076	29.7067	53.3104	18.6704	0.048292	0.471326	-0.618258	-0.619603	0.029958	29.7067	-0.619014	-1.520822E+8	-1.969843E-10	NaN
774	1.000000	0.482660	7.37263e+06	-38839.1	1055.82	-29796.1	0.000000	0.000000	6.482928	-0.043768	NaN	0.000000	0.001649	0.001780	28.0806	0.108413	0.001991	54.4486	-30.3712	-163.791	0.005610	0.481375	-0.608270	-0.609555	-0.043768	54.4486	-0.607667	-1.061718E+8	4.122391E-10	NaN
774	1.000000	0.492655	7.37263e+06	-38839.1	1055.82	-29796.1	0.000000	0.000000	6.492924	-0.026211	NaN	0.000000	0.001667	0.001789	28.0806	0.093395	0.002035	45.9022	-80.2593	15.431	-0.061054	0.491308	-0.598275	-0.599621	-0.026211	45.9022	-0.597847	-7.776760E+7	3.370481E-10	NaN
774	1.000000	0.502669	7.37263e+06	-38839.1	1055.82	-29796.1	0.000000	0.000000	6.502939	-0.004754	NaN	0.000000	0.001697	0.001797	28.0806	0.145050	0.001929	75.2033	-126.723	-167.183	-0.025816	0.501326	-0.588261	-0.589604	-0.004754	75.2033	-0.588213	-5.728399E+7	8.299363E-11	NaN
774	1.000000	0.512654	7.37263e+06	-38839.1	1055.82	-29796.1	0.000000	0.000000	6.512924	-0.013377	NaN	0.000000	0.001669	0.001777	28.0806	0.081248	0.001931	42.0657	169.745	15.6297	-0.048576	0.511342	-0.578275	-0.579588	-0.013377	42.0657	-0.578037	-4.145992E+7	3.226560E-10	NaN
774	1.000000	0.522684	7.37263e+06	-38839.1	1055.82	-29796.1	0.000000	0.000000	6.522951	-0.081624	NaN	0.000000	0.001692	0.001720	28.0806	0.087141	0.002179	39.9865	90.5017	-165.259	-0.072797	0.521359	-0.568245	-0.569571	-0.081624	39.9865	-0.566714	-2.892173E+7	2.822230E-9	NaN
774	1.000000	0.532654	7.37263e+06	-38839.1	1055.82	-29796.1	0.000000	0.000000	6.532922	-0.034812	NaN	0.000000	0.001651	0.001771	28.0806	0.083067	0.002023	41.0647	-86.3494	12.7644	0.007988	0.531338	-0.558276	-0.559591	-0.034812	41.0647	-0.557640	-2.166344E+7	1.606930E-9	NaN
774	1.000000	0.542687	7.37263e+06	-38839.1	1055.82	-29796.1	0.000000	0.000000	6.542958	0.030969	NaN	0.000000	0.001679	0.001752	28.0806	0.033825	0.002016	16.782	-131.868	-166.192	-0.091195	0.541430	-0.548242	-0.549499	0.030969	16.782	-0.549626	-1.677961E+7	-1.845607E-9	NaN
774	1.000000	0.552689	7.37263e+06	-38839.1	1055.82	-29796.1	0.000000	0.000000	6.552959	-0.004274	NaN	0.000000	0.001704	0.001734	28.0809	0.067345	0.001937	34.7597	-152.829	13.905	-0.026648	0.551316	-0.538241	-0.539613	-0.004274	34.7597	-0.538149	-1.163264E+7	3.673894E-10	NaN
774	1.000000	0.562705	7.37263e+06	-38839.1	1055.82	-29796.1	0.000000	0.000000	6.562974	-0.039751	NaN	0.000000	0.001676	0.001726	28.0806	0.047259	0.002010	23.5138	175.887	-167.913	-0.114075	0.561387	-0.528224	-0.529543	-0.039751	23.5138	-0.526956	-8.13388e+06	4.887091E-9	NaN
774	1.000000	0.572716	7.37263e+06	-38839.1	1055.82	-29796.1	0.000000	0.000000	6.572986	0.000800	NaN	0.000000	0.001655	0.001723	28.0808	0.119537	0.001922	62.2059	142.106	14.2958	-0.016984	0.571338	-0.518213	-0.519591	0.000800	62.2059	-0.518223	-6.15009e+06	-1.300017E-10	NaN
774	1.000000	0.582696	7.37263e+06	-38839.1	1055.82	-29796.1	0.000000	0.000000	6.582964	-0.058308	NaN	0.000000	0.001699	0.001714	28.0808	0.061710	0.002090	29.5197	125.649	-164.473	-0.020214	0.581377	-0.508234	-0.509552	-0.058308	29.5197	-0.506752	-4.2576e+06	1.369513E-8	NaN
774	1.000000	0.592717	7.37263e+06	-38839.1	1055.82	-29796.1	0.000000	0.000000	6.592987	-0.005729	NaN	0.000000	0.001645	0.001712	28.0816	0.026479	0.001792	14.7741	111.986	11.4088	-0.015648	0.591327	-0.498213	-0.499602	-0.005729	14.7741	-0.497922	-3.20644e+06	1.786829E-9	NaN
774	1.000000	0.602701	7.37263e+06	-38839.1	1055.82	-29796.1	0.000000	0.000000	6.602973	0.035299	NaN	0.000000	0.001671	0.001748	28.0817	0.034226	0.002145	15.9593	-148.165	-167.326	0.021121	0.601420	-0.488228	-0.489509	0.035299	15.9593	-0.489887	-2.47637e+06	-1.425421E-8	NaN
774	1.000000	0.612694	7.37263e+06	-38839.1	1055.82	-29796.1	0.000000	0.000000	6.612964	-0.004928	NaN	0.000000	0.001611	0.001719	28.0818	0.102305	0.002150	47.5943	124.321	13.2263	0.027136	0.611344	-0.478236	-0.479586	-0.004928	47.5943	-0.478158	-1.69721e+06	2.903476E-9	NaN
774	1.000000	0.622698	7.37263e+06	-38839.1	1055.82	-29796.1	0.000000	0.000000	6.622965	-0.074394	NaN	0.000000	0.001638	0.001694	28.0819	0.051397	0.002007	25.6054	29.1917	-166.275	-0.079761	0.621426	-0.468231	-0.469504	-0.074394	25.6054	-0.466052	-1.14821e+06	6.479131E-8	NaN
774	1.000000	0.632719	7.37263e+06	-38839.1	1055.82	-29796.1	0.000000	0.000000	6.632987	-0.063954	NaN	0.000000	0.001660	0.001692	28.0818	0.151445	0.002036	74.3697	-135.44	14.1561	0.014375	0.631389	-0.458210	-0.459540	-0.063954	74.3697	-0.457565	-872558	7.329506E-8	NaN
774	1.000000	0.642746	7.37263e+06	-38839.1	1055.82	-29796.1	0.000000	0.000000	6.643015	-0.026904	NaN	0.000000	0.001702	0.001675	28.0818	0.066425	0.001970	33.7188	-155.781	-165.205	-0.018591	0.641395	-0.448184	-0.449534	-0.026904	33.7188	-0.447585	-631433	4.260856E-8	NaN
774	1.000000	0.652717	7.37263e+06	-38839.1	1055.82	-29796.1	0.000000	0.000000	6.652984	-0.059622	NaN	0.000000	0.001686	0.001680	28.0819	0.060340	0.001772	34.0516	83.1652	14.0851	-0.057830	0.651386	-0.438213	-0.439544	-0.059622	34.0516	-0.436900	-446264	1.336016E-7	NaN
774	1.000000	0.662726	7.37263e+06	-38839.1	1055.82	-29796.1	0.000000	0.000000	6.662996	-0.009533	NaN	0.000000	0.001652	0.001687	28.0819	0.078327	0.002031	38.5574	-172.609	-166.422	0.044506	0.661445	-0.428203	-0.429485	-0.009533	38.5574	-0.428018	-334206	2.852535E-8	NaN
774	1.000000	0.672716	7.37263e+06	-38839.1	1055.82	-29796.1	0.000000	0.000000	6.672985	-0.042246	NaN	0.000000	0.001643	0.001682	28.0818	0.054178	0.002009	26.961	-2.753343	15.3555	0.051062	0.671346	-0.418213	-0.419583	-0.042246	26.961	-0.417038	-233555	1.808807E-7	NaN
774	1.000000	0.682734	7.37263e+06	-38839.1	1055.82	-29796.1	0.000000	0.000000	6.683001	-0.072917	NaN	0.000000	0.001595	0.001667	28.0818	0.074475	0.001893	39.3353	-28.5662	-165.105	0.019195	0.681398	-0.408196	-0.409531	-0.072917	39.3353	-0.406806	-167092	4.363896E-7	NaN
774	1.000000	0.692747	7.37263e+06	-38839.1	1055.82	-29796.1	0.000000	0.000000	6.693014	-0.078933	NaN	0.000000	0.001641	0.001667	28.082	0.114702	0.002092	54.8353	42.2843	12.5086	-0.038853	0.691395	-0.398183	-0.399535	-0.078933	54.8353	-0.397103	-121524	6.495242E-7	NaN
774	1.000000	0.702760	7.37263e+06	-38839.1	1055.82	-29796.1	0.000000	0.000000	6.703028	-0.050528	NaN	0.000000	0.001631	0.001685	28.0819	0.088940	0.001971	45.1243	-123.247	-165.464	-0.033290	0.701404	-0.388169	-0.389526	-0.050528	45.1243	-0.387329	-88094.1	5.735652E-7	NaN
774	1.000000	0.712746	7.37263e+06	-38839.1	1055.82	-29796.1	0.000000	0.000000	6.713015	-0.030477	NaN	0.000000	0.001606	0.001712	28.0818	0.029740	0.001938	15.3483	143.575	12.3217	-0.069763	0.711370	-0.378183	-0.379559	-0.030477	15.3483	-0.376694	-62003.6	4.915300E-7	NaN
774	1.000000	0.722745	7.37263e+06	-38839.1	1055.82	-29796.1	0.000000	0.000000	6.723017	0.040623	NaN	0.000000	0.001631	0.001682	28.0807	0.014388	0.002050	7.019846	118.114	-163.113	-0.035804	0.721461	-0.368184	-0.369469	0.040623	7.019846	-0.372525	-54009.4	-7.521418E-7	NaN
774	1.000000	0.732774	7.37263e+06	-38839.1	1055.82	-29796.1	0.000000	0.000000	6.733044	0.009648	NaN	0.000000	0.001623	0.001701	28.0804	0.091720	0.002055	44.6401	-129.323	14.8607	-0.036387	0.731392	-0.358156	-0.359538	0.009648	44.6401	-0.358318	-33691.6	-2.863594E-7	NaN
774	1.000000	0.742765	7.37263e+06	-38839.1	1055.82	-29796.1	0.000000	0.000000	6.743032	-0.059392	NaN	0.000000	0.001657	0.001706	28.0806	0.020760	0.002021	10.2712	117.425	-166.525	-0.022418	0.741444	-0.348165	-0.349485	-0.059392	10.2712	-0.343828	-20763.8	2.860347E-6	NaN
774	1.000000	0.752758	7.37263e+06	-38839.1	1055.82	-29796.1	0.000000	0.000000	6.753029	0.016778	NaN	0.000000	0.001612	0.001724	28.0806	0.035206	0.001940	18.1467	106.808	14.8599	-0.061446	0.751395	-0.338171	-0.339535	0.016778	18.1467	-0.338865	-17579.3	-9.544177E-7	NaN
774	1.000000	0.762770	7.37263e+06	-38839.1	1055.82	-29796.1	0.000000	0.000000	6.763036	-0.096156	NaN	0.000000	0.001593	0.001682	28.0809	0.076502	0.002030	37.6834	117.236	-162.205	-0.024505	0.761536	-0.328160	-0.329394	-0.096156	37.6834	-0.326246	-11492.6	8.366747E-6	NaN
774	1.000000	0.772763	7.37263e+06	-38839.1	1055.82	-29796.1	0.000000	0.000000	6.773031	-0.028635	NaN	0.000000	0.001674	0.001661	28.0806	0.109713	0.002000	54.8498	6.505103	14.7169	-0.023464	0.771452	-0.318167	-0.319477	-0.028635	54.8498	-0.317775	-8627.34	3.319076E-6	NaN
774	1.000000	0.782785	7.37263e+06	-38839.1	1055.82	-29796.1	0.000000	0.000000	6.783053	-0.037051	NaN	0.000000	0.001669	0.001662	28.0808	0.103067	0.001983	51.9746	70.1088	-164.691	-0.034578	0.781465	-0.308145	-0.309464	-0.037051	51.9746	-0.307610	-6104.7	6.069186E-6	NaN
774	1.000000	0.792804	7.37263e+06	-38839.1	1055.82	-29796.1	0.000000	0.000000	6.793074	-0.021048	NaN	0.000000	0.001614	0.001702	28.0806	0.055988	0.001830	30.6025	-56.2919	14.0429	0.014250	0.791450	-0.298125	-0.299479	-0.021048	30.6025	-0.297609	-4335.32	4.854973E-6	NaN
774	1.000000	0.802800	7.37263e+06	-38839.1	1055.82	-29796.1	0.000000	0.000000	6.803069	-0.047105	NaN	0.000000	0.001655	0.001686	28.0808	0.117491	0.001926	61.0071	-175.589	-164.936	0.009211	0.801481	-0.288129	-0.289448	-0.047105	61.0071	-0.287550	-3065.97	1.536372E-5	NaN
774	1.000000	0.812787	7.37263e+06	-38839.1	1055.82	-29796.1	0.000000	0.000000	6.813055	-0.041228	NaN	0.000000	0.001623	0.001722	28.0805	0.037651	0.002059	18.2836	155.873	12.1397	-0.054701	0.811437	-0.278143	-0.279493	-0.041228	18.2836	-0.276452	-2086.27	1.976140E-5	NaN
774	1.000000	0.822809	7.37263e+06	-38839.1	1055.82	-29796.1	0.000000	0.000000	6.823080	0.039886	NaN	0.000000	0.001632	0.001692	28.0808	0.161236	0.002143	75.255	-64.1429	-168.146	0.047932	0.821469	-0.268121	-0.269460	0.039886	75.255	-0.268519	-1581.29	-2.522335E-5	NaN
774	1.000000	0.832836	7.37263e+06	-38839.1	1055.82	-29796.1	0.000000	0.000000	6.833107	0.022553	NaN	0.000000	0.001653	0.001678	28.0808	0.057810	0.002037	28.3817	-146.851	16.649	-0.033133	0.831443	-0.258094	-0.259486	0.022553	28.3817	-0.258690	-1118.98	-2.015480E-5	NaN
774	1.000000	0.842826	7.37263e+06	-38839.1	1055.82	-29796.1	0.000000	0.000000	6.843094	-0.043838	NaN	0.000000	0.001621	0.001758	28.0809	0.043720	0.002055	21.2787	137.682	-169.292	-0.042704	0.841553	-0.248104	-0.249376	-0.043838	21.2787	-0.246559	-727.207	6.028288E-5	NaN
774	1.000000	0.852803	7.37263e+06	-38839.1	1055.82	-29796.1	0.000000	0.000000	6.853071	-0.026748	NaN	0.000000	0.001645	0.001718	28.0806	0.056484	0.002066	27.3354	-173.825	15.8102	-0.027598	0.851506	-0.238127	-0.239424	-0.026748	27.3354	-0.237393	-523.335	5.110992E-5	NaN
774	1.000000	0.862815	7.37263e+06	-38839.1	1055.82	-29796.1	0.000000	0.000000	6.863084	-0.039596	NaN	0.000000	0.001641	0.001701	28.0821	0.085620	0.001959	43.7156	139.595	-165.124	-0.003215	0.861470	-0.228114	-0.229459	-0.039596	43.7156	-0.227435	-364.715	0.000109	NaN
774	1.000000	0.872827	7.37263e+06	-38839.1	1055.82	-29796.1	0.000000	0.000000	6.873094	-0.080229	NaN	0.000000	0.001653	0.001659	28.082	0.020820	0.002010	10.3599	-43.2869	15.0968	-0.142717	0.871408	-0.218103	-0.219522	-0.080229	10.3599	-0.212294	-208.89	0.000384	NaN
774	1.000000	0.882817	7.37263e+06	-38839.1	1055.82	-29796.1	0.000000	0.000000	6.883085	-0.051505	NaN	0.000000	0.001662	0.001695	28.0819	0.099020	0.002044	48.4348	-110.472	-164.881	-0.000954	0.881542	-0.208112	-0.209387	-0.051505	48.4348	-0.207315	-173.48	0.000297	NaN
774	1.000000	0.892824	7.37263e+06	-38839.1	1055.82	-29796.1	0.000000	0.000000	6.893092	-0.041974	NaN	0.000000	0.001643	0.001693	28.0818	0.034841	0.001992	17.491	-137.662	16.7674	-0.013615	0.891514	-0.198106	-0.199416	-0.041974	17.491	-0.196306	-114.502	0.000367	NaN
774	1.000000	0.902845	7.37263e+06	-38839.1	1055.82	-29796.1	0.000000	0.000000	6.903114	-0.025907	NaN	0.000000	0.001628	0.001709	28.0819	0.053434	0.001877	28.474	-143.615	-161.796	-0.080802	0.901544	-0.188084	-0.189386	-0.025907	28.474	-0.187402	-81.3823	0.000318	NaN
774	1.000000	0.912857	7.37263e+06	-38839.1	1055.82	-29796.1	0.000000	0.000000	6.913124	-0.076085	NaN	0.000000	0.001700	0.001710	28.0818	0.033297	0.001936	17.1989	-137.694	11.6871	0.011707	0.911494	-0.178072	-0.179436	-0.076085	17.1989	-0.174755	-49.6321	0.001533	NaN
774	1.000000	0.922837	7.37263e+06	-38839.1	1055.82	-29796.1	0.000000	0.000000	6.923106	-0.030453	NaN	0.000000	0.001756	0.001697	28.0819	0.132573	0.001903	69.649	101.34	-162.094	-0.026800	0.921519	-0.168092	-0.169410	-0.030453	69.649	-0.167765	-37.5577	0.000811	NaN
774	1.000000	0.932836	7.37263e+06	-38839.1	1055.82	-29796.1	0.000000	0.000000	6.933105	-0.007330	NaN	0.000000	0.001753	0.001720	28.0818	0.049266	0.002026	24.3152	-53.6209	16.2715	-0.026612	0.931460	-0.158094	-0.159470	-0.007330	24.3152	-0.157868	-25.1188	0.000292	NaN
774	1.000000	0.942856	7.37263e+06	-38839.1	1055.82	-29796.1	0.000000	0.000000	6.943123	-0.068583	NaN	0.000000	0.001721	0.001703	28.082	0.145993	0.002075	70.3527	-165.591	-168.196	-0.088030	0.941563	-0.148074	-0.149366	-0.068583	70.3527	-0.147343	-16.1942	0.004235	NaN
774	1.000000	0.952867	7.37263e+06	-38839.1	1055.82	-29796.1	0.000000	0.000000	6.953135	-0.043664	NaN	0.000000	0.001733	0.001679	28.0818	0.133864	0.001935	69.1657	-72.551	17.2903	-0.116432	0.951490	-0.138062	-0.139439	-0.043664	69.1657	-0.137589	-10.6538	0.004098	NaN
774	1.000000	0.962866	7.37263e+06	-38839.1	1055.82	-29796.1	0.000000	0.000000	6.963135	-0.020138	NaN	0.000000	0.001698	0.001688	28.0819	0.128610	0.002083	61.7534	43.9012	-163.521	0.021295	0.961562	-0.128063	-0.129367	-0.020138	61.7534	-0.127819	-6.909962	0.002914	NaN
774	1.000000	0.972872	7.37263e+06	-38839.1	1055.82	-29796.1	0.000000	0.000000	6.973143	0.016123	NaN	0.000000	0.001738	0.001676	28.0819	0.053151	0.001954	27.2017	5.231098	15.4694	-0.090900	0.971478	-0.118057	-0.119452	0.016123	27.2017	-0.118502	-4.505624	-0.003578	NaN
774	1.000000	0.982864	7.37263e+06	-38839.1	1055.82	-29796.1	0.000000	0.000000	6.983132	-0.052102	NaN	0.000000	0.001743	0.001718	28.0821	0.068897	0.001959	35.1608	100.634	-167.17	-0.052087	0.981558	-0.108065	-0.109372	-0.052102	35.1608	-0.106954	-2.589270	0.020122	NaN
774	1.000000	0.992848	7.37263e+06	-38839.1	1055.82	-29796.1	0.000000	0.000000	6.993122	0.108029	NaN	0.000000	0.001731	0.001700	28.0813	0.014354	0.001952	7.354810	-105.278	13.3855	-0.037941	0.991503	-0.098082	-0.099427	0.108029	7.354810	-0.109098	-2.876181	-0.037560	NaN
774	1.000000	1.002850	7.37263e+06	-38839.1	1055.82	-29796.1	0.000000	0.000000	7.003117	-0.086059	NaN	0.000000	0.001703	0.001733	28.0806	0.034444	0.001979	17.4056	143.572	-168.538	-0.085640	1.001613	-0.088079	-0.089316	-0.086059	17.4056	-0.084371	-0.793276	0.108485	NaN
774	1.000000	1.012901	7.37263e+06	-38839.1	1055.82	-29796.1	0.000000	0.000000	7.013169	-0.053722	NaN	0.000000	0.001687	0.001689	28.0806	0.048479	0.001999	24.2549	102.663	14.1939	-0.061265	1.011475	-0.078028	-0.079454	-0.053722	24.2549	-0.076367	-0.500866	0.107258	NaN
774	1.000000	1.022889	7.37263e+06	-38839.1	1055.82	-29796.1	0.000000	0.000000	7.023159	0.011977	NaN	0.000000	0.001716	0.001736	28.0807	0.033384	0.002043	16.3385	-136.843	-166.399	-0.021687	1.021625	-0.068041	-0.069304	0.011977	16.3385	-0.068590	-0.312568	-0.038317	NaN
774	1.000000	1.032891	7.37263e+06	-38839.1	1055.82	-29796.1	0.000000	0.000000	7.033156	-0.110295	NaN	0.000000	0.001714	0.001698	28.0805	0.159943	0.001978	80.8572	-0.428976	17.6223	-0.085056	1.031519	-0.058039	-0.059411	-0.110295	80.8572	-0.057016	-0.147599	0.747256	NaN
774	1.000000	1.042868	7.37263e+06	-38839.1	1055.82	-29796	0.000000	0.000000	7.043138	-0.002136	NaN	0.000000	0.001708	0.001723	28.0806	0.052316	0.002057	25.4311	68.5867	-164.362	-0.089756	1.041549	-0.048062	-0.049381	-0.002136	25.4311	-0.047999	-0.079346	0.026918	NaN
774	1.000000	1.052920	7.37263e+06	-38839.1	1055.82	-29796.1	0.000000	0.000000	7.053189	-0.010163	NaN	0.000000	0.001741	0.001716	28.0807	0.099659	0.002064	48.2901	62.1566	16.1812	0.037447	1.051553	-0.038010	-0.039376	-0.010163	48.2901	-0.037852	-0.038942	0.260987	NaN
774	1.000000	1.062918	7.37263e+06	-38839.1	1055.82	-29796.1	0.000000	0.000000	7.063187	-0.029481	NaN	0.000000	0.001723	0.001725	28.0806	0.056073	0.002013	27.8608	-160.126	-165.851	-0.104158	1.061603	-0.028011	-0.029326	-0.029481	27.8608	-0.027218	-0.019313	1.526504	NaN
774	1.000000	1.072900	7.37263e+06	-38839.1	1055.82	-29796.1	0.000000	0.000000	7.073168	-0.032292	NaN	0.000000	0.001716	0.001708	28.0806	0.090203	0.001968	45.8375	46.5667	14.0775	-0.045821	1.071559	-0.018030	-0.019371	-0.032292	45.8375	-0.017502	-0.010834	2.980550	NaN
774	1.000000	1.082908	7.37263e+06	-38839.1	1055.82	-29796.1	0.000000	0.000000	7.083175	-0.074478	NaN	0.000000	0.001694	0.001741	28.0805	0.169093	0.002118	79.8508	17.136	-169.906	-0.123116	1.081641	-0.008022	-0.009289	-0.074478	79.8508	-0.007322	-0.004832	15.413	NaN
774	1.000000	1.092852	7.37263e+06	-38839.1	1055.82	-29796.1	0.000000	0.000000	7.093432	7.537362	NaN	0.000000	0.001632	0.001771	28.0807	8.395020	0.001846	4548.59	12.4656	9.022910	5.975497	1.091529	0.001922	0.000600	7.537362	4548.59	0.000680	0.000515	14645.6	183187
774	2.000000	1.096414	7.37263e+06	-38839.1	1055.82	-29796.1	0.000000	0.000000	7.097239	13.4928	NaN	0.000000	0.001662	0.001714	28.0806	11.6633	0.001662	7017.93	5.552087	-174.177	12.4676	1.096097	0.005484	0.005167	13.4928	7017.93	0.004042	0.003276	4118.4	112020
774	2.000000	1.098913	7.37263e+06	-38839.1	1055.82	-29796.1	0.000000	0.000000	7.099884	17.0632	NaN	0.000000	0.001654	0.001768	28.081	14.4068	0.001601	8995.99	6.365759	2.847133	16.4057	1.098583	0.007984	0.007653	17.0632	8995.99	0.006561	0.005604	3045.01	109796
774	2.000000	1.101404	7.37263e+06	-38839.1	1055.82	-29796.1	0.000000	0.000000	7.102580	22.0413	NaN	0.000000	0.001670	0.001685	28.0805	17.5913	0.001778	9895.48	6.276291	-175.868	21.838	1.101071	0.010474	0.010141	22.0413	9895.48	0.008804	0.007882	2796.34	101833
774	2.000000	1.103893	7.37263e+06	-38839.1	1055.82	-29796.1	0.000000	0.000000	7.105398	30.0496	NaN	0.000000	0.001654	0.001723	28.0824	20.1375	0.001820	11062.6	4.564060	5.067054	28.5882	1.103491	0.012964	0.012561	30.0496	11062.6	0.010926	0.010229	2937.58	99932.1
774	2.000000	1.106375	7.37263e+06	-38839.1	1055.82	-29796.1	0.000000	0.000000	7.107870	29.8046	NaN	0.000000	0.001656	0.001718	28.0816	22.4738	0.001883	11936.3	6.842510	-176.748	29.09	1.106016	0.015445	0.015087	29.8046	11936.3	0.013573	0.013429	2219.44	94107.7
774	2.000000	1.108892	7.37263e+06	-38839.1	1055.82	-29796.1	0.000000	0.000000	7.110654	36.3122	NaN	0.000000	0.001620	0.001766	28.0821	24.573	0.001835	13394.2	5.640153	1.788234	35.4661	1.108574	0.017962	0.017645	36.3122	13394.2	0.015929	0.016544	2194.84	95140.5
774	2.000000	1.111394	7.37263e+06	-38839.1	1055.82	-29796.1	0.000000	0.000000	7.113420	42.7356	NaN	0.000000	0.001656	0.001717	28.0817	26.9771	0.001854	14549.3	9.455058	179.458	44.9654	1.111036	0.020464	0.020106	42.7356	14549.3	0.018261	0.019883	2149.33	94269.7
774	2.000000	1.113847	7.37263e+06	-38839.1	1055.82	-29796.1	0.000000	0.000000	7.115916	43.7815	NaN	0.000000	0.001636	0.001751	28.0821	28.0227	0.001742	16090.2	2.538761	3.056853	41.2991	1.113499	0.022917	0.022570	43.7815	16090.2	0.020877	0.023939	1828.91	95013.7
774	2.000000	1.116357	7.37263e+06	-38839.1	1055.82	-29796.1	0.000000	0.000000	7.118809	53.1145	NaN	0.000000	0.001621	0.001707	28.0818	30.6898	0.001743	17603.5	3.110094	-178.429	52.358	1.116010	0.025427	0.025080	53.1145	17603.5	0.023164	0.027760	1913.32	96529.3
774	2.000000	1.118863	7.37263e+06	-38839.1	1055.82	-29796.1	0.000000	0.000000	7.121496	57.4976	NaN	0.000000	0.001666	0.001725	28.0819	33.3946	0.001878	17781.7	3.432119	1.638200	56.8774	1.118557	0.027933	0.027628	57.4976	17781.7	0.025508	0.031947	1799.79	90893.4
774	2.000000	1.121363	7.37263e+06	-38839.1	1055.82	-29796.1	0.000000	0.000000	7.124360	66.3479	NaN	0.000000	0.001702	0.001742	28.082	35.215	0.001763	19978.8	4.286213	179.466	66.4419	1.120998	0.030434	0.030068	66.3479	19978.8	0.027943	0.036588	1813.37	95427.2
774	2.000000	1.123878	7.37263e+06	-38839.1	1055.82	-29796.1	0.000000	0.000000	7.127153	73.1396	NaN	0.000000	0.001659	0.001707	28.0822	37.3849	0.001780	20996.9	5.761960	-1.547421	73.3291	1.123471	0.032948	0.032542	73.1396	20996.9	0.030336	0.041442	1764.85	94233.7
774	2.000000	1.126264	7.37263e+06	-38839.1	1055.82	-29796.1	0.000000	0.000000	7.129678	76.5089	NaN	0.000000	0.001672	0.001711	28.0819	38.7697	0.001893	20480.1	3.590857	-179.404	73.463	1.126048	0.035335	0.035119	76.5089	20480.1	0.032533	0.046157	1657.58	87093.6
774	2.000000	1.128789	7.37263e+06	-38839.1	1055.82	-29796.1	0.000000	0.000000	7.132581	85.6938	NaN	0.000000	0.001716	0.001701	28.0829	41.0508	0.001749	23464.8	1.727089	0.597649	82.6893	1.128456	0.037860	0.037527	85.6938	23464.8	0.035121	0.052027	1647.09	93988.2
774	2.000000	1.131309	7.37263e+06	-38839.1	1055.82	-29796.1	0.000000	0.000000	7.135512	95.7082	NaN	0.000000	0.001647	0.001741	28.082	43.9436	0.001811	24271.1	4.866719	177.513	95.5019	1.130985	0.040380	0.040055	95.7082	24271.1	0.037422	0.057536	1663.44	92446.8
774	2.000000	1.133876	7.37263e+06	-38839.1	1055.82	-29796.1	0.000000	0.000000	7.138341	102.069	NaN	0.000000	0.001638	0.001729	28.0821	45.7464	0.001814	25221.6	4.666488	-1.905384	102.792	1.133456	0.042947	0.042527	102.069	25221.6	0.039912	0.063800	1599.81	91229.4
774	2.000000	1.136321	7.37263e+06	-38839.1	1055.82	-29796.1	0.000000	0.000000	7.141349	115.8	NaN	0.000000	0.001686	0.001693	28.0818	46.7899	0.001833	25531.4	2.458736	179.586	114.69	1.135951	0.045391	0.045022	115.8	25531.4	0.041990	0.069271	1671.69	88628
774	2.000000	1.138824	7.37263e+06	-38839.1	1055.82	-29796.1	0.000000	0.000000	7.144167	123.443	NaN	0.000000	0.001695	0.001721	28.0816	49.2547	0.001730	28476.9	5.778712	-4.215143	122.789	1.138458	0.047895	0.047528	123.443	28476.9	0.044644	0.076579	1611.97	94017.9
774	2.000000	1.141276	7.37263e+06	-38839.1	1055.82	-29796.1	0.000000	0.000000	7.146928	130.971	NaN	0.000000	0.001697	0.001708	28.0807	52.8146	0.001841	28689.4	7.743799	173.531	129.034	1.141054	0.050346	0.050124	130.971	28689.4	0.046923	0.083139	1575.32	90906.1
774	2.000000	1.143741	7.37263e+06	-38839.1	1055.82	-29796.1	0.000000	0.000000	7.149674	137.813	NaN	0.000000	0.001716	0.001706	28.0811	53.9183	0.001827	29504.8	4.038862	-2.887990	132.637	1.143461	0.052811	0.052531	137.813	29504.8	0.049308	0.090287	1526.38	89712.6
774	2.000000	1.146326	7.37263e+06	-38839.1	1055.82	-29796.1	0.000000	0.000000	7.152763	150.085	NaN	0.000000	0.001704	0.001688	28.0804	56.6657	0.001725	32842.8	7.695646	172.223	150.3	1.146036	0.055396	0.055107	150.085	32842.8	0.051969	0.098596	1522.23	95561.8
774	2.000000	1.148732	7.37263e+06	-38839.1	1055.82	-29796.1	0.000000	0.000000	7.155602	160.627	NaN	0.000000	0.001711	0.001720	28.0811	60.021	0.001903	31533.1	5.923691	-5.117464	156.351	1.148334	0.057802	0.057404	160.627	31533.1	0.053982	0.105117	1528.07	88859.4
774	2.000000	1.151338	7.37263e+06	-38839.1	1055.82	-29796.1	0.000000	0.000000	7.158650	171.376	NaN	0.000000	0.001708	0.001690	28.0805	61.9101	0.001794	34501.4	2.493269	177.079	172.019	1.151111	0.060408	0.060181	171.376	34501.4	0.056683	0.114183	1500.89	93284.4
774	2.000000	1.153798	7.37263e+06	-38839.1	1055.82	-29796.1	0.000000	0.000000	7.161577	182.75	NaN	0.000000	0.001671	0.001691	28.0807	64.2149	0.001803	35612.4	5.002140	-5.592794	179.572	1.153362	0.062868	0.062433	182.75	35612.4	0.059019	0.122315	1494.1	93032.4
774	2.000000	1.156304	7.37263e+06	-38839.1	1055.82	-29796.1	0.000000	0.000000	7.164522	193.407	NaN	0.000000	0.001691	0.001719	28.0806	66.9131	0.001858	36012.7	3.188777	176.053	192.877	1.156004	0.065375	0.065074	193.407	36012.7	0.061347	0.130682	1479.98	91016.7
774	2.000000	1.158729	7.37263e+06	-38839.1	1055.82	-29796.1	0.000000	0.000000	7.167557	208.284	NaN	0.000000	0.001654	0.001703	28.0809	68.6674	0.001776	38660.1	5.373146	-6.323392	203.012	1.158311	0.067799	0.067381	208.284	38660.1	0.063758	0.139629	1491.7	94525.4
774	2.000000	1.161458	7.37263e+06	-38839.1	1055.82	-29796	0.000000	0.000000	7.170801	220.788	NaN	0.000000	0.001667	0.001677	28.0805	72.1202	0.001874	38494.5	7.354373	172.653	228.949	1.160969	0.070529	0.070040	220.788	38494.5	0.066227	0.149080	1481.01	91088.4
774	2.000000	1.163656	7.37263e+06	-38839.1	1055.82	-29796	0.000000	0.000000	7.173856	241.657	NaN	0.000000	0.001679	0.001715	28.0805	73.066	0.001826	40015.7	3.694155	-5.538677	232.752	1.163385	0.072726	0.072456	241.657	40015.7	0.068197	0.156831	1540.87	92318.4
774	2.000000	1.166286	7.37263e+06	-38839.1	1055.82	-29796	0.000000	0.000000	7.176769	248.555	NaN	0.000000	0.001671	0.001686	28.0807	74.529	0.001721	43315.4	4.182927	174.066	247.02	1.166051	0.075356	0.075121	248.555	43315.4	0.071052	0.168395	1476.02	96438.6
774	2.000000	1.168732	7.37263e+06	-38839.1	1055.82	-29796.1	0.000000	0.000000	7.179629	258.605	NaN	0.000000	0.001652	0.001670	28.0805	79.0112	0.001863	42403.4	8.557463	-9.842963	254.763	1.168438	0.077802	0.077508	258.605	42403.4	0.073228	0.177468	1457.2	91963.3
774	2.000000	1.171284	7.37263e+06	-38839.1	1055.82	-29796.1	0.000000	0.000000	7.182759	272.672	NaN	0.000000	0.001652	0.001651	28.0812	80.5485	0.001820	44262.9	4.364162	173.975	273.126	1.170947	0.080354	0.080017	272.672	44262.9	0.075734	0.188193	1448.9	93220.5
774	2.000000	1.173822	7.37263e+06	-38839.1	1055.82	-29796.1	0.000000	0.000000	7.185989	289.522	NaN	0.000000	0.001648	0.001696	28.0819	81.4205	0.001728	47112.2	3.545955	-5.017261	289.59	1.173419	0.082892	0.082489	289.522	47112.2	0.078283	0.199407	1451.92	96391
774	2.000000	1.176298	7.37263e+06	-38839.1	1055.82	-29796	0.000000	0.000000	7.189461	313.757	NaN	0.000000	0.001651	0.001688	28.082	83.4557	0.001714	48684.9	2.812868	175.63	313.887	1.175821	0.085369	0.084891	313.757	48684.9	0.080535	0.209565	1497.18	97164.8
774	2.000000	1.178870	7.37263e+06	-38839.1	1055.82	-29796.1	0.000000	0.000000	7.192528	325.805	NaN	0.000000	0.001651	0.001697	28.082	87.0696	0.001693	51439.1	7.538852	-9.551641	330.563	1.178241	0.087940	0.087311	325.805	51439.1	0.083190	0.221844	1468.62	99780
774	2.000000	1.181198	7.37263e+06	-38839.1	1055.82	-29796.1	0.000000	0.000000	7.195832	349.54	NaN	0.000000	0.001640	0.001688	28.0819	91.2398	0.001810	50396.8	5.734308	171.763	346.131	1.180894	0.090269	0.089965	349.54	50396.8	0.085067	0.230720	1515	95859
774	2.000000	1.183592	7.37263e+06	-38839.1	1055.82	-29796	0.000000	0.000000	7.198445	354.882	NaN	0.000000	0.001676	0.001690	28.0822	91.7156	0.001852	49531.8	2.720973	-5.503486	342.141	1.183272	0.092662	0.092343	354.882	49531.8	0.087289	0.241440	1469.86	92098.6
774	2.000000	1.186201	7.37263e+06	-38839.1	1055.82	-29796	0.000000	0.000000	7.202115	380.712	NaN	0.000000	0.001690	0.001681	28.0819	93.7861	0.001712	54785	3.386987	173.544	375.961	1.185924	0.095271	0.094994	380.712	54785	0.090059	0.255125	1492.26	99096.4
774	2.000000	1.188756	7.37263e+06	-38839.1	1055.82	-29796	0.000000	0.000000	7.205070	390.433	NaN	0.000000	0.001675	0.001660	28.0819	98.0465	0.001740	56347.1	7.507611	-11.393	388.355	1.188500	0.097827	0.097570	390.433	56347.1	0.092630	0.268140	1456.08	99417.9
774	2.000000	1.191349	7.37263e+06	-38839.1	1055.82	-29796.1	0.000000	0.000000	7.208533	411.617	NaN	0.000000	0.001621	0.001681	28.0818	100.133	0.001738	57602.5	2.770857	174.253	416.667	1.190930	0.100419	0.100000	411.617	57602.5	0.095060	0.280718	1466.3	99329.8
774	2.000000	1.192636	7.37263e+06	-38839.1	1055.82	-29796.1	0.000000	0.000000	7.210839	436.408	NaN	0.000000	0.001651	0.001631	28.0819	101.638	0.001841	55202.1	4.911889	-7.596990	428.061	1.192176	0.101706	0.101246	436.408	55202.1	0.095777	0.284480	1534.06	94559.1