File: remote_trans/data/nanoindenter/0828-1/data/Data_2025-08-06,11h17m57s/2025-07-22_16-23-58_1_114.txt
2025-07-22, 16:23:58, 1
Index	Phase	Displacement	Time	Pos X	Pos Y	Pos Z	Rot A	Rot B	Piezo Z	Force A	Force B	Gripper	Voltage A	Voltage B	Temperature	Amplitude force	Amplitude pos	Stiffness	Phase shift	Phase excitation	Force A raw	Displacement raw	HMax	HMax raw	Real Force	Real Stiffness	Contact Depth	Area	Hardness	Reduced Mod.
[#]	[#]	[um]	[s]	[um]	[um]	[um]	[m°]	[m°]	[um]	[uN]	[uN]	[V]	[V]	[V]	[°C]	[uN]	[um]	[N/m]	[°]	[°]	[uN]	[um]	[um]	[um]	[uN]	[N/m]	[um]	[um^2]	[MPa]	[MPa]
114	1.000000	0.002266	7.36615e+06	-44339.1	955.818	-29776.7	0.000000	0.000000	6.002811	-0.096882	NaN	0.000000	0.001699	0.001696	28.1048	0.052791	0.000867	60.909	122.697	-164.747	-0.086208	0.000991	-1.009165	-1.010440	-0.096882	60.909	-1.007972	-2.904615E+13	3.335441E-15	NaN
114	1.000000	0.010222	7.36615e+06	-44339.1	955.818	-29776.7	0.000000	0.000000	6.010770	-0.034193	NaN	0.000000	0.001675	0.001723	28.1042	0.062067	0.001037	59.8363	35.1187	-167.615	-0.023345	0.008916	-1.001209	-1.002515	-0.034193	59.8363	-1.000780	-2.324205E+13	1.471167E-15	NaN
114	1.000000	0.018213	7.36615e+06	-44339.1	955.819	-29776.7	0.000000	0.000000	6.018761	-0.029330	NaN	0.000000	0.001692	0.001726	28.1036	0.048567	0.001728	28.1043	76.046	-164.571	-0.027692	0.016904	-0.993218	-0.994527	-0.029330	28.1043	-0.992435	-1.794337E+13	1.634580E-15	NaN
114	1.000000	0.026269	7.36615e+06	-44339.1	955.819	-29776.7	0.000000	0.000000	6.026816	-0.059609	NaN	0.000000	0.001652	0.001697	28.1031	0.040269	0.001908	21.1097	127.885	-163.732	0.050264	0.024867	-0.985162	-0.986564	-0.059609	21.1097	-0.983044	-1.340959E+13	4.445238E-15	NaN
114	1.000000	0.034210	7.36615e+06	-44339.1	955.819	-29776.7	0.000000	0.000000	6.034757	-0.049610	NaN	0.000000	0.001661	0.001679	28.103	0.090045	0.001877	47.9771	159.083	-162.015	0.051109	0.032918	-0.977221	-0.978513	-0.049610	47.9771	-0.976446	-1.092749E+13	4.539956E-15	NaN
114	1.000000	0.042211	7.36615e+06	-44339.1	955.819	-29776.7	0.000000	0.000000	6.042758	-0.031180	NaN	0.000000	0.001695	0.001719	28.1031	0.055278	0.001977	27.9591	-30.8753	-166.556	-0.009307	0.040870	-0.969220	-0.970561	-0.031180	27.9591	-0.968384	-8.509021E+12	3.664360E-15	NaN
114	1.000000	0.050214	7.36615e+06	-44339.1	955.819	-29776.7	0.000000	0.000000	6.050762	-0.019155	NaN	0.000000	0.001682	0.001696	28.1024	0.064568	0.001852	34.8582	-167.43	-165.143	-0.101832	0.048900	-0.961217	-0.962531	-0.019155	34.8582	-0.960805	-6.725460E+12	2.848107E-15	NaN
114	1.000000	0.058219	7.36615e+06	-44339.1	955.819	-29776.7	0.000000	0.000000	6.058765	-0.060918	NaN	0.000000	0.001677	0.001715	28.1036	0.039122	0.002055	19.0401	-73.1964	-164	-0.042839	0.056842	-0.953212	-0.954589	-0.060918	19.0401	-0.950813	-4.931612E+12	1.235263E-14	NaN
114	1.000000	0.066216	7.36615e+06	-44339.1	955.819	-29776.7	0.000000	0.000000	6.066764	-0.024100	NaN	0.000000	0.001666	0.001728	28.1038	0.056437	0.002158	26.1537	80.2175	-164.683	-0.023920	0.064917	-0.945215	-0.946514	-0.024100	26.1537	-0.944524	-4.056610E+12	5.940859E-15	NaN
114	1.000000	0.074218	7.36615e+06	-44339.1	955.819	-29776.7	0.000000	0.000000	6.074767	0.011387	NaN	0.000000	0.001653	0.001704	28.104	0.117680	0.001989	59.1769	129.937	-166.758	0.007127	0.072923	-0.937213	-0.938508	0.011387	59.1769	-0.937358	-3.247019E+12	-3.506856E-15	NaN
114	1.000000	0.082238	7.36615e+06	-44339.1	955.819	-29776.7	0.000000	0.000000	6.082786	-0.015492	NaN	0.000000	0.001630	0.001720	28.1045	0.061516	0.002066	29.7761	18.6559	-161.759	-0.019580	0.080901	-0.929193	-0.930530	-0.015492	29.7761	-0.928803	-2.489104E+12	6.224075E-15	NaN
114	1.000000	0.090239	7.36615e+06	-44339.1	955.818	-29776.7	0.000000	0.000000	6.090785	-0.066757	NaN	0.000000	0.001651	0.001705	28.1052	0.017905	0.001960	9.134481	-83.0569	-166.832	-0.074188	0.088899	-0.921192	-0.922532	-0.066757	9.134481	-0.915711	-1.656877E+12	4.029068E-14	NaN
114	1.000000	0.098226	7.36615e+06	-44339.1	955.819	-29776.7	0.000000	0.000000	6.098772	-0.065435	NaN	0.000000	0.001616	0.001713	28.106	0.085477	0.002079	41.1193	171.065	-165.38	-0.109501	0.096898	-0.913205	-0.914533	-0.065435	41.1193	-0.912012	-1.476848E+12	4.430749E-14	NaN
114	1.000000	0.106245	7.36615e+06	-44339.1	955.818	-29776.7	0.000000	0.000000	6.106791	-0.086474	NaN	0.000000	0.001641	0.001705	28.1051	0.037810	0.002066	18.3029	71.431	-163.146	-0.031089	0.104978	-0.905185	-0.906453	-0.086474	18.3029	-0.901642	-1.069678E+12	8.084116E-14	NaN
114	1.000000	0.114239	7.36615e+06	-44339.1	955.819	-29776.7	0.000000	0.000000	6.114785	-0.068472	NaN	0.000000	0.001694	0.001707	28.1044	0.051492	0.001923	26.7837	-56.1794	-161.712	-0.060079	0.112901	-0.897192	-0.898530	-0.068472	26.7837	-0.895274	-8.774171E+11	7.803826E-14	NaN
114	1.000000	0.122260	7.36615e+06	-44339.1	955.819	-29776.7	0.000000	0.000000	6.122807	-0.042111	NaN	0.000000	0.001696	0.001704	28.1057	0.069892	0.002041	34.237	-1.610028	-164.678	0.008251	0.120937	-0.889171	-0.890494	-0.042111	34.237	-0.888249	-7.050842E+11	5.972429E-14	NaN
114	1.000000	0.130244	7.36615e+06	-44339.1	955.818	-29776.7	0.000000	0.000000	6.130791	-0.037789	NaN	0.000000	0.001696	0.001666	28.1045	0.088876	0.001978	44.9299	128.317	-163.044	-0.000945	0.128916	-0.881187	-0.882515	-0.037789	44.9299	-0.880556	-5.549201E+11	6.809853E-14	NaN
114	1.000000	0.138252	7.36615e+06	-44339.1	955.819	-29776.7	0.000000	0.000000	6.138795	-0.131118	NaN	0.000000	0.001686	0.001686	28.1043	0.078116	0.002048	38.1509	53.8246	-165.694	-0.101320	0.136954	-0.873179	-0.874477	-0.131118	38.1509	-0.870602	-4.069913E+11	3.221633E-13	NaN
114	1.000000	0.146246	7.36615e+06	-44339.1	955.819	-29776.7	0.000000	0.000000	6.146794	-0.030137	NaN	0.000000	0.001677	0.001667	28.1062	0.101011	0.002038	49.5697	-162.322	-165.032	0.003855	0.144955	-0.865185	-0.866476	-0.030137	49.5697	-0.864729	-3.389395E+11	8.891421E-14	NaN
114	1.000000	0.154224	7.36615e+06	-44339.1	955.818	-29776.7	0.000000	0.000000	6.154772	-0.014151	NaN	0.000000	0.001680	0.001666	28.1064	0.062400	0.001986	31.4261	-138.006	-162.439	0.005124	0.152915	-0.857207	-0.858516	-0.014151	31.4261	-0.856869	-2.653024E+11	5.334096E-14	NaN
114	1.000000	0.162265	7.36615e+06	-44339.1	955.818	-29776.7	0.000000	0.000000	6.162812	-0.043540	NaN	0.000000	0.001727	0.001680	28.1067	0.044955	0.002096	21.4513	-28.9318	-167.973	-0.038670	0.160913	-0.849166	-0.850518	-0.043540	21.4513	-0.847644	-1.989878E+11	2.188070E-13	NaN
114	1.000000	0.170260	7.36615e+06	-44339.1	955.818	-29776.7	0.000000	0.000000	6.170808	-0.026188	NaN	0.000000	0.001740	0.001698	28.1061	0.027763	0.001866	14.8758	-18.4347	-164.642	0.014974	0.168993	-0.841171	-0.842438	-0.026188	14.8758	-0.839851	-1.560534E+11	1.678119E-13	NaN
114	1.000000	0.178223	7.36615e+06	-44339.1	955.818	-29776.7	0.000000	0.000000	6.178773	0.019379	NaN	0.000000	0.001708	0.001660	28.1061	0.071500	0.002009	35.589	142.948	-165.743	-0.062597	0.176932	-0.833208	-0.834499	0.019379	35.589	-0.833616	-1.284670E+11	-1.508489E-13	NaN
114	1.000000	0.186261	7.36615e+06	-44339.1	955.818	-29776.7	0.000000	0.000000	6.186810	0.007811	NaN	0.000000	0.001698	0.001684	28.1049	0.081209	0.002078	39.0723	-64.3514	-164.335	0.009721	0.184930	-0.825170	-0.826501	0.007811	39.0723	-0.825320	-9.916051E+10	-7.877169E-14	NaN
114	1.000000	0.194274	7.36615e+06	-44339.1	955.818	-29776.7	0.000000	0.000000	6.194820	-0.049567	NaN	0.000000	0.001718	0.001703	28.1049	0.091178	0.001996	45.6762	2.174231	-162.725	-0.026360	0.192948	-0.817157	-0.818483	-0.049567	45.6762	-0.816343	-7.492424E+10	6.615590E-13	NaN
114	1.000000	0.202227	7.36615e+06	-44339.1	955.818	-29776.7	0.000000	0.000000	6.202777	0.022469	NaN	0.000000	0.001733	0.001716	28.1048	0.079557	0.001975	40.2888	100.731	-168.2	-0.021529	0.200958	-0.809204	-0.810473	0.022469	40.2888	-0.809622	-6.073551E+10	-3.699430E-13	NaN
114	1.000000	0.210252	7.36615e+06	-44339.1	955.818	-29776.7	0.000000	0.000000	6.210799	-0.038010	NaN	0.000000	0.001726	0.001698	28.1046	0.074122	0.002003	37.005	35.7093	-162.624	-0.104605	0.209007	-0.801179	-0.802423	-0.038010	37.005	-0.800409	-4.554226E+10	8.346096E-13	NaN
114	1.000000	0.218267	7.36615e+06	-44339.1	955.818	-29776.7	0.000000	0.000000	6.218818	0.052214	NaN	0.000000	0.001705	0.001668	28.1042	0.031402	0.002058	15.2567	-120.098	-165.533	-0.008045	0.216920	-0.793164	-0.794511	0.052214	15.2567	-0.795731	-3.934603E+10	-1.327050E-12	NaN
114	1.000000	0.226289	7.36615e+06	-44339.1	955.818	-29776.7	0.000000	0.000000	6.226838	-0.021001	NaN	0.000000	0.001674	0.001681	28.1053	0.082171	0.001914	42.9382	-108.22	-166.762	-0.016803	0.224939	-0.785141	-0.786492	-0.021001	42.9382	-0.784775	-2.793219E+10	7.518542E-13	NaN
114	1.000000	0.234275	7.36615e+06	-44339.1	955.818	-29776.7	0.000000	0.000000	6.234827	0.063009	NaN	0.000000	0.001631	0.001707	28.105	0.055172	0.002082	26.4979	-135.169	-166.095	0.018593	0.232989	-0.777156	-0.778442	0.063009	26.4979	-0.778939	-2.327096E+10	-2.707605E-12	NaN
114	1.000000	0.242277	7.36615e+06	-44339.1	955.818	-29776.7	0.000000	0.000000	6.242824	-0.068491	NaN	0.000000	0.001657	0.001658	28.1046	0.051100	0.002110	24.2187	-11.478	-162.974	-0.029206	0.240967	-0.769153	-0.770464	-0.068491	24.2187	-0.767032	-1.603076E+10	4.272476E-12	NaN
114	1.000000	0.250284	7.36615e+06	-44339.1	955.819	-29776.7	0.000000	0.000000	6.250835	0.055180	NaN	0.000000	0.001635	0.001669	28.1057	0.067306	0.001901	35.3998	-44.1684	-164.358	0.032431	0.249010	-0.761147	-0.762421	0.055180	35.3998	-0.762316	-1.382948E+10	-3.990012E-12	NaN
114	1.000000	0.258286	7.36615e+06	-44339.1	955.818	-29776.7	0.000000	0.000000	6.258836	0.020401	NaN	0.000000	0.001649	0.001710	28.1049	0.048752	0.002018	24.1612	-30.5163	-166.27	0.033476	0.257021	-0.753145	-0.754410	0.020401	24.1612	-0.753778	-1.058394E+10	-1.927586E-12	NaN
114	1.000000	0.266300	7.36615e+06	-44339.1	955.818	-29776.7	0.000000	0.000000	6.266849	0.000324	NaN	0.000000	0.001665	0.001666	28.1054	0.094063	0.001918	49.031	25.8354	-166.29	-0.097954	0.264989	-0.745131	-0.746442	0.000324	49.031	-0.745136	-8.072318E+9	-4.017765E-14	NaN
114	1.000000	0.274312	7.36615e+06	-44339.1	955.818	-29776.7	0.000000	0.000000	6.274863	0.057141	NaN	0.000000	0.001680	0.001671	28.1036	0.024628	0.001906	12.9191	79.447	-166.813	0.051740	0.272977	-0.737119	-0.738454	0.057141	12.9191	-0.740437	-6.966314E+9	-8.202411E-12	NaN
114	1.000000	0.282304	7.36615e+06	-44339.1	955.818	-29776.7	0.000000	0.000000	6.282854	0.009217	NaN	0.000000	0.001660	0.001713	28.1043	0.034305	0.001996	17.1854	8.680358	-165.145	-0.018667	0.280964	-0.729126	-0.730467	0.009217	17.1854	-0.729529	-4.947487E+9	-1.863053E-12	NaN
114	1.000000	0.290307	7.36615e+06	-44339.1	955.818	-29776.7	0.000000	0.000000	6.290856	-0.003950	NaN	0.000000	0.001624	0.001719	28.105	0.082570	0.001992	41.4485	45.2688	-162.447	-0.064005	0.289008	-0.721124	-0.722423	-0.003950	41.4485	-0.721053	-3.791649E+9	1.041836E-12	NaN
114	1.000000	0.298306	7.36615e+06	-44339.1	955.819	-29776.7	0.000000	0.000000	6.298855	0.006528	NaN	0.000000	0.001612	0.001671	28.1042	0.034977	0.002065	16.9371	164.406	-165.072	-0.004982	0.296961	-0.713125	-0.714470	0.006528	16.9371	-0.713414	-2.982893E+9	-2.188350E-12	NaN
114	1.000000	0.306322	7.36615e+06	-44339.1	955.818	-29776.7	0.000000	0.000000	6.306869	-0.029149	NaN	0.000000	0.001640	0.001687	28.1055	0.100050	0.001878	53.2729	85.4131	-163.625	-0.089691	0.304972	-0.705109	-0.706459	-0.029149	53.2729	-0.704699	-2.268250E+9	1.285077E-11	NaN
114	1.000000	0.314294	7.36615e+06	-44339.1	955.818	-29776.7	0.000000	0.000000	6.314844	0.016958	NaN	0.000000	0.001669	0.001670	28.1055	0.093997	0.002017	46.5927	160.938	-167.463	-0.002147	0.313010	-0.697137	-0.698421	0.016958	46.5927	-0.697410	-1.803661E+9	-9.401997E-12	NaN
114	1.000000	0.322342	7.36615e+06	-44339.1	955.819	-29776.7	0.000000	0.000000	6.322889	-0.040638	NaN	0.000000	0.001664	0.001703	28.1055	0.109737	0.002089	52.5235	40.5375	-164.411	-0.059494	0.321014	-0.689089	-0.690417	-0.040638	52.5235	-0.688508	-1.363115E+9	2.981270E-11	NaN
114	1.000000	0.330315	7.36615e+06	-44339.1	955.818	-29776.7	0.000000	0.000000	6.330864	0.000937	NaN	0.000000	0.001645	0.001663	28.1057	0.045790	0.002018	22.6901	153.24	-168.79	0.039901	0.328966	-0.681116	-0.682465	0.000937	22.6901	-0.681147	-1.081172E+9	-8.668478E-13	NaN
114	1.000000	0.338341	7.36615e+06	-44339.1	955.818	-29776.7	0.000000	0.000000	6.338888	-0.032055	NaN	0.000000	0.001682	0.001729	28.1055	0.122661	0.001999	61.3639	-179.135	-162.57	-0.015140	0.337040	-0.673090	-0.674391	-0.032055	61.3639	-0.672699	-8.285535E+8	3.868746E-11	NaN
114	1.000000	0.346302	7.36615e+06	-44339.1	955.819	-29776.7	0.000000	0.000000	6.346853	0.049412	NaN	0.000000	0.001657	0.001743	28.1059	0.104995	0.001935	54.2587	68.4007	-167.146	0.039740	0.345090	-0.665129	-0.666341	0.049412	54.2587	-0.665812	-6.669067E+8	-7.409122E-11	NaN
114	1.000000	0.354298	7.36615e+06	-44339.1	955.818	-29776.7	0.000000	0.000000	6.354845	-0.043438	NaN	0.000000	0.001635	0.001750	28.1042	0.112931	0.001996	56.5835	141.117	-164.124	-0.003443	0.353050	-0.657133	-0.658381	-0.043438	56.5835	-0.656557	-4.980821E+8	8.721093E-11	NaN
114	1.000000	0.362316	7.36615e+06	-44339.1	955.818	-29776.7	0.000000	0.000000	6.362861	-0.100542	NaN	0.000000	0.001647	0.001704	28.1055	0.073726	0.001958	37.6532	-53.2736	-164.27	-0.058641	0.361052	-0.649115	-0.650379	-0.100542	37.6532	-0.647112	-3.696931E+8	2.719614E-10	NaN
114	1.000000	0.370334	7.36615e+06	-44339.1	955.817	-29776.7	0.000000	0.000000	6.370885	0.037598	NaN	0.000000	0.001686	0.001703	28.1064	0.023161	0.002082	11.1255	-160.774	-167.986	0.050777	0.369021	-0.641097	-0.642410	0.037598	11.1255	-0.643631	-3.312111E+8	-1.135167E-10	NaN
114	1.000000	0.378354	7.36615e+06	-44339.1	955.818	-29776.7	0.000000	0.000000	6.378903	0.014976	NaN	0.000000	0.001657	0.001720	28.106	0.092172	0.001895	48.6392	-62.9908	-165.974	0.152965	0.377059	-0.633077	-0.634371	0.014976	48.6392	-0.633308	-2.390263E+8	-6.265334E-11	NaN
114	1.000000	0.386351	7.36615e+06	-44339.1	955.818	-29776.7	0.000000	0.000000	6.386899	-0.028305	NaN	0.000000	0.001659	0.001755	28.1068	0.033681	0.002021	16.6616	-76.9054	-160.131	-0.024222	0.385043	-0.625080	-0.626387	-0.028305	16.6616	-0.623806	-1.769859E+8	1.599301E-10	NaN
114	1.000000	0.394352	7.36615e+06	-44339.1	955.818	-29776.7	0.000000	0.000000	6.394900	-0.032597	NaN	0.000000	0.001635	0.001742	28.107	0.076006	0.002083	36.488	-76.9144	-165.946	-0.023423	0.393010	-0.617079	-0.618421	-0.032597	36.488	-0.616408	-1.400420E+8	2.327666E-10	NaN
114	1.000000	0.402342	7.36615e+06	-44339.1	955.818	-29776.7	0.000000	0.000000	6.402891	-0.012673	NaN	0.000000	0.001659	0.001704	28.1072	0.087619	0.001876	46.6944	10.5926	-167.524	0.004528	0.401048	-0.609089	-0.610383	-0.012673	46.6944	-0.608885	-1.103509E+8	1.148469E-10	NaN
114	1.000000	0.410368	7.36615e+06	-44339.1	955.818	-29776.7	0.000000	0.000000	6.410916	-0.024974	NaN	0.000000	0.001668	0.001761	28.1074	0.047298	0.001923	24.5985	47.3011	-163.209	0.006894	0.409017	-0.601063	-0.602414	-0.024974	24.5985	-0.600301	-8.406338E+7	2.970866E-10	NaN
114	1.000000	0.418340	7.36615e+06	-44339.1	955.818	-29776.7	0.000000	0.000000	6.418888	-0.027511	NaN	0.000000	0.001632	0.001730	28.1064	0.033168	0.002174	15.2537	63.1974	-163.857	-0.044173	0.417028	-0.593090	-0.594403	-0.027511	15.2537	-0.591738	-6.406534E+7	4.294144E-10	NaN
114	1.000000	0.426331	7.36615e+06	-44339.1	955.818	-29776.7	0.000000	0.000000	6.426878	-0.043790	NaN	0.000000	0.001625	0.001775	28.1069	0.118893	0.002025	58.7106	-51.0631	-164.436	0.039758	0.425106	-0.585100	-0.586325	-0.043790	58.7106	-0.584541	-5.097777E+7	8.589968E-10	NaN
114	1.000000	0.434353	7.36615e+06	-44339.1	955.817	-29776.7	0.000000	0.000000	6.434903	0.025643	NaN	0.000000	0.001669	0.001772	28.1063	0.109926	0.002145	51.25	96.59	-163.831	0.025223	0.433007	-0.577078	-0.578424	0.025643	51.25	-0.577453	-4.069806E+7	-6.300749E-10	NaN
114	1.000000	0.442360	7.36615e+06	-44339.1	955.818	-29776.7	0.000000	0.000000	6.442908	-0.033068	NaN	0.000000	0.001633	0.001799	28.1067	0.153093	0.002078	73.6657	162.348	-168.263	-0.071516	0.441071	-0.569071	-0.570360	-0.033068	73.6657	-0.568734	-3.084192E+7	1.072176E-9	NaN
114	1.000000	0.450371	7.36615e+06	-44339.1	955.819	-29776.7	0.000000	0.000000	6.450918	-0.046184	NaN	0.000000	0.001605	0.001730	28.1069	0.054631	0.002045	26.7206	171.008	-163.681	-0.050432	0.449084	-0.561060	-0.562347	-0.046184	26.7206	-0.559764	-2.317995E+7	1.992400E-9	NaN
114	1.000000	0.458374	7.36615e+06	-44339.1	955.819	-29776.7	0.000000	0.000000	6.458921	-0.053536	NaN	0.000000	0.001616	0.001693	28.1063	0.016419	0.001822	9.011434	-57.3688	-165.187	-0.027632	0.457046	-0.553057	-0.554385	-0.053536	9.011434	-0.548601	-1.623957E+7	3.296635E-9	NaN
114	1.000000	0.466385	7.36615e+06	-44339.1	955.819	-29776.7	0.000000	0.000000	6.466935	0.037032	NaN	0.000000	0.001601	0.001756	28.1072	0.083133	0.001964	42.3238	5.887279	-161.846	0.034447	0.465066	-0.545046	-0.546365	0.037032	42.3238	-0.545702	-1.480509E+7	-2.501313E-9	NaN
114	1.000000	0.474382	7.36615e+06	-44339.1	955.818	-29776.7	0.000000	0.000000	6.474926	-0.102801	NaN	0.000000	0.001627	0.001764	28.1083	0.080776	0.002119	38.1133	-57.5269	-162.973	-0.119614	0.473060	-0.537049	-0.538371	-0.102801	38.1133	-0.535026	-1.052829E+7	9.764245E-9	NaN
114	1.000000	0.482389	7.36615e+06	-44339.1	955.818	-29776.7	0.000000	0.000000	6.482937	-0.024215	NaN	0.000000	0.001629	0.001741	28.1078	0.179172	0.002099	85.3613	-86.0646	-167.388	-0.003156	0.481065	-0.529042	-0.530366	-0.024215	85.3613	-0.528829	-8.6359e+06	2.803963E-9	NaN
114	1.000000	0.490390	7.36615e+06	-44339.1	955.818	-29776.7	0.000000	0.000000	6.490941	0.064347	NaN	0.000000	0.001687	0.001757	28.1078	0.046617	0.002055	22.6844	77.43	-166.061	0.065157	0.489111	-0.521041	-0.522320	0.064347	22.6844	-0.523169	-7.20543e+06	-8.930341E-9	NaN
114	1.000000	0.498402	7.36615e+06	-44339.1	955.818	-29776.7	0.000000	0.000000	6.498950	-0.013694	NaN	0.000000	0.001616	0.001746	28.1074	0.063957	0.002061	31.0301	-46.2226	-165.758	-0.008709	0.497097	-0.513029	-0.514334	-0.013694	31.0301	-0.512698	-5.15214e+06	2.657924E-9	NaN
114	1.000000	0.506383	7.36615e+06	-44339.1	955.818	-29776.7	0.000000	0.000000	6.506931	-0.030385	NaN	0.000000	0.001644	0.001729	28.1062	0.021917	0.002006	10.9248	133.689	-165.095	0.025208	0.505081	-0.505048	-0.506350	-0.030385	10.9248	-0.502962	-3.76985e+06	8.060111E-9	NaN
114	1.000000	0.514378	7.36615e+06	-44339.1	955.818	-29776.7	0.000000	0.000000	6.514926	-0.031704	NaN	0.000000	0.001621	0.001732	28.1057	0.052711	0.001971	26.7458	-164.56	-163.834	-0.060409	0.513098	-0.497053	-0.498333	-0.031704	26.7458	-0.496164	-3.03027e+06	1.046252E-8	NaN
114	1.000000	0.522384	7.36616e+06	-44339.1	955.819	-29776.7	0.000000	0.000000	6.522931	-0.047905	NaN	0.000000	0.001638	0.001778	28.1047	0.041283	0.001987	20.7772	125.538	-164.142	-0.069589	0.521069	-0.489047	-0.490361	-0.047905	20.7772	-0.487317	-2.27979e+06	2.101298E-8	NaN
114	1.000000	0.530420	7.36616e+06	-44339.1	955.818	-29776.7	0.000000	0.000000	6.530970	0.028590	NaN	0.000000	0.001672	0.001773	28.1061	0.084896	0.002039	41.6415	-108.615	-163.29	0.058763	0.529112	-0.481011	-0.482319	0.028590	41.6415	-0.481526	-1.89183e+06	-1.511260E-8	NaN
114	1.000000	0.538399	7.36616e+06	-44339.1	955.818	-29776.7	0.000000	0.000000	6.538949	0.012845	NaN	0.000000	0.001640	0.001748	28.1057	0.137072	0.002082	65.8373	-126.832	-163.926	-0.035892	0.537083	-0.473032	-0.474347	0.012845	65.8373	-0.473178	-1.44533e+06	-8.887494E-9	NaN
114	1.000000	0.546373	7.36616e+06	-44339.1	955.819	-29776.7	0.000000	0.000000	6.546921	-0.031421	NaN	0.000000	0.001644	0.001781	28.1056	0.108021	0.001988	54.3269	-52.3389	-161.364	0.020051	0.545129	-0.465058	-0.466302	-0.031421	54.3269	-0.464624	-1.0964e+06	2.865859E-8	NaN
114	1.000000	0.554419	7.36616e+06	-44339.1	955.818	-29776.7	0.000000	0.000000	6.554967	-0.018231	NaN	0.000000	0.001665	0.001705	28.1066	0.062824	0.001919	32.7333	-176.657	-164.196	-0.046979	0.553076	-0.457012	-0.458355	-0.018231	32.7333	-0.456595	-845564	2.156017E-8	NaN
114	1.000000	0.562396	7.36616e+06	-44339.1	955.817	-29776.7	0.000000	0.000000	6.562944	-0.017418	NaN	0.000000	0.001642	0.001752	28.107	0.101481	0.002058	49.3114	-9.666145	-164.17	0.052368	0.561126	-0.449035	-0.450305	-0.017418	49.3114	-0.448770	-656176	2.654402E-8	NaN
114	1.000000	0.570418	7.36616e+06	-44339.1	955.819	-29776.7	0.000000	0.000000	6.570962	-0.103501	NaN	0.000000	0.001690	0.001727	28.107	0.099572	0.001898	52.4533	-1.111043	-164.518	-0.084953	0.569118	-0.441013	-0.442313	-0.103501	52.4533	-0.439533	-486159	2.128955E-7	NaN
114	1.000000	0.578420	7.36616e+06	-44339.1	955.819	-29776.7	0.000000	0.000000	6.578969	0.003379	NaN	0.000000	0.001677	0.001718	28.1066	0.102809	0.002033	50.5746	-163.498	-163.944	0.010345	0.577162	-0.433011	-0.434269	0.003379	50.5746	-0.433061	-393868	-8.577848E-9	NaN
114	1.000000	0.586450	7.36616e+06	-44339.1	955.818	-29776.7	0.000000	0.000000	6.586999	0.001744	NaN	0.000000	0.001716	0.001725	28.1064	0.112713	0.002100	53.684	58.564	-162.564	0.001590	0.585122	-0.424980	-0.426309	0.001744	53.684	-0.425005	-302936	-5.756256E-9	NaN
114	1.000000	0.594424	7.36616e+06	-44339.1	955.818	-29776.7	0.000000	0.000000	6.594971	-0.038355	NaN	0.000000	0.001687	0.001744	28.1056	0.066032	0.001989	33.198	-50.2913	-169.702	0.059320	0.593144	-0.417007	-0.418286	-0.038355	33.198	-0.416140	-226802	1.691131E-7	NaN
114	1.000000	0.602423	7.36616e+06	-44339.1	955.818	-29776.7	0.000000	0.000000	6.602971	-0.017614	NaN	0.000000	0.001628	0.001747	28.1061	0.098426	0.002005	49.0899	-84.18	-162.903	-0.029188	0.601158	-0.409008	-0.410273	-0.017614	49.0899	-0.408739	-178016	9.894425E-8	NaN
114	1.000000	0.610448	7.36616e+06	-44339.1	955.818	-29776.7	0.000000	0.000000	6.610998	0.019304	NaN	0.000000	0.001646	0.001728	28.1074	0.038447	0.002064	18.6251	170.517	-165.164	0.103189	0.609123	-0.400983	-0.402308	0.019304	18.6251	-0.401760	-141610	-1.363161E-7	NaN
114	1.000000	0.618460	7.36616e+06	-44339.1	955.818	-29776.7	0.000000	0.000000	6.619010	0.015495	NaN	0.000000	0.001633	0.001711	28.106	0.050831	0.002008	25.3182	-32.3346	-164.077	-0.023379	0.617099	-0.392971	-0.394332	0.015495	25.3182	-0.393430	-107697	-1.438779E-7	NaN
114	1.000000	0.626444	7.36616e+06	-44339.1	955.818	-29776.7	0.000000	0.000000	6.626992	-0.015741	NaN	0.000000	0.001643	0.001726	28.1061	0.141254	0.002067	68.3214	68.243	-164.755	-0.028281	0.625146	-0.384987	-0.386285	-0.015741	68.3214	-0.384814	-81082.5	1.941314E-7	NaN
114	1.000000	0.634414	7.36616e+06	-44339.1	955.818	-29776.7	0.000000	0.000000	6.634961	-0.041822	NaN	0.000000	0.001656	0.001727	28.1078	0.113381	0.001970	57.5434	108.37	-163.954	-0.057249	0.633136	-0.377017	-0.378295	-0.041822	57.5434	-0.376472	-61549.2	6.794843E-7	NaN
114	1.000000	0.642447	7.36616e+06	-44339.1	955.818	-29776.7	0.000000	0.000000	6.642995	-0.020569	NaN	0.000000	0.001686	0.001699	28.1088	0.086844	0.002054	42.2816	144.359	-164.523	-0.030484	0.641153	-0.368984	-0.370278	-0.020569	42.2816	-0.368619	-47449.3	4.334940E-7	NaN
114	1.000000	0.650476	7.36616e+06	-44339.1	955.819	-29776.7	0.000000	0.000000	6.651026	0.025979	NaN	0.000000	0.001650	0.001726	28.1081	0.084825	0.002044	41.5012	-135.72	-167.08	-0.037545	0.649155	-0.360955	-0.362276	0.025979	41.5012	-0.361424	-37361.9	-6.953324E-7	NaN
114	1.000000	0.658446	7.36616e+06	-44339.1	955.818	-29776.7	0.000000	0.000000	6.658994	-1.875446E-5	NaN	0.000000	0.001634	0.001716	28.1082	0.075025	0.001958	38.3196	147.861	-164.48	-0.058075	0.657157	-0.352985	-0.354274	-1.875446E-5	38.3196	-0.352985	-28203.3	6.649752E-10	NaN
114	1.000000	0.666456	7.36616e+06	-44339.1	955.818	-29776.7	0.000000	0.000000	6.667004	-0.009032	NaN	0.000000	0.001626	0.001727	28.1071	0.057535	0.001999	28.7751	108.959	-164.71	-0.033448	0.665139	-0.344975	-0.346291	-0.009032	28.7751	-0.344740	-21407.8	4.219002E-7	NaN
114	1.000000	0.674475	7.36616e+06	-44339.1	955.817	-29776.7	0.000000	0.000000	6.675021	-0.052553	NaN	0.000000	0.001636	0.001702	28.1076	0.030282	0.001950	15.5272	-81.4641	-166.148	-0.074902	0.673226	-0.336956	-0.338205	-0.052553	15.5272	-0.334418	-15138.5	3.471482E-6	NaN
114	1.000000	0.682477	7.36616e+06	-44339.1	955.818	-29776.7	0.000000	0.000000	6.683024	-0.067486	NaN	0.000000	0.001647	0.001697	28.1078	0.043997	0.001986	22.1539	102.498	-163.215	-0.035225	0.681119	-0.328953	-0.330312	-0.067486	22.1539	-0.326669	-11658.1	5.788810E-6	NaN
114	1.000000	0.690467	7.36616e+06	-44339.1	955.818	-29776.7	0.000000	0.000000	6.691016	-0.017366	NaN	0.000000	0.001670	0.001682	28.107	0.024900	0.002024	12.3016	63.8161	-162.192	-0.090983	0.689166	-0.320963	-0.322265	-0.017366	12.3016	-0.319905	-9273.34	1.872647E-6	NaN
114	1.000000	0.698480	7.36616e+06	-44339.1	955.818	-29776.7	0.000000	0.000000	6.699030	0.014971	NaN	0.000000	0.001634	0.001685	28.1072	0.079232	0.002049	38.6653	-93.8936	-165.833	-0.017075	0.697188	-0.312951	-0.314243	0.014971	38.6653	-0.313241	-7395.64	-2.024290E-6	NaN
114	1.000000	0.706492	7.36616e+06	-44339.1	955.818	-29776.7	0.000000	0.000000	6.707038	-0.075639	NaN	0.000000	0.001614	0.001703	28.1078	0.020068	0.002104	9.540335	-36.8787	-165.937	-0.061883	0.705154	-0.304938	-0.306276	-0.075639	9.540335	-0.298992	-4545.99	1.663864E-5	NaN
114	1.000000	0.714497	7.36616e+06	-44339.1	955.818	-29776.7	0.000000	0.000000	6.715044	-0.052545	NaN	0.000000	0.001648	0.001686	28.1088	0.112969	0.001964	57.5097	-149.125	-163.906	0.021221	0.713189	-0.296934	-0.298242	-0.052545	57.5097	-0.296249	-4137.38	1.269998E-5	NaN
114	1.000000	0.722502	7.36616e+06	-44339.1	955.818	-29776.7	0.000000	0.000000	6.723052	0.033744	NaN	0.000000	0.001632	0.001733	28.1093	0.099002	0.001972	50.1982	152.692	-165.047	-0.032835	0.721196	-0.288929	-0.290235	0.033744	50.1982	-0.289433	-3271.95	-1.031297E-5	NaN
114	1.000000	0.730480	7.36616e+06	-44339.1	955.819	-29776.7	0.000000	0.000000	6.731026	-0.079079	NaN	0.000000	0.001632	0.001666	28.1086	0.124944	0.001926	64.8569	-12.3556	-168.82	-0.091175	0.729182	-0.280951	-0.282249	-0.079079	64.8569	-0.280036	-2363.28	3.346139E-5	NaN
114	1.000000	0.738498	7.36616e+06	-44339.1	955.819	-29776.7	0.000000	0.000000	6.739045	-0.029404	NaN	0.000000	0.001638	0.001691	28.1104	0.019167	0.001941	9.875610	-115.704	-165.075	-0.055889	0.737208	-0.272933	-0.274222	-0.029404	9.875610	-0.270700	-1706.8	1.722750E-5	NaN
114	1.000000	0.746487	7.36616e+06	-44339.1	955.818	-29776.7	0.000000	0.000000	6.747036	-0.001504	NaN	0.000000	0.001622	0.001694	28.1085	0.018398	0.001939	9.489666	63.5359	-164.337	-0.004897	0.745181	-0.264944	-0.266250	-0.001504	9.489666	-0.264825	-1389.05	1.082841E-6	NaN
114	1.000000	0.754525	7.36616e+06	-44339.1	955.818	-29776.7	0.000000	0.000000	6.755074	0.006265	NaN	0.000000	0.001625	0.001724	28.1083	0.023331	0.002064	11.302	-57.1526	-167.917	0.107784	0.753197	-0.256906	-0.258234	0.006265	11.302	-0.257322	-1066.17	-5.876472E-6	NaN
114	1.000000	0.762497	7.36616e+06	-44339.1	955.818	-29776.7	0.000000	0.000000	6.763046	0.012393	NaN	0.000000	0.001598	0.001707	28.1085	0.071260	0.001934	36.8445	130.226	-165.424	0.013194	0.761172	-0.248934	-0.250259	0.012393	36.8445	-0.249186	-798.684	-1.551700E-5	NaN
114	1.000000	0.770519	7.36616e+06	-44339.1	955.817	-29776.7	0.000000	0.000000	6.771066	-0.051777	NaN	0.000000	0.001596	0.001729	28.1075	0.010387	0.002023	5.135677	-132.05	-163.176	0.000218	0.769155	-0.240912	-0.242276	-0.051777	5.135677	-0.233350	-452.189	0.000115	NaN
114	1.000000	0.778519	7.36616e+06	-44339.1	955.819	-29776.7	0.000000	0.000000	6.779068	0.003103	NaN	0.000000	0.001608	0.001690	28.1072	0.035738	0.002114	16.9018	21.3222	-166.702	-0.039203	0.777224	-0.232912	-0.234207	0.003103	16.9018	-0.233050	-447.289	-6.937310E-6	NaN
114	1.000000	0.786507	7.36616e+06	-44339.1	955.819	-29776.7	0.000000	0.000000	6.787056	0.000489	NaN	0.000000	0.001584	0.001677	28.1076	0.062742	0.001923	32.6274	91.9613	-169.542	0.047134	0.785211	-0.224924	-0.226220	0.000489	32.6274	-0.224935	-332.892	-1.468816E-6	NaN
114	1.000000	0.794505	7.36616e+06	-44339.1	955.818	-29776.7	0.000000	0.000000	6.795053	-0.021787	NaN	0.000000	0.001641	0.001709	28.1078	0.074216	0.001963	37.8024	49.9668	-163.464	-0.031632	0.793250	-0.216926	-0.218181	-0.021787	37.8024	-0.216494	-244.074	8.926512E-5	NaN
114	1.000000	0.802537	7.36616e+06	-44339.1	955.819	-29776.7	0.000000	0.000000	6.803088	0.033170	NaN	0.000000	0.001627	0.001732	28.1083	0.031623	0.001964	16.098	137.684	-166.083	0.033427	0.801202	-0.208893	-0.210228	0.033170	16.098	-0.210439	-194.95	-0.000170	NaN
114	1.000000	0.810525	7.36616e+06	-44339.1	955.819	-29776.7	0.000000	0.000000	6.811073	-0.027539	NaN	0.000000	0.001586	0.001745	28.1077	0.122334	0.001968	62.1512	-48.5447	-164.081	-0.048896	0.809193	-0.200906	-0.202238	-0.027539	62.1512	-0.200574	-134.624	0.000205	NaN
114	1.000000	0.818539	7.36616e+06	-44339.1	955.819	-29776.7	0.000000	0.000000	6.819085	-0.074358	NaN	0.000000	0.001642	0.001690	28.1077	0.145907	0.002076	70.2703	-134.649	-163.228	-0.068525	0.817229	-0.192892	-0.194202	-0.074358	70.2703	-0.192098	-97.5021	0.000763	NaN
114	1.000000	0.826545	7.36616e+06	-44339.1	955.819	-29776.7	0.000000	0.000000	6.827090	-0.091009	NaN	0.000000	0.001639	0.001715	28.1077	0.056333	0.002093	26.9171	-1.713752	-163.708	-0.026307	0.825246	-0.184886	-0.186185	-0.091009	26.9171	-0.182351	-66.8913	0.001361	NaN
114	1.000000	0.834524	7.36616e+06	-44339.1	955.819	-29776.7	0.000000	0.000000	6.835071	-0.056929	NaN	0.000000	0.001599	0.001727	28.1074	0.027944	0.001930	14.4795	106.772	-165.28	-0.034812	0.833204	-0.176907	-0.178227	-0.056929	14.4795	-0.173958	-48.0905	0.001184	NaN
114	1.000000	0.842531	7.36616e+06	-44339.1	955.819	-29776.7	0.000000	0.000000	6.843078	-0.046644	NaN	0.000000	0.001633	0.001736	28.1073	0.087372	0.002203	39.668	79.107	-164.711	-0.023277	0.841238	-0.168900	-0.170193	-0.046644	39.668	-0.168018	-37.9426	0.001229	NaN
114	1.000000	0.850541	7.36616e+06	-44339.1	955.819	-29776.7	0.000000	0.000000	6.851091	0.017994	NaN	0.000000	0.001583	0.001718	28.1074	0.091468	0.002097	43.6285	-157.575	-163.39	-0.008066	0.849200	-0.160890	-0.162231	0.017994	43.6285	-0.161199	-28.7912	-0.000625	NaN
114	1.000000	0.858550	7.36616e+06	-44339.1	955.819	-29776.7	0.000000	0.000000	6.859098	-0.015339	NaN	0.000000	0.001598	0.001698	28.1074	0.083696	0.001938	43.1939	24.9434	-166.955	-0.012584	0.857228	-0.152881	-0.154203	-0.015339	43.1939	-0.152615	-20.208	0.000759	NaN
114	1.000000	0.866571	7.36616e+06	-44339.1	955.818	-29776.7	0.000000	0.000000	6.867118	-0.041420	NaN	0.000000	0.001624	0.001732	28.1077	0.098982	0.001986	49.8445	167.403	-162.54	-0.089821	0.865196	-0.144860	-0.146235	-0.041420	49.8445	-0.144237	-14.1917	0.002919	NaN
114	1.000000	0.874506	7.36616e+06	-44339.1	955.819	-29776.7	0.000000	0.000000	6.875055	-0.002515	NaN	0.000000	0.001633	0.001718	28.108	0.028978	0.001923	15.0701	-176.485	-162.827	0.000859	0.873250	-0.136925	-0.138181	-0.002515	15.0701	-0.136800	-10.293	0.000244	NaN
114	1.000000	0.882562	7.36616e+06	-44339.1	955.818	-29776.7	0.000000	0.000000	6.883110	-0.005432	NaN	0.000000	0.001615	0.001724	28.1088	0.045033	0.002093	21.5114	-151.723	-165.437	-0.029384	0.881237	-0.128869	-0.130194	-0.005432	21.5114	-0.128680	-7.183047	0.000756	NaN
114	1.000000	0.890581	7.36616e+06	-44339.1	955.818	-29776.7	0.000000	0.000000	6.891126	-0.080535	NaN	0.000000	0.001635	0.001699	28.1085	0.075475	0.002002	37.7056	163.024	-164.195	-0.015984	0.889231	-0.120850	-0.122200	-0.080535	37.7056	-0.119248	-4.665383	0.017262	NaN
114	1.000000	0.898578	7.36616e+06	-44339.1	955.818	-29776.7	0.000000	0.000000	6.899127	0.000569	NaN	0.000000	0.001628	0.001693	28.1086	0.094907	0.001893	50.1232	89.9548	-162.789	-0.001903	0.897258	-0.112853	-0.114173	0.000569	50.1232	-0.112861	-3.449895	-0.000165	NaN
114	1.000000	0.906559	7.36616e+06	-44339.1	955.819	-29776.7	0.000000	0.000000	6.907106	-0.046797	NaN	0.000000	0.001693	0.001729	28.1081	0.019224	0.001950	9.858503	89.093	-163.599	-0.074484	0.905282	-0.104872	-0.106149	-0.046797	9.858503	-0.101312	-1.953263	0.023958	NaN
114	1.000000	0.914586	7.36616e+06	-44339.1	955.818	-29776.7	0.000000	0.000000	6.915137	0.032390	NaN	0.000000	0.001692	0.001703	28.1086	0.071317	0.001904	37.4496	101.048	-167.121	0.109295	0.913264	-0.096845	-0.098167	0.032390	37.4496	-0.097493	-1.606306	-0.020165	NaN
114	1.000000	0.922583	7.36616e+06	-44339.1	955.818	-29776.7	0.000000	0.000000	6.923132	0.000635	NaN	0.000000	0.001697	0.001687	28.1087	0.085982	0.002119	40.5841	113.788	-162.699	0.056881	0.921262	-0.088848	-0.090169	0.000635	40.5841	-0.088860	-1.016179	-0.000625	NaN
114	1.000000	0.930580	7.36616e+06	-44339.1	955.818	-29776.7	0.000000	0.000000	6.931128	-0.036407	NaN	0.000000	0.001673	0.001720	28.1085	0.088077	0.001990	44.2499	71.7103	-166.104	-0.064675	0.929233	-0.080851	-0.082198	-0.036407	44.2499	-0.080234	-0.627366	0.058031	NaN
114	1.000000	0.938559	7.36616e+06	-44339.1	955.819	-29776.7	0.000000	0.000000	6.939108	-0.004451	NaN	0.000000	0.001673	0.001699	28.1087	0.034010	0.001991	17.0842	-2.592268	-166.709	-0.003756	0.937264	-0.072872	-0.074167	-0.004451	17.0842	-0.072676	-0.401718	0.011079	NaN
114	1.000000	0.946581	7.36616e+06	-44339.1	955.817	-29776.7	0.000000	0.000000	6.947131	0.025955	NaN	0.000000	0.001721	0.001710	28.1093	0.103319	0.002011	51.3872	84.3203	-161.946	0.036015	0.945302	-0.064850	-0.066129	0.025955	51.3872	-0.065229	-0.252888	-0.102633	NaN
114	1.000000	0.954586	7.36616e+06	-44339.1	955.819	-29776.7	0.000000	0.000000	6.955136	0.011054	NaN	0.000000	0.001720	0.001687	28.1102	0.105358	0.002019	52.1883	-116.309	-166.026	0.036812	0.953280	-0.056845	-0.058151	0.011054	52.1883	-0.057003	-0.147477	-0.074954	NaN
114	1.000000	0.962593	7.36616e+06	-44339.1	955.818	-29776.7	0.000000	0.000000	6.963142	0.023892	NaN	0.000000	0.001680	0.001699	28.1103	0.056613	0.001961	28.874	24.048	-166.291	0.045610	0.961292	-0.048838	-0.050139	0.023892	28.874	-0.049459	-0.087874	-0.271892	NaN
114	1.000000	0.970601	7.36616e+06	-44339.1	955.818	-29776.7	0.000000	0.000000	6.971146	-0.074196	NaN	0.000000	0.001697	0.001688	28.1107	0.047214	0.002037	23.1735	-153.33	-162.634	-0.088351	0.969245	-0.040830	-0.042186	-0.074196	23.1735	-0.038429	-0.040531	1.830578	NaN
114	1.000000	0.978561	7.36616e+06	-44339.1	955.818	-29776.7	0.000000	0.000000	6.979112	0.047306	NaN	0.000000	0.001689	0.001705	28.1106	0.021320	0.002128	10.0197	120.906	-168.745	0.036167	0.977314	-0.032870	-0.034117	0.047306	10.0197	-0.036411	-0.035260	-1.341645	NaN
114	1.000000	0.986607	7.36616e+06	-44339.1	955.819	-29776.7	0.000000	0.000000	6.987153	-0.070494	NaN	0.000000	0.001645	0.001711	28.1095	0.101434	0.002003	50.6454	-31.2788	-164.631	-0.017137	0.985278	-0.024824	-0.026153	-0.070494	50.6454	-0.023780	-0.015684	4.494568	NaN
114	1.000000	0.994621	7.36616e+06	-44339.1	955.818	-29776.7	0.000000	0.000000	6.995169	-0.009273	NaN	0.000000	0.001627	0.001713	28.1087	0.070076	0.001938	36.1515	-70.1553	-164.365	-0.008151	0.993266	-0.016810	-0.018165	-0.009273	36.1515	-0.016618	-0.010268	0.903087	NaN
114	1.000000	1.002562	7.36616e+06	-44339.1	955.818	-29776.7	0.000000	0.000000	7.003108	-0.054285	NaN	0.000000	0.001619	0.001689	28.1101	0.072859	0.001953	37.3072	-132.077	-163.378	-0.027694	1.001320	-0.008869	-0.010110	-0.054285	37.3072	-0.007778	-0.005101	10.6411	NaN
114	1.000000	1.010627	7.36616e+06	-44339.1	955.818	-29776.7	0.000000	0.000000	7.011183	0.174551	NaN	0.000000	0.001623	0.001693	28.1086	0.292988	0.001950	150.216	31.167	-167.545	-0.025831	1.009321	-0.000804	-0.002110	0.174551	150.216	-0.001675	-0.001213	-143.904	NaN
114	1.000000	1.018469	7.36616e+06	-44339.1	955.819	-29776.7	0.000000	0.000000	7.019330	7.596589	NaN	0.000000	0.001621	0.001666	28.1092	7.101266	0.001666	4262.56	10.1064	-171.039	5.655795	1.017210	0.007038	0.005779	7.596589	4262.56	0.005701	0.004783	1588.35	56312.9
114	2.000000	1.021182	7.36616e+06	-44339.1	955.818	-29776.7	0.000000	0.000000	7.022130	9.702555	NaN	0.000000	0.001634	0.001705	28.1095	9.101952	0.001734	5247.85	6.311923	-170.017	9.241246	1.020929	0.009751	0.009498	9.702555	5247.85	0.008364	0.007420	1307.67	55662.1
114	2.000000	1.023171	7.36616e+06	-44339.1	955.817	-29776.7	0.000000	0.000000	7.024290	13.8767	NaN	0.000000	0.001643	0.001682	28.1105	11.3568	0.001638	6934.85	4.653569	-170.082	14.2498	1.022820	0.011740	0.011390	13.8767	6934.85	0.010239	0.009448	1468.7	65183
114	2.000000	1.025174	7.36616e+06	-44339.1	955.817	-29776.7	0.000000	0.000000	7.026321	14.5495	NaN	0.000000	0.001634	0.001713	28.1104	13.7387	0.001797	7646.21	7.081894	-174.321	14.5444	1.024819	0.013743	0.013388	14.5495	7646.21	0.012316	0.011871	1225.69	64118.7
114	2.000000	1.027107	7.36616e+06	-44339.1	955.817	-29776.7	0.000000	0.000000	7.028429	18.827	NaN	0.000000	0.001626	0.001727	28.1092	14.763	0.001639	9005.06	5.147480	-173.737	17.7944	1.026829	0.015676	0.015398	18.827	9005.06	0.014108	0.014114	1333.94	69252.7
114	2.000000	1.029063	7.36616e+06	-44339.1	955.817	-29776.7	0.000000	0.000000	7.030520	22.0893	NaN	0.000000	0.001619	0.001689	28.1102	17.0446	0.001845	9238.91	6.827310	-175.474	19.9024	1.028807	0.017632	0.017376	22.0893	9238.91	0.015839	0.016420	1345.24	65872.3
114	2.000000	1.031144	7.36616e+06	-44339.1	955.817	-29776.7	0.000000	0.000000	7.032709	24.7228	NaN	0.000000	0.001652	0.001714	28.1093	18.7022	0.001792	10435.3	5.321167	-174.115	24.1891	1.030792	0.019713	0.019362	24.7228	10435.3	0.017936	0.019402	1274.21	68446.3
114	2.000000	1.033105	7.36616e+06	-44339.1	955.816	-29776.7	0.000000	0.000000	7.034910	30.5507	NaN	0.000000	0.001619	0.001739	28.1081	20.3317	0.001732	11740	5.179637	-177.162	29.4076	1.032773	0.021674	0.021342	30.5507	11740	0.019722	0.022108	1381.9	72138.8
114	2.000000	1.035100	7.36616e+06	-44339.1	955.817	-29776.7	0.000000	0.000000	7.037040	33.8317	NaN	0.000000	0.001639	0.001715	28.1083	22.8046	0.001819	12538.5	5.195701	-176.008	33.7638	1.034886	0.023669	0.023455	33.8317	12538.5	0.021645	0.025194	1342.85	72172.1
114	2.000000	1.037105	7.36616e+06	-44339.1	955.818	-29776.7	0.000000	0.000000	7.039308	40.255	NaN	0.000000	0.001612	0.001710	28.1085	23.6281	0.001821	12976	5.607731	-176.979	40.015	1.036750	0.025674	0.025319	40.255	12976	0.023347	0.028077	1433.72	70751.5
114	2.000000	1.039103	7.36616e+06	-44339.1	955.817	-29776.7	0.000000	0.000000	7.041498	44.8976	NaN	0.000000	0.001718	0.001695	28.109	27.0702	0.001877	14419.9	10.2142	176.988	44.7257	1.038809	0.027672	0.027378	44.8976	14419.9	0.025337	0.031632	1419.38	74075.1
114	2.000000	1.041113	7.36616e+06	-44339.1	955.818	-29776.7	0.000000	0.000000	7.043578	46.6123	NaN	0.000000	0.001661	0.001721	28.1097	28.2056	0.001856	15198.3	4.306348	-178.283	44.9942	1.040882	0.029682	0.029451	46.6123	15198.3	0.027382	0.035492	1313.31	73705.9
114	2.000000	1.043125	7.36616e+06	-44339.1	955.818	-29776.7	0.000000	0.000000	7.046002	56.6374	NaN	0.000000	0.001677	0.001709	28.1099	29.9493	0.001832	16344.5	6.526759	179.361	57.3181	1.042712	0.031694	0.031281	56.6374	16344.5	0.029095	0.038890	1456.36	75723.2
114	2.000000	1.045059	7.36616e+06	-44339.1	955.818	-29776.7	0.000000	0.000000	7.048203	63.1273	NaN	0.000000	0.001651	0.001704	28.1105	31.1618	0.001811	17202.4	3.011921	-176.045	61.3686	1.044746	0.033628	0.033315	63.1273	17202.4	0.030876	0.042579	1482.61	76166.8
114	2.000000	1.047069	7.36616e+06	-44339.1	955.817	-29776.7	0.000000	0.000000	7.050616	72.9487	NaN	0.000000	0.001660	0.001711	28.1105	32.8976	0.001715	19183.5	4.569354	-179.714	70.9988	1.046682	0.035638	0.035251	72.9487	19183.5	0.032786	0.046716	1561.54	81090.3
114	2.000000	1.049015	7.36616e+06	-44339.1	955.818	-29776.7	0.000000	0.000000	7.052790	78.4792	NaN	0.000000	0.001666	0.001713	28.1103	35.6116	0.001805	19726.5	8.796822	176.041	76.5907	1.048711	0.037584	0.037280	78.4792	19726.5	0.034600	0.050819	1544.28	79948.4
114	2.000000	1.051145	7.36616e+06	-44339.1	955.818	-29776.7	0.000000	0.000000	7.055262	86.7957	NaN	0.000000	0.001704	0.001711	28.11	38.0177	0.001682	22596.4	5.501905	177.817	88.1762	1.050750	0.039714	0.039319	86.7957	22596.4	0.036833	0.056101	1547.13	87161.8
114	2.000000	1.053036	7.36616e+06	-44339.1	955.817	-29776.7	0.000000	0.000000	7.057554	96.5647	NaN	0.000000	0.001680	0.001712	28.1095	39.2415	0.001730	22680	2.453785	-179.187	95.0149	1.052748	0.041605	0.041317	96.5647	22680	0.038412	0.059988	1609.72	84602.2
114	2.000000	1.055065	7.36616e+06	-44339.1	955.817	-29776.7	0.000000	0.000000	7.059978	106.175	NaN	0.000000	0.001723	0.001720	28.1094	42.7315	0.001797	23776.8	2.288295	-178.537	105.799	1.054667	0.043634	0.043236	106.175	23776.8	0.040285	0.064766	1639.35	85359.6
114	2.000000	1.057031	7.36616e+06	-44339.1	955.818	-29776.7	0.000000	0.000000	7.062411	117.541	NaN	0.000000	0.001679	0.001701	28.1093	43.7014	0.001754	24917.5	6.105357	177.569	115.852	1.056694	0.045600	0.045263	117.541	24917.5	0.042062	0.069465	1692.09	86376.3
114	2.000000	1.059032	7.36616e+06	-44339.1	955.818	-29776.7	0.000000	0.000000	7.064644	123.168	NaN	0.000000	0.001699	0.001710	28.1092	45.9216	0.001760	26091.3	2.892354	179.059	120.301	1.058757	0.047601	0.047326	123.168	26091.3	0.044061	0.074944	1643.47	87076.7
114	2.000000	1.061009	7.36616e+06	-44339.1	955.819	-29776.7	0.000000	0.000000	7.067052	133.662	NaN	0.000000	0.001704	0.001677	28.111	47.6896	0.001811	26336.4	1.107768	-178.443	129.861	1.060777	0.049578	0.049346	133.662	26336.4	0.045772	0.079794	1675.08	85181.2
114	2.000000	1.063075	7.36616e+06	-44339.1	955.818	-29776.7	0.000000	0.000000	7.069667	147.016	NaN	0.000000	0.001667	0.001678	28.1116	50.043	0.001725	29018.2	3.683668	177.139	148.563	1.062714	0.051644	0.051283	147.016	29018.2	0.047844	0.085866	1712.16	90476
114	2.000000	1.065093	7.36616e+06	-44339.1	955.817	-29776.7	0.000000	0.000000	7.072081	156.647	NaN	0.000000	0.001662	0.001703	28.1108	53.2303	0.001775	29987.9	5.386684	176.033	158.438	1.064700	0.053662	0.053269	156.647	29987.9	0.049745	0.091625	1709.65	90513.2
114	2.000000	1.067026	7.36616e+06	-44339.1	955.818	-29776.7	0.000000	0.000000	7.074591	170.702	NaN	0.000000	0.001675	0.001698	28.1117	54.1662	0.001745	31036.2	5.775522	175.102	170.45	1.066728	0.055595	0.055297	170.702	31036.2	0.051470	0.097010	1759.63	91040
114	2.000000	1.069046	7.36616e+06	-44339.1	955.818	-29776.7	0.000000	0.000000	7.077063	181.681	NaN	0.000000	0.001664	0.001686	28.1117	56.7402	0.001835	30918.9	8.713778	173.409	181.192	1.068704	0.057615	0.057273	181.681	30918.9	0.053208	0.102585	1771.02	88197.2
114	2.000000	1.071055	7.36616e+06	-44339.1	955.818	-29776.7	0.000000	0.000000	7.079507	192.273	NaN	0.000000	0.001688	0.001659	28.1106	58.6517	0.001737	33765.9	4.413409	175.864	190.488	1.070667	0.059624	0.059236	192.273	33765.9	0.055353	0.109675	1753.12	93153.3
114	2.000000	1.073030	7.36616e+06	-44339.1	955.818	-29776.7	0.000000	0.000000	7.082041	205.872	NaN	0.000000	0.001662	0.001676	28.1103	60.4852	0.001808	33459.9	5.873486	174.604	204.919	1.072710	0.061599	0.061279	205.872	33459.9	0.056985	0.115218	1786.8	90061.2
114	2.000000	1.074971	7.36616e+06	-44339.1	955.817	-29776.7	0.000000	0.000000	7.084459	217.464	NaN	0.000000	0.001658	0.001675	28.11	62.2955	0.001759	35418.3	2.187420	177.767	214.421	1.074719	0.063540	0.063288	217.464	35418.3	0.058935	0.122018	1782.23	92637.9
114	2.000000	1.076981	7.36616e+06	-44339.1	955.817	-29776.7	0.000000	0.000000	7.087050	231.593	NaN	0.000000	0.001679	0.001688	28.1105	62.6823	0.001656	37858	3.087485	176.603	227.403	1.076674	0.065550	0.065243	231.593	37858	0.060962	0.129282	1791.38	96197.2
114	2.000000	1.079056	7.36616e+06	-44339.1	955.817	-29776.7	0.000000	0.000000	7.089376	237.721	NaN	0.000000	0.001672	0.001674	28.1107	65.2492	0.001694	38517.6	-0.896924	179.404	236.909	1.078809	0.067625	0.067379	237.721	38517.6	0.062996	0.136772	1738.09	95155.5
114	2.000000	1.081093	7.36616e+06	-44339.1	955.817	-29776.7	0.000000	0.000000	7.092012	252.282	NaN	0.000000	0.001686	0.001656	28.1113	69.4199	0.001838	37776	11.1234	168.917	252.013	1.080655	0.069662	0.069224	252.282	37776	0.064653	0.143021	1763.95	91261.7
114	2.000000	1.082995	7.36616e+06	-44339.1	955.817	-29776.7	0.000000	0.000000	7.094421	264.625	NaN	0.000000	0.001718	0.001690	28.1117	69.6461	0.001836	37934.5	2.882508	176.037	261.696	1.082719	0.071564	0.071288	264.625	37934.5	0.066332	0.149488	1770.21	89640.5
114	2.000000	1.085182	7.36616e+06	-44339.1	955.816	-29776.7	0.000000	0.000000	7.096791	269.083	NaN	0.000000	0.001669	0.001701	28.1117	72.6726	0.001759	41314.3	4.818358	174.045	277.124	1.084781	0.073751	0.073350	269.083	41314.3	0.068866	0.159505	1686.99	94512
114	2.000000	1.086971	7.36616e+06	-44339.1	955.817	-29776.7	0.000000	0.000000	7.099544	292.53	NaN	0.000000	0.001668	0.001754	28.1116	74.2408	0.001746	42529.3	9.593100	168.458	288.886	1.086648	0.075540	0.075217	292.53	42529.3	0.070381	0.165643	1766.03	95471.7
114	2.000000	1.089037	7.36616e+06	-44339.1	955.817	-29776.7	0.000000	0.000000	7.102059	303.439	NaN	0.000000	0.001664	0.001694	28.1115	75.7122	0.001752	43218.3	4.257291	174.5	302.833	1.088648	0.077606	0.077217	303.439	43218.3	0.072340	0.173738	1746.53	94731.2
114	2.000000	1.090945	7.36616e+06	-44339.1	955.817	-29776.7	0.000000	0.000000	7.104617	319.261	NaN	0.000000	0.001712	0.001736	28.1105	78.239	0.001892	41361.9	7.299766	171.791	313.536	1.090645	0.079514	0.079214	319.261	41361.9	0.073725	0.179571	1777.91	89177.6
114	2.000000	1.093014	7.36616e+06	-44339.1	955.816	-29776.7	0.000000	0.000000	7.107456	338.001	NaN	0.000000	0.001654	0.001674	28.1116	79.4126	0.001760	45110.5	7.201474	171.031	338.922	1.092658	0.081583	0.081227	338.001	45110.5	0.075963	0.189187	1786.59	94755.6
114	2.000000	1.095000	7.36616e+06	-44339.1	955.816	-29776.7	0.000000	0.000000	7.109872	348.459	NaN	0.000000	0.001660	0.001734	28.1093	81.072	0.001662	48779.8	2.035064	175.307	346.619	1.094706	0.083569	0.083275	348.459	48779.8	0.078211	0.199085	1750.3	99883.6
114	2.000000	1.096988	7.36616e+06	-44339.1	955.817	-29776.7	0.000000	0.000000	7.112479	363.53	NaN	0.000000	0.001640	0.001703	28.1099	82.5384	0.001692	48789.4	4.134081	173.622	360.393	1.096596	0.085557	0.085165	363.53	48789.4	0.079968	0.206985	1756.31	97978.2
114	2.000000	1.099104	7.36616e+06	-44339.1	955.817	-29776.7	0.000000	0.000000	7.115014	373.703	NaN	0.000000	0.001683	0.001687	28.1101	86.6085	0.001821	47557	5.591097	172.044	377.825	1.098690	0.087673	0.087259	373.703	47557	0.081780	0.215280	1735.89	93645.2
114	2.000000	1.100995	7.36616e+06	-44339.1	955.817	-29776.7	0.000000	0.000000	7.117896	397.823	NaN	0.000000	0.001674	0.001681	28.1104	88.4624	0.001827	48407.5	5.094074	173.143	397.438	1.100641	0.089564	0.089210	397.823	48407.5	0.083401	0.222832	1785.31	93690.9
114	2.000000	1.103054	7.36616e+06	-44339.1	955.818	-29776.7	0.000000	0.000000	7.120538	412.018	NaN	0.000000	0.001679	0.001727	28.1112	89.4109	0.001681	53177.3	3.083842	174.266	413.706	1.102641	0.091623	0.091210	412.018	53177.3	0.085812	0.234290	1758.58	100374
114	2.000000	1.104959	7.36616e+06	-44339.1	955.817	-29776.7	0.000000	0.000000	7.122782	420.243	NaN	0.000000	0.001699	0.001733	28.1104	92.6983	0.001791	51761.2	2.829236	174.275	417.502	1.104812	0.093528	0.093381	420.243	51761.2	0.087439	0.242173	1735.3	96098.2
114	2.000000	1.106980	7.36616e+06	-44339.1	955.818	-29776.7	0.000000	0.000000	7.125788	444.197	NaN	0.000000	0.001704	0.001715	28.1107	94.3736	0.001796	52551.8	7.789315	169.493	440.877	1.106548	0.095549	0.095117	444.197	52551.8	0.089210	0.250893	1770.46	95855.3
114	2.000000	1.109045	7.36616e+06	-44339.1	955.817	-29776.7	0.000000	0.000000	7.128446	458.634	NaN	0.000000	0.001673	0.001714	28.1115	97.4891	0.001730	56354.2	6.565141	170.161	459.337	1.108694	0.097614	0.097263	458.634	56354.2	0.091510	0.262433	1747.62	100506
114	2.000000	1.110996	7.36616e+06	-44339.1	955.816	-29776.7	0.000000	0.000000	7.131289	480.33	NaN	0.000000	0.001649	0.001683	28.1105	99.0851	0.001817	54520.1	4.456752	173.047	481.163	1.110671	0.099565	0.099240	480.33	54520.1	0.092958	0.269819	1780.19	95894.4
114	2.000000	1.112954	7.36616e+06	-44339.1	955.817	-29776.7	0.000000	0.000000	7.134041	499.655	NaN	0.000000	0.001652	0.001684	28.11	99.8431	0.001797	55553	2.439951	174.434	495.47	1.112624	0.101523	0.101193	499.655	55553	0.094777	0.279241	1789.33	96048.6
114	2.000000	1.114904	7.36616e+06	-44339.1	955.818	-29776.7	0.000000	0.000000	7.136543	513.091	NaN	0.000000	0.001625	0.001687	28.1095	101.511	0.001753	57920.2	5.229207	171.333	507.054	1.114716	0.103473	0.103285	513.091	57920.2	0.096829	0.290043	1769.02	98258.8
114	2.000000	1.116887	7.36616e+06	-44339.1	955.817	-29776.7	0.000000	0.000000	7.139314	532.263	NaN	0.000000	0.001585	0.001704	28.1105	103.063	0.001705	60457.1	6.991097	169.216	526.93	1.116536	0.105456	0.105105	532.263	60457.1	0.098853	0.300890	1768.96	100697
114	2.000000	1.117947	7.36616e+06	-44339.1	955.817	-29776.7	0.000000	0.000000	7.141024	548.069	NaN	0.000000	0.001616	0.001677	28.0894	105.859	0.001751	60440.2	7.591035	169.271	545.406	1.117639	0.106516	0.106208	548.069	60440.2	0.099715	0.305568	1793.61	99895.4