File: remote_trans/data/nanoindenter/0828-1/data/Data_2025-08-06,11h17m57s/2025-07-22_16-23-58_1_672.txt
2025-07-22, 16:23:58, 1
Index	Phase	Displacement	Time	Pos X	Pos Y	Pos Z	Rot A	Rot B	Piezo Z	Force A	Force B	Gripper	Voltage A	Voltage B	Temperature	Amplitude force	Amplitude pos	Stiffness	Phase shift	Phase excitation	Force A raw	Displacement raw	HMax	HMax raw	Real Force	Real Stiffness	Contact Depth	Area	Hardness	Reduced Mod.
[#]	[#]	[um]	[s]	[um]	[um]	[um]	[m°]	[m°]	[um]	[uN]	[uN]	[V]	[V]	[V]	[°C]	[uN]	[um]	[N/m]	[°]	[°]	[uN]	[um]	[um]	[um]	[uN]	[N/m]	[um]	[um^2]	[MPa]	[MPa]
672	1.000000	0.001910	7.37162e+06	-43489.1	1005.82	-29779	0.000000	0.000000	6.002831	0.094307	NaN	0.000000	0.001618	0.001708	28.0808	0.061457	0.001001	61.388	-99.3938	-165.206	0.032736	0.000625	-1.007248	-1.008533	0.094307	61.388	-1.008400	-2.943381E+13	-3.204031E-15	NaN
672	1.000000	0.009851	7.37162e+06	-43489.1	1005.82	-29779	0.000000	0.000000	6.010772	0.078553	NaN	0.000000	0.001592	0.001748	28.0807	0.100099	0.001009	99.1669	-101.914	-169.386	0.064933	0.008495	-0.999306	-1.000662	0.078553	99.1669	-0.999900	-2.261656E+13	-3.473232E-15	NaN
672	1.000000	0.017813	7.37162e+06	-43489.1	1005.82	-29779	0.000000	0.000000	6.018731	0.007162	NaN	0.000000	0.001598	0.001708	28.0819	0.018020	0.001764	10.2159	149.36	-167.473	0.088850	0.016545	-0.991344	-0.992613	0.007162	10.2159	-0.991870	-1.763184E+13	-4.062000E-16	NaN
672	1.000000	0.025861	7.37162e+06	-43489.1	1005.82	-29779	0.000000	0.000000	6.026779	0.032263	NaN	0.000000	0.001578	0.001714	28.082	0.097385	0.001792	54.3545	158.662	-166.327	-0.001681	0.024485	-0.983296	-0.984673	0.032263	54.3545	-0.983742	-1.370303E+13	-2.354471E-15	NaN
672	1.000000	0.033877	7.37162e+06	-43489.1	1005.82	-29779	0.000000	0.000000	6.034796	0.045407	NaN	0.000000	0.001579	0.001736	28.0822	0.046951	0.001903	24.6661	-70.3727	-167.464	0.017593	0.032511	-0.975281	-0.976646	0.045407	24.6661	-0.976661	-1.100086E+13	-4.127549E-15	NaN
672	1.000000	0.041877	7.37162e+06	-43489.1	1005.82	-29779	0.000000	0.000000	6.042793	-0.003993	NaN	0.000000	0.001629	0.001715	28.0821	0.058229	0.002014	28.9118	-47.1985	-170.923	-0.067828	0.040593	-0.967281	-0.968564	-0.003993	28.9118	-0.967178	-8.196390E+12	4.871277E-16	NaN
672	1.000000	0.049839	7.37162e+06	-43489.1	1005.82	-29779	0.000000	0.000000	6.050756	0.006526	NaN	0.000000	0.001606	0.001711	28.0824	0.102205	0.002066	49.4612	-100.664	-165.877	0.005404	0.048535	-0.959318	-0.960623	0.006526	49.4612	-0.959417	-6.441891E+12	-1.013079E-15	NaN
672	1.000000	0.057828	7.37162e+06	-43489.1	1005.82	-29779	0.000000	0.000000	6.058744	-0.018995	NaN	0.000000	0.001595	0.001719	28.0822	0.016649	0.001965	8.471264	28.4202	-167.934	-0.004377	0.056481	-0.951329	-0.952676	-0.018995	8.471264	-0.949648	-4.756357E+12	3.993604E-15	NaN
672	1.000000	0.065822	7.37162e+06	-43489.1	1005.82	-29779	0.000000	0.000000	6.066739	0.001728	NaN	0.000000	0.001587	0.001702	28.0825	0.081321	0.001989	40.8891	100.462	-167.651	-0.075015	0.064599	-0.943336	-0.944559	0.001728	40.8891	-0.943367	-3.913510E+12	-4.416709E-16	NaN
672	1.000000	0.073838	7.37162e+06	-43489.1	1005.82	-29779	0.000000	0.000000	6.074755	-0.001451	NaN	0.000000	0.001569	0.001718	28.0823	0.053780	0.001933	27.8256	-122.998	-169.406	0.052083	0.072556	-0.935320	-0.936601	-0.001451	27.8256	-0.935281	-3.044122E+12	4.767732E-16	NaN
672	1.000000	0.081837	7.37162e+06	-43489.1	1005.82	-29779	0.000000	0.000000	6.082755	0.037097	NaN	0.000000	0.001609	0.001700	28.0821	0.023627	0.001970	11.9928	-63.7794	-169.689	0.045337	0.080561	-0.927321	-0.928597	0.037097	11.9928	-0.929641	-2.554749E+12	-1.452061E-14	NaN
672	1.000000	0.089813	7.37162e+06	-43489.1	1005.82	-29779	0.000000	0.000000	6.090730	0.003835	NaN	0.000000	0.001593	0.001739	28.0823	0.129791	0.002003	64.8104	69.4357	-168.284	0.039763	0.088579	-0.919344	-0.920579	0.003835	64.8104	-0.919389	-1.857601E+12	-2.064305E-15	NaN
672	1.000000	0.097844	7.37162e+06	-43489.1	1005.82	-29779	0.000000	0.000000	6.098761	0.009252	NaN	0.000000	0.001593	0.001722	28.082	0.076433	0.001923	39.7404	-156.17	-168.346	-0.070719	0.096541	-0.911314	-0.912617	0.009252	39.7404	-0.911488	-1.452989E+12	-6.367523E-15	NaN
672	1.000000	0.105870	7.37162e+06	-43489.1	1005.82	-29779	0.000000	0.000000	6.106787	0.020586	NaN	0.000000	0.001582	0.001676	28.0825	0.137030	0.001867	73.3903	33.3446	-165.319	0.031182	0.104525	-0.903288	-0.904633	0.020586	73.3903	-0.903498	-1.133270E+12	-1.816528E-14	NaN
672	1.000000	0.113852	7.37162e+06	-43489.1	1005.82	-29779	0.000000	0.000000	6.114769	-0.002310	NaN	0.000000	0.001617	0.001720	28.0823	0.048559	0.002032	23.8998	-164.324	-164.268	-0.064824	0.112575	-0.895305	-0.896583	-0.002310	23.8998	-0.895233	-8.762796E+11	2.636112E-15	NaN
672	1.000000	0.121858	7.37162e+06	-43489.1	1005.82	-29779	0.000000	0.000000	6.122773	-0.037189	NaN	0.000000	0.001577	0.001750	28.0827	0.027100	0.002023	13.3945	83.2776	-165.605	0.007319	0.120504	-0.887300	-0.888654	-0.037189	13.3945	-0.885217	-6.415892E+11	5.796382E-14	NaN
672	1.000000	0.129862	7.37162e+06	-43489.1	1005.82	-29779	0.000000	0.000000	6.130780	0.043010	NaN	0.000000	0.001621	0.001714	28.0826	0.071645	0.001955	36.6471	83.9132	-168.772	0.024160	0.128564	-0.879296	-0.880594	0.043010	36.6471	-0.880176	-5.483904E+11	-7.843030E-14	NaN
672	1.000000	0.137869	7.37162e+06	-43489.1	1005.82	-29779	0.000000	0.000000	6.138785	-0.022030	NaN	0.000000	0.001598	0.001719	28.0823	0.075842	0.001996	37.9904	-80.3909	-164.793	-0.060404	0.136547	-0.871289	-0.872610	-0.022030	37.9904	-0.870854	-4.102002E+11	5.370451E-14	NaN
672	1.000000	0.145849	7.37162e+06	-43489.1	1005.82	-29779	0.000000	0.000000	6.146767	0.028677	NaN	0.000000	0.001592	0.001676	28.0826	0.048392	0.002040	23.7266	-38.4684	-165.862	0.068605	0.144539	-0.863309	-0.864618	0.028677	23.7266	-0.864216	-3.335598E+11	-8.597323E-14	NaN
672	1.000000	0.153863	7.37162e+06	-43489.1	1005.82	-29779	0.000000	0.000000	6.154781	0.015235	NaN	0.000000	0.001586	0.001721	28.0811	0.051068	0.001881	27.1494	-127.556	-165.746	0.021453	0.152555	-0.855295	-0.856602	0.015235	27.1494	-0.855715	-2.559306E+11	-5.952781E-14	NaN
672	1.000000	0.161864	7.37162e+06	-43489.1	1005.82	-29779	0.000000	0.000000	6.162782	0.029311	NaN	0.000000	0.001587	0.001684	28.0813	0.043963	0.002064	21.3031	170.31	-164.998	0.057703	0.160559	-0.847294	-0.848599	0.029311	21.3031	-0.848326	-2.032652E+11	-1.442004E-13	NaN
672	1.000000	0.169866	7.37162e+06	-43489.1	1005.82	-29779	0.000000	0.000000	6.170783	-0.002600	NaN	0.000000	0.001596	0.001685	28.081	0.073027	0.001985	36.7922	-49.9074	-167.609	-0.005992	0.168572	-0.839292	-0.840586	-0.002600	36.7922	-0.839239	-1.531019E+11	1.698059E-14	NaN
672	1.000000	0.177890	7.37162e+06	-43489.1	1005.82	-29779	0.000000	0.000000	6.178811	0.085740	NaN	0.000000	0.001574	0.001694	28.0813	0.009142	0.002001	4.568299	-71.0353	-166.916	0.045119	0.176607	-0.831267	-0.832551	0.085740	4.568299	-0.845344	-1.852162E+11	-4.629160E-13	NaN
672	1.000000	0.185911	7.37162e+06	-43489.1	1005.82	-29779	0.000000	0.000000	6.186828	0.003027	NaN	0.000000	0.001619	0.001705	28.0813	0.065228	0.002143	30.4447	-124.083	-168.328	0.072057	0.184605	-0.823246	-0.824553	0.003027	30.4447	-0.823321	-9.316285E+10	-3.248694E-14	NaN
672	1.000000	0.193877	7.37162e+06	-43489.1	1005.82	-29779	0.000000	0.000000	6.194796	0.054262	NaN	0.000000	0.001573	0.001750	28.0809	0.004156	0.002043	2.034602	168.725	-162.442	0.029602	0.192559	-0.815281	-0.816599	0.054262	2.034602	-0.835283	-1.353263E+11	-4.009709E-13	NaN
672	1.000000	0.201886	7.37162e+06	-43489.1	1005.82	-29779	0.000000	0.000000	6.202805	0.055583	NaN	0.000000	0.001596	0.001711	28.0816	0.010171	0.002022	5.028812	-106.276	-167.855	-0.037994	0.200621	-0.807272	-0.808537	0.055583	5.028812	-0.815562	-7.311715E+10	-7.601936E-13	NaN
672	1.000000	0.209922	7.37162e+06	-43489.1	1005.82	-29779	0.000000	0.000000	6.210840	0.021309	NaN	0.000000	0.001600	0.001705	28.0812	0.112270	0.001988	56.47	61.9492	-168.001	0.010094	0.208600	-0.799236	-0.800558	0.021309	56.47	-0.799519	-4.429242E+10	-4.810989E-13	NaN
672	1.000000	0.217886	7.37162e+06	-43489.1	1005.82	-29779	0.000000	0.000000	6.218799	-0.090139	NaN	0.000000	0.001630	0.001730	28.0812	0.128028	0.002101	60.9421	-134.614	-167.661	-0.091379	0.216588	-0.791271	-0.792569	-0.090139	60.9421	-0.790162	-3.305853E+10	2.726652E-12	NaN
672	1.000000	0.225900	7.37162e+06	-43489.1	1005.82	-29779	0.000000	0.000000	6.226817	-0.008920	NaN	0.000000	0.001592	0.001727	28.0812	0.081663	0.001793	45.5492	56.4031	-167.578	-0.026894	0.224569	-0.783257	-0.784589	-0.008920	45.5492	-0.783111	-2.651537E+10	3.364251E-13	NaN
672	1.000000	0.233892	7.37162e+06	-43489.1	1005.82	-29779	0.000000	0.000000	6.234808	-0.020466	NaN	0.000000	0.001601	0.001728	28.0811	0.141520	0.001901	74.4451	117.092	-164.868	-0.020659	0.232624	-0.775266	-0.776533	-0.020466	74.4451	-0.775060	-2.061063E+10	9.930034E-13	NaN
672	1.000000	0.241891	7.37162e+06	-43489.1	1005.82	-29779	0.000000	0.000000	6.242810	0.055655	NaN	0.000000	0.001610	0.001749	28.0813	0.097985	0.002166	45.2447	-129.8	-168.204	0.041942	0.240599	-0.767266	-0.768559	0.055655	45.2447	-0.768189	-1.662190E+10	-3.348309E-12	NaN
672	1.000000	0.249929	7.37162e+06	-43489.1	1005.82	-29779	0.000000	0.000000	6.250844	-0.039330	NaN	0.000000	0.001595	0.001699	28.0813	0.046715	0.001924	24.2854	48.3845	-166.243	-0.035193	0.248589	-0.759228	-0.760569	-0.039330	24.2854	-0.758014	-1.208593E+10	3.254231E-12	NaN
672	1.000000	0.257916	7.37162e+06	-43489.1	1005.82	-29779	0.000000	0.000000	6.258833	0.011118	NaN	0.000000	0.001581	0.001743	28.0816	0.045061	0.001943	23.1856	-110.944	-164.707	-0.035859	0.256661	-0.751242	-0.752497	0.011118	23.1856	-0.751602	-9.885977E+9	-1.124590E-12	NaN
672	1.000000	0.265920	7.37163e+06	-43489.1	1005.82	-29779	0.000000	0.000000	6.266834	-0.066060	NaN	0.000000	0.001653	0.001726	28.0813	0.116200	0.001971	58.9634	-80.2009	-167.823	-0.060667	0.264567	-0.743237	-0.744591	-0.066060	58.9634	-0.742397	-7.408042E+9	8.917335E-12	NaN
672	1.000000	0.273928	7.37163e+06	-43489.1	1005.82	-29779	0.000000	0.000000	6.274845	-0.005098	NaN	0.000000	0.001629	0.001707	28.0811	0.035607	0.002039	17.4663	127.961	-166.498	-0.051149	0.272578	-0.735229	-0.736580	-0.005098	17.4663	-0.735010	-5.876006E+9	8.675815E-13	NaN
672	1.000000	0.281926	7.37163e+06	-43489.1	1005.82	-29779	0.000000	0.000000	6.282844	0.011175	NaN	0.000000	0.001658	0.001734	28.0814	0.080167	0.001970	40.6841	30.4509	-166.294	0.008418	0.280638	-0.727231	-0.728520	0.011175	40.6841	-0.727437	-4.633151E+9	-2.412018E-12	NaN
672	1.000000	0.289958	7.37163e+06	-43489.1	1005.82	-29779	0.000000	0.000000	6.290875	-0.003531	NaN	0.000000	0.001669	0.001740	28.0824	0.113924	0.001991	57.2124	128.88	-165.728	0.038434	0.288641	-0.719199	-0.720516	-0.003531	57.2124	-0.719153	-3.572062E+9	9.885561E-13	NaN
672	1.000000	0.297939	7.37163e+06	-43489.1	1005.82	-29779	0.000000	0.000000	6.298857	0.018319	NaN	0.000000	0.001702	0.001711	28.0826	0.040001	0.001747	22.8911	49.8983	-167.732	0.038207	0.296571	-0.711218	-0.712586	0.018319	22.8911	-0.711818	-2.837015E+9	-6.456971E-12	NaN
672	1.000000	0.305968	7.37163e+06	-43489.1	1005.82	-29779	0.000000	0.000000	6.306886	0.020780	NaN	0.000000	0.001613	0.001696	28.0824	0.057534	0.002092	27.5033	-100.353	-161.785	0.007681	0.304641	-0.703190	-0.704516	0.020780	27.5033	-0.703756	-2.202036E+9	-9.436512E-12	NaN
672	1.000000	0.313929	7.37163e+06	-43489.1	1005.82	-29779	0.000000	0.000000	6.314845	-0.007456	NaN	0.000000	0.001628	0.001666	28.0826	0.141256	0.002080	67.9112	-72.0619	-165.261	0.081014	0.312645	-0.695229	-0.696513	-0.007456	67.9112	-0.695146	-1.679723E+9	4.439022E-12	NaN
672	1.000000	0.321984	7.37163e+06	-43489.1	1005.82	-29779	0.000000	0.000000	6.322900	-0.005564	NaN	0.000000	0.001614	0.001722	28.0826	0.070807	0.002055	34.4615	-170.13	-164.353	-0.085193	0.320611	-0.687174	-0.688547	-0.005564	34.4615	-0.687053	-1.302073E+9	4.273387E-12	NaN
672	1.000000	0.329953	7.37163e+06	-43489.1	1005.82	-29779	0.000000	0.000000	6.330870	0.017388	NaN	0.000000	0.001594	0.001732	28.0825	0.053927	0.002073	26.0082	163.448	-167.246	-0.004776	0.328644	-0.679205	-0.680514	0.017388	26.0082	-0.679706	-1.033208E+9	-1.682868E-11	NaN
672	1.000000	0.337967	7.37163e+06	-43489.1	1005.82	-29779	0.000000	0.000000	6.338886	0.037226	NaN	0.000000	0.001593	0.001722	28.0829	0.053029	0.001947	27.2396	177.619	-164.341	0.032933	0.336623	-0.671191	-0.672535	0.037226	27.2396	-0.672215	-8.160380E+8	-4.561757E-11	NaN
672	1.000000	0.345963	7.37163e+06	-43489.1	1005.82	-29779	0.000000	0.000000	6.346881	0.026718	NaN	0.000000	0.001631	0.001674	28.0826	0.098040	0.002018	48.5914	156.549	-166.14	-0.062934	0.344617	-0.663195	-0.664540	0.026718	48.5914	-0.663607	-6.221204E+8	-4.294688E-11	NaN
672	1.000000	0.353954	7.37163e+06	-43489.1	1005.82	-29779	0.000000	0.000000	6.354875	0.100391	NaN	0.000000	0.001581	0.001742	28.0827	0.081144	0.002054	39.4977	34.3835	-169.142	0.134890	0.352651	-0.655204	-0.656507	0.100391	39.4977	-0.657110	-5.068518E+8	-1.980676E-10	NaN
672	1.000000	0.361950	7.37163e+06	-43489.1	1005.82	-29779	0.000000	0.000000	6.362867	-0.003304	NaN	0.000000	0.001624	0.001715	28.0826	0.074079	0.001858	39.8775	40.9048	-169.111	0.023257	0.360627	-0.647207	-0.648530	-0.003304	39.8775	-0.647145	-3.700810E+8	8.927704E-12	NaN
672	1.000000	0.369970	7.37163e+06	-43489.1	1005.82	-29779	0.000000	0.000000	6.370886	-0.026239	NaN	0.000000	0.001583	0.001677	28.0825	0.056877	0.001956	29.0827	157.437	-169.528	-0.012705	0.368633	-0.639187	-0.640525	-0.026239	29.0827	-0.638511	-2.817429E+8	9.312976E-11	NaN
672	1.000000	0.377958	7.37163e+06	-43489.1	1005.82	-29779	0.000000	0.000000	6.378873	-0.060321	NaN	0.000000	0.001577	0.001720	28.0826	0.055662	0.002001	27.815	54.2588	-169.297	-0.096337	0.376672	-0.631200	-0.632486	-0.060321	27.815	-0.629573	-2.124027E+8	2.839938E-10	NaN
672	1.000000	0.385965	7.37163e+06	-43489.1	1005.82	-29779	0.000000	0.000000	6.386883	0.017073	NaN	0.000000	0.001601	0.001712	28.0826	0.086217	0.002022	42.6354	-164.664	-169.058	0.016017	0.384656	-0.623192	-0.624502	0.017073	42.6354	-0.623492	-1.752390E+8	-9.742568E-11	NaN
672	1.000000	0.393988	7.37163e+06	-43489.1	1005.82	-29779	0.000000	0.000000	6.394905	0.011123	NaN	0.000000	0.001592	0.001731	28.0831	0.139529	0.002049	68.0841	172.038	-165.624	-0.041818	0.392683	-0.615170	-0.616475	0.011123	68.0841	-0.615292	-1.351800E+8	-8.228070E-11	NaN
672	1.000000	0.401968	7.37163e+06	-43489.1	1005.82	-29779	0.000000	0.000000	6.402888	0.065330	NaN	0.000000	0.001586	0.001690	28.0828	0.051506	0.002022	25.4696	-64.6437	-165.406	0.031037	0.400653	-0.607189	-0.608505	0.065330	25.4696	-0.609113	-1.111500E+8	-5.877681E-10	NaN
672	1.000000	0.409984	7.37163e+06	-43489.1	1005.82	-29779	0.000000	0.000000	6.410903	0.057708	NaN	0.000000	0.001564	0.001698	28.0825	0.094146	0.001972	47.7363	37.529	-167.577	0.044338	0.408644	-0.599174	-0.600513	0.057708	47.7363	-0.600081	-8.347792E+7	-6.912910E-10	NaN
672	1.000000	0.417984	7.37163e+06	-43489.1	1005.82	-29779	0.000000	0.000000	6.418900	-0.023735	NaN	0.000000	0.001551	0.001722	28.0827	0.039364	0.001948	20.2074	-118.69	-166.598	-0.032021	0.416663	-0.591174	-0.592494	-0.023735	20.2074	-0.590293	-6.119278E+7	3.878734E-10	NaN
672	1.000000	0.426030	7.37163e+06	-43489.1	1005.82	-29779	0.000000	0.000000	6.426946	-0.000104	NaN	0.000000	0.001591	0.001695	28.0815	0.118493	0.002027	58.4576	-131.095	-164.802	0.007778	0.424674	-0.583128	-0.584483	-0.000104	58.4576	-0.583127	-4.873852E+7	2.141653E-12	NaN
672	1.000000	0.433971	7.37163e+06	-43489.1	1005.82	-29779	0.000000	0.000000	6.434887	-0.017134	NaN	0.000000	0.001581	0.001720	28.0817	0.026475	0.002055	12.8814	-74.9917	-160.686	0.007921	0.432718	-0.575187	-0.576439	-0.017134	12.8814	-0.574189	-3.668581E+7	4.670449E-10	NaN
672	1.000000	0.442011	7.37163e+06	-43489.1	1005.82	-29779	0.000000	0.000000	6.442926	-0.031755	NaN	0.000000	0.001548	0.001710	28.0816	0.058663	0.002070	28.3332	15.0176	-163.044	-0.005842	0.440716	-0.567147	-0.568442	-0.031755	28.3332	-0.566306	-2.854853E+7	1.112325E-9	NaN
672	1.000000	0.449986	7.37163e+06	-43489.1	1005.82	-29779	0.000000	0.000000	6.450903	0.009332	NaN	0.000000	0.001575	0.001760	28.0817	0.106944	0.001922	55.6476	40.7954	-165.924	-0.013566	0.448715	-0.559172	-0.560442	0.009332	55.6476	-0.559298	-2.283813E+7	-4.085973E-10	NaN
672	1.000000	0.458009	7.37163e+06	-43489.1	1005.82	-29779	0.000000	0.000000	6.458927	0.021763	NaN	0.000000	0.001618	0.001730	28.0815	0.049918	0.002029	24.598	12.3761	-164.308	0.070845	0.456639	-0.551149	-0.552518	0.021763	24.598	-0.551812	-1.799099E+7	-1.209685E-9	NaN
672	1.000000	0.465980	7.37163e+06	-43489.1	1005.82	-29779	0.000000	0.000000	6.466897	0.010453	NaN	0.000000	0.001645	0.001728	28.0815	0.111343	0.002052	54.2602	-165.106	-167.286	0.090282	0.464715	-0.543178	-0.544443	0.010453	54.2602	-0.543322	-1.372229E+7	-7.617398E-10	NaN
672	1.000000	0.474006	7.37163e+06	-43489.1	1005.82	-29779	0.000000	0.000000	6.474924	0.025563	NaN	0.000000	0.001666	0.001723	28.0815	0.092617	0.001889	49.0253	175.317	-167.731	0.082906	0.472734	-0.535152	-0.536424	0.025563	49.0253	-0.535543	-1.070350E+7	-2.388267E-9	NaN
672	1.000000	0.482021	7.37163e+06	-43489.1	1005.82	-29779	0.000000	0.000000	6.482938	0.007584	NaN	0.000000	0.001668	0.001699	28.0815	0.071572	0.002068	34.6117	-98.1362	-164.988	0.045790	0.480708	-0.527137	-0.528450	0.007584	34.6117	-0.527301	-8.22412e+06	-9.222020E-10	NaN
672	1.000000	0.490037	7.37163e+06	-43489.1	1005.82	-29779	0.000000	0.000000	6.490955	0.031938	NaN	0.000000	0.001665	0.001701	28.0817	0.024764	0.001992	12.4288	20.2817	-165.413	0.005699	0.488700	-0.519121	-0.520457	0.031938	12.4288	-0.521048	-6.73239e+06	-4.744005E-9	NaN
672	1.000000	0.498018	7.37163e+06	-43489.1	1005.82	-29779	0.000000	0.000000	6.498934	-0.012364	NaN	0.000000	0.001660	0.001710	28.0815	0.050797	0.002085	24.3667	-106.175	-161.661	-0.048226	0.496718	-0.511140	-0.512439	-0.012364	24.3667	-0.510759	-4.84163e+06	2.553680E-9	NaN
672	1.000000	0.506016	7.37163e+06	-43489.1	1005.82	-29779	0.000000	0.000000	6.506933	-0.005335	NaN	0.000000	0.001655	0.001730	28.0815	0.080442	0.002158	37.2697	-57.0331	-167.083	-0.001730	0.504705	-0.503141	-0.504453	-0.005335	37.2697	-0.503034	-3.77862e+06	1.411984E-9	NaN
672	1.000000	0.514021	7.37163e+06	-43489.1	1005.82	-29779	0.000000	0.000000	6.514938	0.003437	NaN	0.000000	0.001646	0.001726	28.0813	0.058311	0.001968	29.6282	-142.539	-164.982	0.008503	0.512729	-0.495137	-0.496428	0.003437	29.6282	-0.495224	-2.94006e+06	-1.169054E-9	NaN
672	1.000000	0.522046	7.37163e+06	-43489.1	1005.82	-29779	0.000000	0.000000	6.522962	-0.014844	NaN	0.000000	0.001687	0.001707	28.0817	0.043852	0.002041	21.4871	15.6517	-169.277	-0.037650	0.520699	-0.487112	-0.488458	-0.014844	21.4871	-0.486594	-2.22729e+06	6.664673E-9	NaN
672	1.000000	0.530021	7.37163e+06	-43489.1	1005.82	-29779	0.000000	0.000000	6.530938	0.002778	NaN	0.000000	0.001677	0.001728	28.0815	0.125862	0.001846	68.1678	92.9592	-165.604	-0.027973	0.528729	-0.479136	-0.480429	0.002778	68.1678	-0.479167	-1.75334e+06	-1.584134E-9	NaN
672	1.000000	0.538034	7.37163e+06	-43489.1	1005.82	-29779	0.000000	0.000000	6.538952	0.044149	NaN	0.000000	0.001660	0.001732	28.0814	0.012986	0.001853	7.010123	26.7445	-166.396	0.017766	0.536722	-0.471124	-0.472435	0.044149	7.010123	-0.475847	-1.57534e+06	-2.802518E-8	NaN
672	1.000000	0.546031	7.37163e+06	-43489.1	1005.82	-29779	0.000000	0.000000	6.546948	0.011396	NaN	0.000000	0.001665	0.001750	28.0816	0.132455	0.002043	64.8379	-95.864	-162.638	0.072034	0.544761	-0.463127	-0.464397	0.011396	64.8379	-0.463259	-1.04906e+06	-1.086335E-8	NaN
672	1.000000	0.554026	7.37163e+06	-43489.1	1005.82	-29779	0.000000	0.000000	6.554946	0.085663	NaN	0.000000	0.001711	0.001742	28.0813	0.071649	0.002062	34.7531	151.404	-162.464	-0.018880	0.552717	-0.455132	-0.456440	0.085663	34.7531	-0.456980	-856187	-1.000515E-7	NaN
672	1.000000	0.562048	7.37163e+06	-43489.1	1005.82	-29779	0.000000	0.000000	6.562963	-0.043984	NaN	0.000000	0.001696	0.001699	28.083	0.045309	0.002064	21.9565	-115.203	-169.335	0.007978	0.560760	-0.447110	-0.448397	-0.043984	21.9565	-0.445607	-592176	7.427454E-8	NaN
672	1.000000	0.570063	7.37163e+06	-43489.1	1005.82	-29779	0.000000	0.000000	6.570979	-0.008092	NaN	0.000000	0.001691	0.001741	28.0826	0.033646	0.002074	16.2237	-97.8872	-168.969	0.046719	0.568747	-0.439095	-0.440411	-0.008092	16.2237	-0.438721	-473482	1.709114E-8	NaN
672	1.000000	0.578084	7.37163e+06	-43489.1	1005.82	-29779	0.000000	0.000000	6.579000	-0.023370	NaN	0.000000	0.001693	0.001754	28.0826	0.169135	0.002001	84.5212	163.504	-168.761	-0.066092	0.576804	-0.431073	-0.432354	-0.023370	84.5212	-0.430866	-366698	6.373169E-8	NaN
672	1.000000	0.586086	7.37163e+06	-43489.1	1005.82	-29779	0.000000	0.000000	6.587003	0.009340	NaN	0.000000	0.001658	0.001729	28.0828	0.051711	0.001975	26.1852	142.943	-165.901	-0.040222	0.584726	-0.423072	-0.424431	0.009340	26.1852	-0.423340	-286919	-3.255445E-8	NaN
672	1.000000	0.594078	7.37163e+06	-43489.1	1005.82	-29779	0.000000	0.000000	6.594993	-0.059724	NaN	0.000000	0.001684	0.001705	28.0826	0.063812	0.001928	33.0934	93.1101	-168.704	-0.027646	0.592760	-0.415079	-0.416398	-0.059724	33.0934	-0.413726	-209584	2.849622E-7	NaN
672	1.000000	0.602107	7.37163e+06	-43489.1	1005.82	-29779	0.000000	0.000000	6.603025	0.027863	NaN	0.000000	0.001653	0.001707	28.0827	0.091927	0.001879	48.9137	62.6861	-168.122	-0.046501	0.600761	-0.407050	-0.408396	0.027863	48.9137	-0.407478	-170812	-1.631210E-7	NaN
672	1.000000	0.610076	7.37163e+06	-43489.1	1005.82	-29779	0.000000	0.000000	6.610994	0.046388	NaN	0.000000	0.001639	0.001708	28.0825	0.022847	0.002047	11.1631	-78.5929	-163.846	0.090834	0.608756	-0.399082	-0.400402	0.046388	11.1631	-0.402199	-143661	-3.228983E-7	NaN
672	1.000000	0.618098	7.37163e+06	-43489.1	1005.82	-29779	0.000000	0.000000	6.619015	-0.003252	NaN	0.000000	0.001648	0.001700	28.0829	0.013655	0.002205	6.192838	28.7759	-166.916	-0.001324	0.616778	-0.391059	-0.392379	-0.003252	6.192838	-0.390665	-98329.7	3.307493E-8	NaN
672	1.000000	0.626057	7.37163e+06	-43489.1	1005.82	-29779	0.000000	0.000000	6.626974	-0.001038	NaN	0.000000	0.001598	0.001689	28.0828	0.013798	0.001856	7.434495	-90.5127	-167.876	0.059112	0.624695	-0.383100	-0.384462	-0.001038	7.434495	-0.382996	-76359.2	1.359442E-8	NaN
672	1.000000	0.634086	7.37163e+06	-43489.1	1005.82	-29779	0.000000	0.000000	6.635003	0.002323	NaN	0.000000	0.001622	0.001698	28.0826	0.076954	0.002008	38.3249	-144.819	-168.166	-0.057314	0.632766	-0.375071	-0.376391	0.002323	38.3249	-0.375117	-58850.1	-3.946790E-8	NaN
672	1.000000	0.642060	7.37163e+06	-43489.1	1005.82	-29779	0.000000	0.000000	6.642976	-0.025824	NaN	0.000000	0.001638	0.001736	28.0826	0.005936	0.001951	3.042633	-32.267	-167.918	0.042544	0.640755	-0.367097	-0.368403	-0.025824	3.042633	-0.360732	-36510.9	7.072936E-7	NaN
672	1.000000	0.650055	7.37163e+06	-43489.1	1005.82	-29779	0.000000	0.000000	6.650972	-0.000842	NaN	0.000000	0.001602	0.001720	28.0826	0.012160	0.001875	6.483843	171.363	-165.152	-0.038020	0.648788	-0.359102	-0.360370	-0.000842	6.483843	-0.359005	-34471.3	2.442010E-8	NaN
672	1.000000	0.658080	7.37163e+06	-43489.1	1005.82	-29779	0.000000	0.000000	6.658998	0.025119	NaN	0.000000	0.001598	0.001696	28.0828	0.123866	0.002007	61.7141	165.177	-165.523	-0.075645	0.656805	-0.351078	-0.352353	0.025119	61.7141	-0.351383	-26734.3	-9.395928E-7	NaN
672	1.000000	0.666123	7.37163e+06	-43489.1	1005.82	-29779	0.000000	0.000000	6.667039	-0.016067	NaN	0.000000	0.001596	0.001716	28.0829	0.113042	0.002033	55.5907	73.5854	-167.531	-0.043108	0.664787	-0.343035	-0.344371	-0.016067	55.5907	-0.342818	-20072.5	8.004532E-7	NaN
672	1.000000	0.674114	7.37163e+06	-43489.1	1005.82	-29779	0.000000	0.000000	6.675031	-0.006681	NaN	0.000000	0.001549	0.001718	28.0826	0.136185	0.002145	63.4947	169.767	-166.985	0.037572	0.672743	-0.335044	-0.336415	-0.006681	63.4947	-0.334965	-15419.5	4.333032E-7	NaN
672	1.000000	0.682071	7.37163e+06	-43489.1	1005.82	-29779	0.000000	0.000000	6.682989	0.036436	NaN	0.000000	0.001552	0.001722	28.0827	0.055171	0.001927	28.6305	122.373	-163.869	-0.001812	0.680758	-0.327087	-0.328400	0.036436	28.6305	-0.328041	-12211.1	-2.983820E-6	NaN
672	1.000000	0.690104	7.37163e+06	-43489.1	1005.82	-29779	0.000000	0.000000	6.691018	-0.063510	NaN	0.000000	0.001606	0.001714	28.0827	0.104177	0.002001	52.0654	133.305	-167.58	-0.068864	0.688793	-0.319053	-0.320365	-0.063510	52.0654	-0.318139	-8734.27	7.271384E-6	NaN
672	1.000000	0.698114	7.37163e+06	-43489.1	1005.82	-29779	0.000000	0.000000	6.699033	0.049066	NaN	0.000000	0.001545	0.001705	28.0814	0.081045	0.002161	37.5031	-169.834	-169.546	0.050254	0.696803	-0.311044	-0.312355	0.049066	37.5031	-0.312025	-7095.91	-6.914739E-6	NaN
672	1.000000	0.706095	7.37163e+06	-43489.1	1005.82	-29779	0.000000	0.000000	6.707014	0.050474	NaN	0.000000	0.001590	0.001731	28.0813	0.063610	0.001838	34.6039	36.0955	-166.383	0.026096	0.704758	-0.303062	-0.304400	0.050474	34.6039	-0.304156	-5425.39	-9.303277E-6	NaN
672	1.000000	0.714083	7.37163e+06	-43489.1	1005.82	-29779	0.000000	0.000000	6.715002	0.052811	NaN	0.000000	0.001577	0.001733	28.0814	0.057634	0.002076	27.7569	-29.5304	-164.968	0.030368	0.712809	-0.295074	-0.296349	0.052811	27.7569	-0.296501	-4173.48	-1.265406E-5	NaN
672	1.000000	0.722094	7.37163e+06	-43489.1	1005.82	-29779	0.000000	0.000000	6.723010	-0.022859	NaN	0.000000	0.001537	0.001723	28.0814	0.030295	0.001964	15.4234	138.957	-164.447	0.002361	0.720842	-0.287064	-0.288315	-0.022859	15.4234	-0.285952	-2901.18	7.879264E-6	NaN
672	1.000000	0.730110	7.37163e+06	-43489.1	1005.82	-29779	0.000000	0.000000	6.731027	0.000109	NaN	0.000000	0.001595	0.001722	28.0814	0.048697	0.001961	24.8387	-169.159	-166.588	-0.090553	0.728803	-0.279048	-0.280354	0.000109	24.8387	-0.279051	-2283.76	-4.754139E-8	NaN
672	1.000000	0.738104	7.37163e+06	-43489.1	1005.82	-29779	0.000000	0.000000	6.739021	0.003918	NaN	0.000000	0.001623	0.001716	28.0812	0.048337	0.002051	23.5728	115.095	-165.75	0.065539	0.736809	-0.271053	-0.272349	0.003918	23.5728	-0.271178	-1735.57	-2.257732E-6	NaN
672	1.000000	0.746135	7.37163e+06	-43489.1	1005.82	-29779	0.000000	0.000000	6.747052	-0.009945	NaN	0.000000	0.001631	0.001719	28.0813	0.055568	0.001973	28.1594	24.9844	-165.508	0.034709	0.744816	-0.263023	-0.264342	-0.009945	28.1594	-0.262758	-1291.62	7.699533E-6	NaN
672	1.000000	0.754127	7.37163e+06	-43489.1	1005.82	-29779	0.000000	0.000000	6.755044	0.017867	NaN	0.000000	0.001615	0.001741	28.0816	0.075723	0.001874	40.4011	109.812	-165.337	-0.005663	0.752819	-0.255031	-0.256339	0.017867	40.4011	-0.255363	-994.709	-1.796167E-5	NaN
672	1.000000	0.762127	7.37163e+06	-43489.1	1005.82	-29779	0.000000	0.000000	6.763042	-0.049448	NaN	0.000000	0.001586	0.001748	28.0815	0.097352	0.002023	48.127	67.7059	-161.783	-0.049879	0.760862	-0.247031	-0.248296	-0.049448	48.127	-0.246260	-719.483	6.872662E-5	NaN
672	1.000000	0.770114	7.37163e+06	-43489.1	1005.82	-29779	0.000000	0.000000	6.771032	0.034419	NaN	0.000000	0.001596	0.001723	28.0816	0.079070	0.002054	38.4936	-12.2438	-168.212	0.062676	0.768797	-0.239044	-0.240361	0.034419	38.4936	-0.239714	-568.97	-6.049296E-5	NaN
672	1.000000	0.778147	7.37163e+06	-43489.1	1005.82	-29779	0.000000	0.000000	6.779064	-0.005221	NaN	0.000000	0.001612	0.001706	28.0814	0.055644	0.001988	27.9936	72.8455	-164.137	-0.010422	0.776820	-0.231011	-0.232338	-0.005221	27.9936	-0.230871	-413.295	1.263328E-5	NaN
672	1.000000	0.786147	7.37163e+06	-43489.1	1005.82	-29779	0.000000	0.000000	6.787066	0.048926	NaN	0.000000	0.001605	0.001694	28.0814	0.079909	0.002078	38.454	-112.613	-164.631	0.060109	0.784808	-0.223010	-0.224349	0.048926	38.454	-0.223965	-321.276	-0.000152	NaN
672	1.000000	0.794130	7.37163e+06	-43489.1	1005.82	-29779	0.000000	0.000000	6.795047	0.007621	NaN	0.000000	0.001634	0.001708	28.0813	0.068300	0.002111	32.3525	-106.98	-163.668	0.005613	0.792829	-0.215028	-0.216329	0.007621	32.3525	-0.215204	-232.703	-3.274808E-5	NaN
672	1.000000	0.802185	7.37163e+06	-43489.1	1005.82	-29779	0.000000	0.000000	6.803099	-0.059023	NaN	0.000000	0.001616	0.001703	28.0814	0.090486	0.002009	45.036	-126.295	-166.815	-0.044910	0.800825	-0.206973	-0.208332	-0.059023	45.036	-0.205990	-165.081	0.000358	NaN
672	1.000000	0.810160	7.37163e+06	-43489.1	1005.82	-29779	0.000000	0.000000	6.811076	-0.024841	NaN	0.000000	0.001616	0.001699	28.0815	0.077956	0.002024	38.5073	146.726	-169.505	0.017361	0.808835	-0.198997	-0.200322	-0.024841	38.5073	-0.198514	-124.521	0.000199	NaN
672	1.000000	0.818151	7.37163e+06	-43489.1	1005.82	-29779	0.000000	0.000000	6.819070	0.043654	NaN	0.000000	0.001563	0.001716	28.0814	0.046205	0.001955	23.6394	-99.3494	-166.583	0.047683	0.816821	-0.191006	-0.192336	0.043654	23.6394	-0.192391	-98.6038	-0.000443	NaN
672	1.000000	0.826177	7.37163e+06	-43489.1	1005.82	-29779	0.000000	0.000000	6.827096	0.042051	NaN	0.000000	0.001537	0.001706	28.0817	0.028689	0.001950	14.7088	51.8864	-164.65	0.059671	0.824818	-0.182980	-0.184340	0.042051	14.7088	-0.185125	-74.513	-0.000564	NaN
672	1.000000	0.834156	7.37163e+06	-43489.1	1005.82	-29779	0.000000	0.000000	6.835074	0.016294	NaN	0.000000	0.001515	0.001708	28.0826	0.055748	0.001943	28.6873	75.9558	-164.626	-0.032091	0.832838	-0.175002	-0.176320	0.016294	28.6873	-0.175428	-50.971	-0.000320	NaN
672	1.000000	0.842188	7.37163e+06	-43489.1	1005.82	-29779	0.000000	0.000000	6.843104	-0.021206	NaN	0.000000	0.001585	0.001701	28.0827	0.107168	0.002007	53.3906	147.212	-166.39	0.034330	0.840873	-0.166969	-0.168284	-0.021206	53.3906	-0.166671	-35.9419	0.000590	NaN
672	1.000000	0.850178	7.37163e+06	-43489.1	1005.82	-29779	0.000000	0.000000	6.851095	-0.006914	NaN	0.000000	0.001566	0.001717	28.0826	0.014548	0.002035	7.149998	-18.3044	-165.341	-0.070092	0.848849	-0.158980	-0.160308	-0.006914	7.149998	-0.158254	-25.5212	0.000271	NaN
672	1.000000	0.858172	7.37163e+06	-43489.1	1005.82	-29779	0.000000	0.000000	6.859088	-0.025253	NaN	0.000000	0.001599	0.001698	28.0829	0.124997	0.001924	64.9704	-117.526	-167.738	-0.002898	0.856846	-0.150986	-0.152312	-0.025253	64.9704	-0.150694	-18.6488	0.001354	NaN
672	1.000000	0.866185	7.37163e+06	-43489.1	1005.82	-29779	0.000000	0.000000	6.867104	0.043110	NaN	0.000000	0.001614	0.001702	28.083	0.058435	0.002121	27.5465	-159.47	-165.018	-0.015922	0.864847	-0.142972	-0.144311	0.043110	27.5465	-0.144146	-14.1368	-0.003050	NaN
672	1.000000	0.874187	7.37163e+06	-43489.1	1005.82	-29779	0.000000	0.000000	6.875102	-0.044058	NaN	0.000000	0.001550	0.001726	28.0827	0.072512	0.002024	35.8253	-84.4541	-167.704	-0.043509	0.872853	-0.134971	-0.136304	-0.044058	35.8253	-0.134048	-9.122038	0.004830	NaN
672	1.000000	0.882158	7.37163e+06	-43489.1	1005.82	-29779	0.000000	0.000000	6.883074	-0.013161	NaN	0.000000	0.001583	0.001712	28.0828	0.072936	0.001886	38.6649	21.9339	-163.726	0.012619	0.880852	-0.127000	-0.128306	-0.013161	38.6649	-0.126745	-6.582670	0.001999	NaN
672	1.000000	0.890160	7.37163e+06	-43489.1	1005.82	-29779	0.000000	0.000000	6.891079	0.032940	NaN	0.000000	0.001595	0.001714	28.0826	0.033036	0.002110	15.6542	98.4868	-166.504	0.038742	0.888927	-0.118997	-0.120231	0.032940	15.6542	-0.120575	-4.962260	-0.006638	NaN
672	1.000000	0.898190	7.37163e+06	-43489.1	1005.82	-29779	0.000000	0.000000	6.899106	-0.013321	NaN	0.000000	0.001599	0.001733	28.0827	0.062170	0.002004	31.0294	78.2124	-165.561	-0.004242	0.896894	-0.110968	-0.112264	-0.013321	31.0294	-0.110646	-3.100792	0.004296	NaN
672	1.000000	0.906196	7.37163e+06	-43489.1	1005.82	-29779	0.000000	0.000000	6.907110	-0.079264	NaN	0.000000	0.001637	0.001700	28.0827	0.051314	0.001949	26.3251	-125.571	-166.186	-0.009593	0.904875	-0.102961	-0.104282	-0.079264	26.3251	-0.100703	-1.893787	0.041855	NaN
672	1.000000	0.914182	7.37163e+06	-43489.1	1005.82	-29779	0.000000	0.000000	6.915098	-0.028717	NaN	0.000000	0.001616	0.001724	28.0827	0.051592	0.002009	25.6807	-155.726	-167.189	-0.002863	0.912918	-0.094976	-0.096240	-0.028717	25.6807	-0.094137	-1.348031	0.021303	NaN
672	1.000000	0.922175	7.37163e+06	-43489.1	1005.82	-29779	0.000000	0.000000	6.923095	0.067381	NaN	0.000000	0.001625	0.001727	28.083	0.137742	0.002030	67.8421	174.862	-169.337	0.081998	0.920885	-0.086982	-0.088273	0.067381	67.8421	-0.087727	-0.955256	-0.070537	NaN
672	1.000000	0.930199	7.37163e+06	-43489.1	1005.82	-29779	0.000000	0.000000	6.931113	-0.073434	NaN	0.000000	0.001620	0.001740	28.0825	0.085167	0.001958	43.4918	-157.781	-165.27	-0.045915	0.928886	-0.078958	-0.080272	-0.073434	43.4918	-0.077692	-0.541407	0.135636	NaN
672	1.000000	0.938183	7.37163e+06	-43489.1	1005.82	-29779	0.000000	0.000000	6.939102	0.041717	NaN	0.000000	0.001610	0.001769	28.0826	0.025108	0.002180	11.5158	-27.943	-165.591	-0.042057	0.936902	-0.070975	-0.072255	0.041717	11.5158	-0.073692	-0.427089	-0.097679	NaN
672	1.000000	0.946192	7.37163e+06	-43489.1	1005.82	-29779	0.000000	0.000000	6.947107	-0.046440	NaN	0.000000	0.001636	0.001773	28.0827	0.046974	0.001945	24.1528	-105.335	-160.831	0.071489	0.944939	-0.062966	-0.064219	-0.046440	24.1528	-0.061524	-0.199063	0.233292	NaN
672	1.000000	0.954212	7.37163e+06	-43489.1	1005.82	-29779	0.000000	0.000000	6.955130	0.009052	NaN	0.000000	0.001615	0.001790	28.0831	0.086955	0.001842	47.2016	-93.7803	-164.444	-0.008292	0.952885	-0.054945	-0.056273	0.009052	47.2016	-0.055089	-0.129561	-0.069867	NaN
672	1.000000	0.962196	7.37163e+06	-43489.1	1005.82	-29779	0.000000	0.000000	6.963112	-0.027958	NaN	0.000000	0.001626	0.001758	28.083	0.042769	0.002003	21.3519	130.664	-165.928	0.009173	0.960926	-0.046961	-0.048232	-0.027958	21.3519	-0.045979	-0.068853	0.406049	NaN
672	1.000000	0.970219	7.37163e+06	-43489.1	1005.82	-29779	0.000000	0.000000	6.971138	0.052077	NaN	0.000000	0.001599	0.001708	28.081	0.090605	0.002032	44.5926	-19.7883	-167.288	0.061958	0.968897	-0.038939	-0.040260	0.052077	44.5926	-0.039815	-0.044640	-1.166592	NaN
672	1.000000	0.978215	7.37163e+06	-43489.1	1005.82	-29779	0.000000	0.000000	6.979131	-0.008665	NaN	0.000000	0.001568	0.001726	28.0816	0.043303	0.001962	22.0725	-24.3143	-166.903	-0.016234	0.976890	-0.030943	-0.032268	-0.008665	22.0725	-0.030648	-0.023995	0.361115	NaN
672	1.000000	0.986230	7.37163e+06	-43489.1	1005.82	-29779	0.000000	0.000000	6.987148	0.021069	NaN	0.000000	0.001580	0.001767	28.0813	0.103022	0.002024	50.9082	-13.5382	-164.757	0.127101	0.984911	-0.022928	-0.024246	0.021069	50.9082	-0.023238	-0.015189	-1.387173	NaN
672	1.000000	0.994246	7.37163e+06	-43489.1	1005.82	-29779	0.000000	0.000000	6.995163	0.017478	NaN	0.000000	0.001583	0.001769	28.0816	0.024319	0.001935	12.5693	155.636	-170.8	0.029480	0.992927	-0.014912	-0.016230	0.017478	12.5693	-0.015955	-0.009855	-1.773505	NaN
672	1.000000	1.002211	7.37163e+06	-43489.1	1005.82	-29779	0.000000	0.000000	7.003129	0.032135	NaN	0.000000	0.001568	0.001777	28.0815	0.067811	0.001988	34.11	-20.1646	-161.979	-0.004025	1.000905	-0.006946	-0.008252	0.032135	34.11	-0.007653	-0.005028	-6.391507	NaN
672	1.000000	1.010209	7.37163e+06	-43489.1	1005.82	-29779	0.000000	0.000000	7.011337	5.124610	NaN	0.000000	0.001584	0.001735	28.0814	5.589266	0.001769	3159.37	16.0895	-172.123	4.399660	1.008861	0.001051	-0.000297	5.124610	3159.37	-0.000165	-0.000123	-41666.3	NaN
672	2.000000	1.014866	7.37163e+06	-43489.1	1005.82	-29779	0.000000	0.000000	7.016151	8.952733	NaN	0.000000	0.001591	0.001744	28.0817	9.493868	0.001609	5901.78	5.849269	-170.357	9.849758	1.014481	0.005708	0.005323	8.952733	5901.78	0.004571	0.003745	2390.56	88110.8
672	2.000000	1.016841	7.37163e+06	-43489.1	1005.82	-29779	0.000000	0.000000	7.018260	12.2223	NaN	0.000000	0.001559	0.001752	28.0812	12.3387	0.001642	7515.9	4.451998	-172.452	11.642	1.016528	0.007683	0.007370	12.2223	7515.9	0.006464	0.005509	2218.55	92515.1
672	2.000000	1.018795	7.37163e+06	-43489.1	1005.82	-29779	0.000000	0.000000	7.020383	16.3124	NaN	0.000000	0.001550	0.001742	28.0819	14.4069	0.001631	8835.11	6.305966	-176.002	15.7945	1.018434	0.009638	0.009276	16.3124	8835.11	0.008253	0.007304	2233.37	94451.1
672	2.000000	1.020795	7.37163e+06	-43489.1	1005.82	-29779	0.000000	0.000000	7.022461	18.2365	NaN	0.000000	0.001611	0.001731	28.0814	17.129	0.001796	9537.76	4.780947	-173.768	18.3571	1.020513	0.011637	0.011355	18.2365	9537.76	0.010203	0.009408	1938.36	89839.3
672	2.000000	1.022766	7.37163e+06	-43489.1	1005.82	-29779	0.000000	0.000000	7.024616	22.7091	NaN	0.000000	0.001565	0.001764	28.0815	19.1751	0.001802	10643.9	10.3977	179.198	22.49	1.022411	0.013608	0.013253	22.7091	10643.9	0.012008	0.011500	1974.75	90684.1
672	2.000000	1.024743	7.37163e+06	-43489.1	1005.82	-29779	0.000000	0.000000	7.026684	24.9079	NaN	0.000000	0.001569	0.001821	28.0817	20.5897	0.001698	12126.7	1.059605	-172.655	23.9594	1.024363	0.015586	0.015205	24.9079	12126.7	0.014045	0.014033	1774.91	93526.4
672	2.000000	1.026741	7.37163e+06	-43489.1	1005.82	-29779	0.000000	0.000000	7.028889	29.9587	NaN	0.000000	0.001553	0.001829	28.0815	23.319	0.001757	13269.7	5.860197	-179.379	28.9186	1.026438	0.017583	0.017280	29.9587	13269.7	0.015890	0.016490	1816.76	94410.6
672	2.000000	1.028703	7.37163e+06	-43489.1	1005.82	-29779	0.000000	0.000000	7.030973	32.9265	NaN	0.000000	0.001554	0.001790	28.0826	25.0635	0.001864	13448.8	6.228179	-178.409	31.8546	1.028444	0.019546	0.019286	32.9265	13448.8	0.017709	0.019070	1726.63	88978.2
672	2.000000	1.030747	7.37163e+06	-43489.1	1005.82	-29779	0.000000	0.000000	7.033365	41.3819	NaN	0.000000	0.001567	0.001798	28.0816	27.4661	0.001736	15822.4	3.075887	-177.142	40.7011	1.030412	0.021589	0.021255	41.3819	15822.4	0.019628	0.021961	1884.34	97548.5
672	2.000000	1.032765	7.37163e+06	-43489.1	1005.82	-29779	0.000000	0.000000	7.035644	47.7474	NaN	0.000000	0.001551	0.001762	28.0814	28.9161	0.001811	15971.2	5.900520	-178.827	48.7601	1.032377	0.023607	0.023219	47.7474	15971.2	0.021365	0.024733	1930.55	92784.5
672	2.000000	1.034783	7.37163e+06	-43489.1	1005.82	-29779	0.000000	0.000000	7.037745	49.7551	NaN	0.000000	0.001523	0.001775	28.0819	31.3735	0.001871	16764.2	8.911676	177.023	52.2971	1.034410	0.025625	0.025253	49.7551	16764.2	0.023399	0.028168	1766.37	91259.3
672	2.000000	1.036704	7.37163e+06	-43489.1	1005.82	-29779	0.000000	0.000000	7.040056	59.2514	NaN	0.000000	0.001585	0.001782	28.083	32.7046	0.001728	18924.8	7.893535	175.946	56.9407	1.036488	0.027546	0.027330	59.2514	18924.8	0.025198	0.031377	1888.39	97611.5
672	2.000000	1.038682	7.37163e+06	-43489.1	1005.82	-29779	0.000000	0.000000	7.042207	63.462	NaN	0.000000	0.001583	0.001745	28.0843	33.7513	0.001839	18351.3	5.020448	179.172	63.1474	1.038444	0.029524	0.029286	63.462	18351.3	0.026930	0.034621	1833.04	90109.5
672	2.000000	1.040733	7.37163e+06	-43489.1	1005.82	-29779	0.000000	0.000000	7.044506	69.486	NaN	0.000000	0.001597	0.001781	28.083	36.2494	0.001882	19263.3	4.735991	179.499	69.8617	1.040444	0.031576	0.031286	69.486	19263.3	0.028870	0.038435	1807.88	89771.9
672	2.000000	1.042732	7.37163e+06	-43489.1	1005.82	-29779	0.000000	0.000000	7.046832	77.4473	NaN	0.000000	0.001552	0.001795	28.0829	37.6778	0.001747	21566.5	7.801979	174.518	77.741	1.042434	0.033574	0.033276	77.4473	21566.5	0.030881	0.042589	1818.46	95477.6
672	2.000000	1.044707	7.37163e+06	-43489.1	1005.82	-29779	0.000000	0.000000	7.049162	86.0744	NaN	0.000000	0.001593	0.001778	28.0829	41.1897	0.001849	22271.6	4.945449	178.578	85.9572	1.044357	0.035550	0.035200	86.0744	22271.6	0.032651	0.046418	1854.33	94445.3
672	2.000000	1.046750	7.37163e+06	-43489.1	1005.82	-29779	0.000000	0.000000	7.051585	95.3295	NaN	0.000000	0.001583	0.001779	28.0828	42.3951	0.001962	21604.8	8.082793	177.114	96.3874	1.046332	0.037592	0.037175	95.3295	21604.8	0.034283	0.050089	1903.2	88196.8
672	2.000000	1.048704	7.37163e+06	-43489.1	1005.82	-29779	0.000000	0.000000	7.053808	101.878	NaN	0.000000	0.001600	0.001751	28.0841	44.1021	0.001694	26038	4.100704	177.68	100.555	1.048326	0.039546	0.039169	101.878	26038	0.036612	0.055566	1833.46	100920
672	2.000000	1.050771	7.37163e+06	-43489.1	1005.82	-29779	0.000000	0.000000	7.056236	110.66	NaN	0.000000	0.001586	0.001740	28.0827	46.6538	0.001658	28146.1	6.166582	174.645	111.484	1.050253	0.041614	0.041095	110.66	28146.1	0.038665	0.060623	1825.38	104441
672	2.000000	1.052690	7.37163e+06	-43489.1	1005.82	-29779	0.000000	0.000000	7.058539	119.994	NaN	0.000000	0.001578	0.001742	28.0829	48.0358	0.001869	25702.7	4.636670	176.951	119.32	1.052372	0.043532	0.043215	119.994	25702.7	0.040031	0.064108	1871.75	92746.4
672	2.000000	1.054709	7.37163e+06	-43489.1	1005.82	-29779	0.000000	0.000000	7.060964	129.873	NaN	0.000000	0.001571	0.001742	28.0826	51.0674	0.001721	29665.2	3.662376	176.855	130.275	1.054363	0.045552	0.045205	129.873	29665.2	0.042268	0.070021	1854.78	102425
672	2.000000	1.056677	7.37163e+06	-43489.1	1005.82	-29779	0.000000	0.000000	7.063347	139.974	NaN	0.000000	0.001587	0.001703	28.0826	53.5375	0.001874	28564	4.756105	176.174	137.925	1.056392	0.047519	0.047235	139.974	28564	0.043844	0.074340	1882.89	95715.1
672	2.000000	1.058671	7.37163e+06	-43489.1	1005.82	-29779	0.000000	0.000000	7.065559	145.269	NaN	0.000000	0.001580	0.001747	28.0833	54.5713	0.001810	30150.9	3.022210	177.352	142.98	1.058432	0.049513	0.049274	145.269	30150.9	0.045900	0.080162	1812.19	97294.7
672	2.000000	1.060658	7.37163e+06	-43489.1	1005.82	-29779	0.000000	0.000000	7.068042	157.331	NaN	0.000000	0.001644	0.001738	28.0825	57.1724	0.001794	31869.1	4.490971	176.025	156.554	1.060358	0.051501	0.051200	157.331	31869.1	0.047798	0.085729	1835.21	99444.1
672	2.000000	1.062748	7.37163e+06	-43489.1	1005.82	-29779	0.000000	0.000000	7.070270	160.707	NaN	0.000000	0.001598	0.001754	28.0829	58.9443	0.001789	32944.9	4.875129	174.843	166.787	1.062459	0.053590	0.053301	160.707	32944.9	0.049932	0.092203	1742.98	99126.6
672	2.000000	1.064617	7.37163e+06	-43489.1	1005.82	-29779	0.000000	0.000000	7.072644	172.972	NaN	0.000000	0.001616	0.001750	28.0827	60.7374	0.001782	34081.2	1.627155	177.412	169.641	1.064395	0.055460	0.055237	172.972	34081.2	0.051653	0.097591	1772.42	99674.3
672	2.000000	1.066728	7.37163e+06	-43489.1	1005.82	-29779	0.000000	0.000000	7.075416	189.063	NaN	0.000000	0.001593	0.001737	28.0828	63.2773	0.001869	33860.4	4.935940	175.286	191.044	1.066298	0.057570	0.057140	189.063	33860.4	0.053382	0.103154	1832.82	96321.1
672	2.000000	1.068591	7.37163e+06	-43489.1	1005.82	-29779	0.000000	0.000000	7.077749	200.497	NaN	0.000000	0.001606	0.001762	28.0828	65.3283	0.001834	35627.4	9.006826	170.273	196.564	1.068444	0.059433	0.059286	200.497	35627.4	0.055212	0.109203	1836	98501.1
672	2.000000	1.070594	7.37163e+06	-43489.1	1005.82	-29779	0.000000	0.000000	7.080101	209.003	NaN	0.000000	0.001564	0.001797	28.0816	66.7529	0.001882	35474.1	4.566322	174.849	206.006	1.070322	0.061436	0.061164	209.003	35474.1	0.057018	0.115332	1812.18	95435.5
672	2.000000	1.072709	7.37163e+06	-43489.1	1005.82	-29779	0.000000	0.000000	7.082686	220.434	NaN	0.000000	0.001593	0.001750	28.0816	67.5874	0.001782	37923.4	5.692260	172.954	219.533	1.072385	0.063551	0.063227	220.434	37923.4	0.059192	0.122925	1793.24	98823.5
672	2.000000	1.074529	7.37163e+06	-43489.1	1005.82	-29779	0.000000	0.000000	7.085017	232.87	NaN	0.000000	0.001570	0.001792	28.0814	70.0477	0.001855	37768.7	3.406462	175.211	227.383	1.074307	0.065371	0.065150	232.87	37768.7	0.060747	0.128499	1812.23	96261.9
672	2.000000	1.076627	7.37163e+06	-43489.1	1005.82	-29779	0.000000	0.000000	7.087695	246.964	NaN	0.000000	0.001579	0.001776	28.0815	70.969	0.001746	40656.2	3.068811	175.011	245.308	1.076327	0.067469	0.067169	246.964	40656.2	0.062914	0.136463	1809.75	100552
672	2.000000	1.078638	7.37163e+06	-43489.1	1005.82	-29779	0.000000	0.000000	7.090148	257.739	NaN	0.000000	0.001574	0.001790	28.0815	72.8227	0.001758	41430.3	5.791605	172.216	257.503	1.078361	0.069480	0.069204	257.739	41430.3	0.064814	0.143636	1794.39	99875.5
672	2.000000	1.080621	7.37163e+06	-43489.1	1005.82	-29779	0.000000	0.000000	7.092550	267.927	NaN	0.000000	0.001620	0.001762	28.0817	74.7862	0.001847	40481.9	1.874598	176.133	264.189	1.080415	0.071463	0.071258	267.927	40481.9	0.066499	0.150140	1784.52	95452.4
672	2.000000	1.082595	7.37163e+06	-43489.1	1005.82	-29779	0.000000	0.000000	7.095125	282.545	NaN	0.000000	0.001588	0.001771	28.0817	74.816	0.001804	41478.5	1.135392	177.296	278.143	1.082255	0.073438	0.073098	282.545	41478.5	0.068329	0.157356	1795.58	95533.3
672	2.000000	1.084530	7.37163e+06	-43489.1	1005.82	-29779	0.000000	0.000000	7.097443	291.852	NaN	0.000000	0.001607	0.001798	28.0814	77.6595	0.001768	43921.6	4.141108	173.325	286.062	1.084209	0.075372	0.075051	291.852	43921.6	0.070389	0.165672	1761.62	98588.4
672	2.000000	1.086635	7.37163e+06	-43489.1	1005.82	-29779	0.000000	0.000000	7.100020	303.335	NaN	0.000000	0.001618	0.001818	28.0817	79.275	0.001724	45972	3.230347	174.381	300.906	1.086310	0.077478	0.077152	303.335	45972	0.072529	0.174528	1738.03	100539
672	2.000000	1.088734	7.37163e+06	-43489.1	1005.82	-29779	0.000000	0.000000	7.102644	316.123	NaN	0.000000	0.001607	0.001795	28.0816	82.2667	0.001767	46554.6	6.761692	170.415	320.522	1.088375	0.079576	0.079218	316.123	46554.6	0.074483	0.182803	1729.32	99481.9
672	2.000000	1.090710	7.37163e+06	-43489.1	1005.82	-29779	0.000000	0.000000	7.105228	330.917	NaN	0.000000	0.001565	0.001797	28.0817	84.5009	0.001803	46867.4	5.009110	172.419	332.603	1.090237	0.081552	0.081080	330.917	46867.4	0.076257	0.190467	1737.4	98114.9
672	2.000000	1.092653	7.37163e+06	-43489.1	1005.82	-29779	0.000000	0.000000	7.107955	349.979	NaN	0.000000	0.001592	0.001763	28.0816	84.8192	0.001801	47099.9	4.293009	173.61	349.405	1.092327	0.083495	0.083169	349.979	47099.9	0.077923	0.197801	1769.35	96756.3
672	2.000000	1.094540	7.37163e+06	-43489.1	1005.82	-29779	0.000000	0.000000	7.110192	358.501	NaN	0.000000	0.001576	0.001756	28.0816	87.6219	0.001890	46360.2	3.735278	174.11	352.481	1.094275	0.085382	0.085117	358.501	46360.2	0.079583	0.205239	1746.75	93495.1
672	2.000000	1.096591	7.37163e+06	-43489.1	1005.82	-29779	0.000000	0.000000	7.112898	374.435	NaN	0.000000	0.001598	0.001784	28.0816	89.1033	0.001787	49869.6	5.201044	171.19	370.064	1.096194	0.087434	0.087036	374.435	49869.6	0.081803	0.215385	1738.45	98175.2
672	2.000000	1.098592	7.37163e+06	-43489.1	1005.82	-29779	0.000000	0.000000	7.114930	375.193	NaN	0.000000	0.001613	0.001803	28.0815	90.5229	0.001792	50522.5	5.158948	171.023	371.239	1.098364	0.089435	0.089206	375.193	50522.5	0.083865	0.225017	1667.4	97308.5
672	2.000000	1.100606	7.37163e+06	-43489.1	1005.82	-29779	0.000000	0.000000	7.117653	392.432	NaN	0.000000	0.001617	0.001799	28.0817	92.1764	0.001812	50861.1	-0.212205	177.066	390.864	1.100377	0.091448	0.091220	392.432	50861.1	0.085661	0.233567	1680.17	96150.9
672	2.000000	1.102576	7.37163e+06	-43489.1	1005.82	-29779	0.000000	0.000000	7.120787	420.746	NaN	0.000000	0.001647	0.001792	28.0817	93.2704	0.001870	49880.4	1.988260	175.407	415.241	1.102248	0.093419	0.093090	420.746	49880.4	0.087093	0.240485	1749.57	92930.7
672	2.000000	1.104508	7.37163e+06	-43489.1	1005.82	-29779	0.000000	0.000000	7.123048	428.766	NaN	0.000000	0.001628	0.001792	28.0824	95.9865	0.001904	50423.9	2.435580	174.682	419.614	1.104106	0.095351	0.094948	428.766	50423.9	0.088973	0.249719	1716.99	92190.1
672	2.000000	1.106673	7.37163e+06	-43489.1	1005.82	-29779	0.000000	0.000000	7.125806	443.193	NaN	0.000000	0.001633	0.001799	28.083	98.05	0.001723	56906.8	5.627590	170.185	442.783	1.106319	0.097516	0.097161	443.193	56906.8	0.091675	0.263267	1683.43	101330
672	2.000000	1.108652	7.37163e+06	-43489.1	1005.82	-29779	0.000000	0.000000	7.128032	449.208	NaN	0.000000	0.001624	0.001776	28.0827	98.2684	0.001851	53078.7	1.267558	175.068	449.775	1.108554	0.099494	0.099396	449.208	53078.7	0.093147	0.270792	1658.87	93191.3
672	2.000000	1.110549	7.37163e+06	-43489.1	1005.82	-29779	0.000000	0.000000	7.131088	477.394	NaN	0.000000	0.001614	0.001793	28.0829	101.491	0.001872	54225.6	4.526709	171.446	471.95	1.110238	0.101391	0.101081	477.394	54225.6	0.094788	0.279298	1709.27	93744.1
672	2.000000	1.112143	7.37163e+06	-43489.1	1005.82	-29779	0.000000	0.000000	7.133297	492.343	NaN	0.000000	0.001623	0.001777	28.0828	102.519	0.001729	59301.9	6.460739	-11.0418	491.82	1.111737	0.102986	0.102579	492.343	59301.9	0.096759	0.289673	1699.65	100667