File: remote_trans/data/nanoindenter/0828-1/data/Data_2025-08-06,11h17m57s/2025-07-22_16-23-58_1_659.txt
2025-07-22, 16:23:58, 1
Index	Phase	Displacement	Time	Pos X	Pos Y	Pos Z	Rot A	Rot B	Piezo Z	Force A	Force B	Gripper	Voltage A	Voltage B	Temperature	Amplitude force	Amplitude pos	Stiffness	Phase shift	Phase excitation	Force A raw	Displacement raw	HMax	HMax raw	Real Force	Real Stiffness	Contact Depth	Area	Hardness	Reduced Mod.
[#]	[#]	[um]	[s]	[um]	[um]	[um]	[m°]	[m°]	[um]	[uN]	[uN]	[V]	[V]	[V]	[°C]	[uN]	[um]	[N/m]	[°]	[°]	[uN]	[um]	[um]	[um]	[uN]	[N/m]	[um]	[um^2]	[MPa]	[MPa]
659	1.000000	0.002928	7.3715e+06	-44139.1	1005.82	-29776.7	0.000000	0.000000	6.002787	0.040493	NaN	0.000000	0.001551	0.001712	28.0823	0.060407	0.001000	60.4107	53.5168	-167.302	0.138662	0.001696	-1.044009	-1.045241	0.040493	60.4107	-1.044511	-9.007963E+13	-4.495274E-16	NaN
659	1.000000	0.010875	7.3715e+06	-44139.1	1005.82	-29776.7	0.000000	0.000000	6.010735	0.056671	NaN	0.000000	0.001579	0.001698	28.082	0.070439	0.000963	73.1796	-56.2684	-164.962	0.100039	0.009585	-1.036062	-1.037351	0.056671	73.1796	-1.036642	-7.060180E+13	-8.026793E-16	NaN
659	1.000000	0.018887	7.3715e+06	-44139.1	1005.82	-29776.7	0.000000	0.000000	6.018749	0.095648	NaN	0.000000	0.001622	0.001702	28.0817	0.063040	0.001593	39.561	63.4645	-168.43	0.093976	0.017551	-1.028049	-1.029386	0.095648	39.561	-1.029863	-5.723107E+13	-1.671262E-15	NaN
659	1.000000	0.026942	7.3715e+06	-44139.1	1005.82	-29776.7	0.000000	0.000000	6.026800	0.015418	NaN	0.000000	0.001615	0.001692	28.083	0.036480	0.001908	19.1195	-97.7292	-164.471	-0.056498	0.025560	-1.019995	-1.021377	0.015418	19.1195	-1.020599	-4.295528E+13	-3.589353E-16	NaN
659	1.000000	0.034889	7.3715e+06	-44139.1	1005.82	-29776.7	0.000000	0.000000	6.034748	0.025050	NaN	0.000000	0.001596	0.001725	28.0832	0.054235	0.001964	27.6187	-159.749	-168.5	0.074164	0.033618	-1.012047	-1.013319	0.025050	27.6187	-1.012728	-3.365817E+13	-7.442564E-16	NaN
659	1.000000	0.042913	7.3715e+06	-44139.1	1005.82	-29776.7	0.000000	0.000000	6.042771	0.015222	NaN	0.000000	0.001617	0.001703	28.0834	0.045239	0.001904	23.7623	-84.6119	-167.612	0.046325	0.041535	-1.004024	-1.005401	0.015222	23.7623	-1.004505	-2.608621E+13	-5.835420E-16	NaN
659	1.000000	0.050911	7.3715e+06	-44139.1	1005.82	-29776.7	0.000000	0.000000	6.050768	-0.016356	NaN	0.000000	0.001574	0.001681	28.0834	0.015961	0.001951	8.179238	-177.936	-164.515	0.015430	0.049564	-0.996026	-0.997373	-0.016356	8.179238	-0.994526	-1.914547E+13	8.542879E-16	NaN
659	1.000000	0.058898	7.3715e+06	-44139.1	1005.82	-29776.7	0.000000	0.000000	6.058755	-0.014253	NaN	0.000000	0.001588	0.001700	28.0832	0.077664	0.002106	36.881	-117.599	-167.128	0.025242	0.057554	-0.988039	-0.989382	-0.014253	36.881	-0.987749	-1.551645E+13	9.185720E-16	NaN
659	1.000000	0.066910	7.3715e+06	-44139.1	1005.82	-29776.7	0.000000	0.000000	6.066769	0.044220	NaN	0.000000	0.001614	0.001683	28.0847	0.126634	0.002001	63.2897	157.681	-165.366	-0.049438	0.065629	-0.980027	-0.981308	0.044220	63.2897	-0.980551	-1.241187E+13	-3.562745E-15	NaN
659	1.000000	0.074893	7.3715e+06	-44139.1	1005.82	-29776.7	0.000000	0.000000	6.074753	0.059219	NaN	0.000000	0.001614	0.001718	28.083	0.048662	0.002010	24.2097	-101.356	-165.432	0.028692	0.073583	-0.972044	-0.973354	0.059219	24.2097	-0.973878	-1.009085E+13	-5.868563E-15	NaN
659	1.000000	0.082894	7.3715e+06	-44139.1	1005.82	-29776.7	0.000000	0.000000	6.082754	0.056419	NaN	0.000000	0.001591	0.001701	28.0831	0.070701	0.001925	36.7186	36.101	-168.25	0.102081	0.081575	-0.964042	-0.965362	0.056419	36.7186	-0.965195	-7.707234E+12	-7.320255E-15	NaN
659	1.000000	0.090896	7.3715e+06	-44139.1	1005.82	-29776.7	0.000000	0.000000	6.090758	0.100443	NaN	0.000000	0.001612	0.001691	28.0828	0.037240	0.001976	18.8418	169.805	-170.178	0.059250	0.089643	-0.956041	-0.957294	0.100443	18.8418	-0.960039	-6.567366E+12	-1.529425E-14	NaN
659	1.000000	0.098909	7.3715e+06	-44139.1	1005.82	-29776.7	0.000000	0.000000	6.098771	0.099399	NaN	0.000000	0.001620	0.001691	28.0829	0.104407	0.002068	50.485	-0.903852	-165.049	0.136852	0.097611	-0.948028	-0.949326	0.099399	50.485	-0.949504	-4.735237E+12	-2.099135E-14	NaN
659	1.000000	0.106884	7.3715e+06	-44139.1	1005.82	-29776.7	0.000000	0.000000	6.106746	0.094043	NaN	0.000000	0.001604	0.001729	28.0832	0.035694	0.002004	17.814	-115.501	-164.927	0.013140	0.105605	-0.940052	-0.941332	0.094043	17.814	-0.944012	-3.992613E+12	-2.355433E-14	NaN
659	1.000000	0.114918	7.3715e+06	-44139.1	1005.82	-29776.7	0.000000	0.000000	6.114779	0.093289	NaN	0.000000	0.001619	0.001725	28.083	0.059534	0.001999	29.7869	130.914	-167.457	0.046814	0.113611	-0.932019	-0.933326	0.093289	29.7869	-0.934368	-2.958982E+12	-3.152742E-14	NaN
659	1.000000	0.122918	7.3715e+06	-44139.1	1005.82	-29776.7	0.000000	0.000000	6.122777	0.051685	NaN	0.000000	0.001636	0.001708	28.0833	0.151155	0.001929	78.3601	15.9857	-168.208	0.006906	0.121642	-0.924019	-0.925295	0.051685	78.3601	-0.924514	-2.178440E+12	-2.372551E-14	NaN
659	1.000000	0.130929	7.3715e+06	-44139.1	1005.82	-29776.7	0.000000	0.000000	6.130787	0.014439	NaN	0.000000	0.001610	0.001750	28.0831	0.052095	0.001997	26.0836	146.78	-168.078	0.100346	0.129617	-0.916008	-0.917320	0.014439	26.0836	-0.916423	-1.693973E+12	-8.523874E-15	NaN
659	1.000000	0.138916	7.3715e+06	-44139.1	1005.82	-29776.7	0.000000	0.000000	6.138771	-0.049401	NaN	0.000000	0.001605	0.001702	28.0833	0.047579	0.001955	24.3419	127.059	-163.171	-0.027618	0.137614	-0.908021	-0.909322	-0.049401	24.3419	-0.906499	-1.244138E+12	3.970709E-14	NaN
659	1.000000	0.146950	7.3715e+06	-44139.1	1005.82	-29776.7	0.000000	0.000000	6.146812	0.094728	NaN	0.000000	0.001576	0.001699	28.083	0.069602	0.002031	34.2758	-92.1907	-166.854	0.049032	0.145657	-0.899986	-0.901280	0.094728	34.2758	-0.902059	-1.083652E+12	-8.741555E-14	NaN
659	1.000000	0.154993	7.3715e+06	-44139.1	1005.82	-29776.7	0.000000	0.000000	6.154854	0.089500	NaN	0.000000	0.001547	0.001707	28.0831	0.039224	0.002014	19.4752	-111.537	-166.832	0.025743	0.153601	-0.891944	-0.893336	0.089500	19.4752	-0.895391	-8.806016E+11	-1.016346E-13	NaN
659	1.000000	0.162912	7.3715e+06	-44139.1	1005.82	-29776.7	0.000000	0.000000	6.162767	-0.053415	NaN	0.000000	0.001606	0.001705	28.0827	0.031445	0.001988	15.8163	163.727	-170.88	-0.048191	0.161608	-0.884025	-0.885328	-0.053415	15.8163	-0.881492	-5.713271E+11	9.349315E-14	NaN
659	1.000000	0.170946	7.3715e+06	-44139.1	1005.82	-29776.7	0.000000	0.000000	6.170806	0.071926	NaN	0.000000	0.001604	0.001694	28.082	0.074653	0.002012	37.1086	-109.461	-165.259	0.065242	0.169666	-0.875991	-0.877271	0.071926	37.1086	-0.877444	-5.036703E+11	-1.428046E-13	NaN
659	1.000000	0.178930	7.3715e+06	-44139.1	1005.82	-29776.7	0.000000	0.000000	6.178790	0.054850	NaN	0.000000	0.001589	0.001699	28.0823	0.043521	0.001949	22.3334	-155.994	-163.907	0.072028	0.177608	-0.868007	-0.869328	0.054850	22.3334	-0.869849	-3.975526E+11	-1.379682E-13	NaN
659	1.000000	0.186981	7.3715e+06	-44139.1	1005.82	-29776.7	0.000000	0.000000	6.186842	0.085130	NaN	0.000000	0.001580	0.001703	28.0817	0.004685	0.002068	2.265647	104.263	-169.154	0.090554	0.185655	-0.859956	-0.861282	0.085130	2.265647	-0.888137	-7.026319E+11	-1.211586E-13	NaN
659	1.000000	0.194947	7.3715e+06	-44139.1	1005.82	-29776.7	0.000000	0.000000	6.194809	0.096363	NaN	0.000000	0.001572	0.001722	28.0821	0.063953	0.002123	30.119	-131.906	-167.797	0.127217	0.193636	-0.851989	-0.853300	0.096363	30.119	-0.854389	-2.455628E+11	-3.924154E-13	NaN
659	1.000000	0.202939	7.3715e+06	-44139.1	1005.82	-29776.7	0.000000	0.000000	6.202801	0.105419	NaN	0.000000	0.001574	0.001686	28.0823	0.061487	0.002026	30.3458	-112.26	-164.597	0.047751	0.201641	-0.843998	-0.845296	0.105419	30.3458	-0.846603	-1.926352E+11	-5.472484E-13	NaN
659	1.000000	0.210944	7.3715e+06	-44139.1	1005.82	-29776.7	0.000000	0.000000	6.210801	-0.010193	NaN	0.000000	0.001596	0.001702	28.082	0.042315	0.002015	21.0026	-113.555	-164.859	-0.000372	0.209662	-0.835993	-0.837275	-0.010193	21.0026	-0.835629	-1.367959E+11	7.451033E-14	NaN
659	1.000000	0.218952	7.3715e+06	-44139.1	1005.82	-29776.7	0.000000	0.000000	6.218809	0.002972	NaN	0.000000	0.001597	0.001701	28.082	0.072673	0.002060	35.285	43.4621	-165.501	0.054548	0.217660	-0.827985	-0.829277	0.002972	35.285	-0.828048	-1.079766E+11	-2.752317E-14	NaN
659	1.000000	0.226946	7.3715e+06	-44139.1	1005.82	-29776.7	0.000000	0.000000	6.226805	0.033768	NaN	0.000000	0.001577	0.001714	28.0819	0.047492	0.001942	24.4607	-178.717	-168.041	0.056439	0.225635	-0.819991	-0.821301	0.033768	24.4607	-0.821026	-8.672195E+10	-3.893874E-13	NaN
659	1.000000	0.234996	7.3715e+06	-44139.1	1005.82	-29776.7	0.000000	0.000000	6.234856	0.069040	NaN	0.000000	0.001596	0.001714	28.0821	0.087733	0.001922	45.6555	-133.698	-168.262	0.056898	0.233658	-0.811941	-0.813278	0.069040	45.6555	-0.813075	-6.765336E+10	-1.020490E-12	NaN
659	1.000000	0.242943	7.3715e+06	-44139.1	1005.82	-29776.7	0.000000	0.000000	6.242803	0.065282	NaN	0.000000	0.001572	0.001713	28.0819	0.054530	0.001916	28.456	-58.1095	-166.168	-0.005324	0.241680	-0.803994	-0.805257	0.065282	28.456	-0.805715	-5.375537E+10	-1.214426E-12	NaN
659	1.000000	0.250951	7.3715e+06	-44139.1	1005.82	-29776.7	0.000000	0.000000	6.250811	0.050647	NaN	0.000000	0.001599	0.001717	28.0818	0.087250	0.001932	45.1558	-172.613	-168.363	0.129599	0.249640	-0.795986	-0.797296	0.050647	45.1558	-0.796827	-4.071780E+10	-1.243852E-12	NaN
659	1.000000	0.258965	7.3715e+06	-44139.1	1005.82	-29776.7	0.000000	0.000000	6.258826	0.077103	NaN	0.000000	0.001581	0.001738	28.082	0.089050	0.001983	44.913	-60.0785	-167.667	0.080050	0.257692	-0.787972	-0.789245	0.077103	44.913	-0.789259	-3.213809E+10	-2.399118E-12	NaN
659	1.000000	0.266994	7.3715e+06	-44139.1	1005.82	-29776.7	0.000000	0.000000	6.266853	0.020620	NaN	0.000000	0.001575	0.001711	28.082	0.005422	0.002028	2.673920	-34.7184	-165.537	0.061287	0.265685	-0.779942	-0.781252	0.020620	2.673920	-0.785726	-2.877610E+10	-7.165791E-13	NaN
659	1.000000	0.275011	7.3715e+06	-44139.1	1005.82	-29776.7	0.000000	0.000000	6.274868	0.010229	NaN	0.000000	0.001573	0.001725	28.0819	0.064930	0.002175	29.8468	-97.7753	-166.616	0.031964	0.273686	-0.771926	-0.773251	0.010229	29.8468	-0.772183	-1.883594E+10	-5.430714E-13	NaN
659	1.000000	0.282986	7.3715e+06	-44139.1	1005.82	-29776.7	0.000000	0.000000	6.282843	0.003310	NaN	0.000000	0.001575	0.001694	28.0817	0.055755	0.002171	25.6866	-80.3497	-170.011	-0.067208	0.281697	-0.763951	-0.765240	0.003310	25.6866	-0.764048	-1.460030E+10	-2.267185E-13	NaN
659	1.000000	0.291000	7.3715e+06	-44139.1	1005.82	-29776.7	0.000000	0.000000	6.290858	0.016243	NaN	0.000000	0.001599	0.001692	28.0819	0.009807	0.002173	4.514189	-63.5696	-164.976	0.058204	0.289672	-0.755937	-0.757265	0.016243	4.514189	-0.758636	-1.232364E+10	-1.318060E-12	NaN
659	1.000000	0.298992	7.3715e+06	-44139.1	1005.82	-29776.7	0.000000	0.000000	6.298853	0.097174	NaN	0.000000	0.001599	0.001712	28.0824	0.060210	0.001940	31.0407	174.189	-165.508	0.130099	0.297714	-0.747945	-0.749223	0.097174	31.0407	-0.750293	-9.488766E+9	-1.024096E-11	NaN
659	1.000000	0.307008	7.3715e+06	-44139.1	1005.82	-29776.7	0.000000	0.000000	6.306867	0.052021	NaN	0.000000	0.001538	0.001708	28.083	0.064229	0.002059	31.1886	173.435	-164.496	0.001958	0.305728	-0.739929	-0.741209	0.052021	31.1886	-0.741180	-7.130604E+9	-7.295482E-12	NaN
659	1.000000	0.315004	7.3715e+06	-44139.1	1005.82	-29776.7	0.000000	0.000000	6.314864	0.070332	NaN	0.000000	0.001555	0.001711	28.0832	0.028469	0.002021	14.0888	169.265	-170.199	0.064479	0.313699	-0.731933	-0.733238	0.070332	14.0888	-0.735677	-6.000247E+9	-1.172156E-11	NaN
659	1.000000	0.322995	7.3715e+06	-44139.1	1005.82	-29776.7	0.000000	0.000000	6.322855	0.066030	NaN	0.000000	0.001584	0.001698	28.0832	0.087023	0.001933	45.0143	7.030660	-167.557	0.070686	0.321662	-0.723942	-0.725275	0.066030	45.0143	-0.725042	-4.297565E+9	-1.536455E-11	NaN
659	1.000000	0.331001	7.3715e+06	-44139.1	1005.82	-29776.7	0.000000	0.000000	6.330863	0.110540	NaN	0.000000	0.001579	0.001686	28.0835	0.030585	0.001950	15.6865	47.8789	-164.564	0.054086	0.329683	-0.715936	-0.717254	0.110540	15.6865	-0.721221	-3.811783E+9	-2.899945E-11	NaN
659	1.000000	0.338994	7.3715e+06	-44139.1	1005.82	-29776.7	0.000000	0.000000	6.338854	0.066767	NaN	0.000000	0.001586	0.001726	28.083	0.026147	0.001962	13.3281	126.42	-168.983	0.102674	0.337658	-0.707943	-0.709278	0.066767	13.3281	-0.711700	-2.826515E+9	-2.362160E-11	NaN
659	1.000000	0.347025	7.3715e+06	-44139.1	1005.82	-29776.7	0.000000	0.000000	6.346882	-0.012377	NaN	0.000000	0.001560	0.001718	28.0833	0.076012	0.001974	38.5042	31.2207	-166.923	0.010167	0.345714	-0.699912	-0.701223	-0.012377	38.5042	-0.699671	-1.936583E+9	6.391372E-12	NaN
659	1.000000	0.355027	7.3715e+06	-44139.1	1005.82	-29776.7	0.000000	0.000000	6.354883	-0.023822	NaN	0.000000	0.001589	0.001718	28.083	0.020579	0.002110	9.754328	-100.738	-162.658	-0.048782	0.353706	-0.691910	-0.693231	-0.023822	9.754328	-0.690079	-1.432158E+9	1.663387E-11	NaN
659	1.000000	0.363016	7.3715e+06	-44139.1	1005.82	-29776.7	0.000000	0.000000	6.362874	0.023661	NaN	0.000000	0.001586	0.001719	28.0831	0.003554	0.002022	1.757419	-18.8026	-171.231	0.048582	0.361747	-0.683921	-0.685189	0.023661	1.757419	-0.694018	-1.621160E+9	-1.459511E-11	NaN
659	1.000000	0.371053	7.3715e+06	-44139.1	1005.82	-29776.7	0.000000	0.000000	6.370913	0.048606	NaN	0.000000	0.001591	0.001736	28.0834	0.033017	0.001949	16.9379	137.823	-162.927	-0.000400	0.369692	-0.675884	-0.677245	0.048606	16.9379	-0.678036	-9.802594E+8	-4.958516E-11	NaN
659	1.000000	0.379066	7.3715e+06	-44139.1	1005.82	-29776.7	0.000000	0.000000	6.378924	0.011453	NaN	0.000000	0.001578	0.001727	28.0833	0.030392	0.001889	16.0918	87.3474	-164.991	-0.027870	0.377678	-0.667870	-0.669259	0.011453	16.0918	-0.668404	-7.236819E+8	-1.582629E-11	NaN
659	1.000000	0.387042	7.3715e+06	-44139.1	1005.82	-29776.7	0.000000	0.000000	6.386902	0.082396	NaN	0.000000	0.001584	0.001698	28.0836	0.058506	0.002059	28.4165	-90.6974	-166.8	0.073156	0.385702	-0.659895	-0.661235	0.082396	28.4165	-0.662070	-5.926781E+8	-1.390227E-10	NaN
659	1.000000	0.395047	7.3715e+06	-44139.1	1005.82	-29776.7	0.000000	0.000000	6.394906	0.035794	NaN	0.000000	0.001567	0.001648	28.0835	0.117091	0.002058	56.8928	163.755	-164.878	0.104158	0.393742	-0.651890	-0.653195	0.035794	56.8928	-0.652362	-4.363260E+8	-8.203384E-11	NaN
659	1.000000	0.403023	7.3715e+06	-44139.1	1005.82	-29776.7	0.000000	0.000000	6.402883	0.064698	NaN	0.000000	0.001594	0.001665	28.0836	0.032556	0.001975	16.4884	156.802	-165.935	0.072437	0.401764	-0.643913	-0.645173	0.064698	16.4884	-0.646856	-3.667198E+8	-1.764227E-10	NaN
659	1.000000	0.411048	7.3715e+06	-44139.1	1005.82	-29776.7	0.000000	0.000000	6.410910	0.094191	NaN	0.000000	0.001607	0.001635	28.0833	0.072300	0.001978	36.551	28.203	-165.393	0.043583	0.409737	-0.635888	-0.637200	0.094191	36.551	-0.637821	-2.756710E+8	-3.416786E-10	NaN
659	1.000000	0.419035	7.3715e+06	-44139.1	1005.82	-29776.7	0.000000	0.000000	6.418896	0.099873	NaN	0.000000	0.001599	0.001648	28.0835	0.098750	0.002061	47.9096	160.74	-167.81	0.027269	0.417674	-0.627902	-0.629263	0.099873	47.9096	-0.629466	-2.116817E+8	-4.718089E-10	NaN
659	1.000000	0.427028	7.3715e+06	-44139.1	1005.82	-29776.7	0.000000	0.000000	6.426884	-0.042998	NaN	0.000000	0.001621	0.001648	28.0831	0.137083	0.001992	68.8262	-123.715	-163.374	0.039580	0.425734	-0.619909	-0.621202	-0.042998	68.8262	-0.619440	-1.541478E+8	2.789396E-10	NaN
659	1.000000	0.435017	7.3715e+06	-44139.1	1005.82	-29776.7	0.000000	0.000000	6.434875	0.025133	NaN	0.000000	0.001600	0.001631	28.083	0.043096	0.002044	21.0803	-114.636	-163.845	0.069768	0.433743	-0.611920	-0.613194	0.025133	21.0803	-0.612814	-1.249756E+8	-2.011002E-10	NaN
659	1.000000	0.443016	7.3715e+06	-44139.1	1005.82	-29776.7	0.000000	0.000000	6.442874	0.008931	NaN	0.000000	0.001597	0.001646	28.0824	0.055874	0.002097	26.6486	-141.698	-165.08	-0.008902	0.441775	-0.603921	-0.605162	0.008931	26.6486	-0.604172	-9.503981E+7	-9.397262E-11	NaN
659	1.000000	0.451082	7.3715e+06	-44139.1	1005.82	-29776.7	0.000000	0.000000	6.450938	-0.029722	NaN	0.000000	0.001612	0.001643	28.0821	0.111888	0.002001	55.9156	-136.978	-167.441	0.019448	0.449707	-0.595855	-0.597230	-0.029722	55.9156	-0.595457	-7.208943E+7	4.122878E-10	NaN
659	1.000000	0.459087	7.3715e+06	-44139.1	1005.82	-29776.7	0.000000	0.000000	6.458950	0.127916	NaN	0.000000	0.001569	0.001650	28.0822	0.073291	0.002108	34.772	25.5375	-164.143	0.101684	0.457774	-0.587850	-0.589163	0.127916	34.772	-0.590609	-6.180978E+7	-2.069512E-9	NaN
659	1.000000	0.467061	7.3715e+06	-44139.1	1005.82	-29776.7	0.000000	0.000000	6.466918	-0.005378	NaN	0.000000	0.001625	0.001619	28.0819	0.068945	0.002005	34.3845	-93.6306	-165.727	0.046697	0.465772	-0.579876	-0.581165	-0.005378	34.3845	-0.579758	-4.379174E+7	1.228031E-10	NaN
659	1.000000	0.475054	7.3715e+06	-44139.1	1005.82	-29776.7	0.000000	0.000000	6.474912	0.008881	NaN	0.000000	0.001580	0.001641	28.0819	0.112834	0.001776	63.5186	137.651	-166.421	0.059877	0.473773	-0.571882	-0.573163	0.008881	63.5186	-0.571987	-3.420485E+7	-2.596318E-10	NaN
659	1.000000	0.483079	7.3715e+06	-44139.1	1005.82	-29776.7	0.000000	0.000000	6.482939	0.048640	NaN	0.000000	0.001671	0.001644	28.0823	0.102651	0.002091	49.0903	65.5012	-167.261	0.163177	0.481743	-0.563858	-0.565194	0.048640	49.0903	-0.564601	-2.703984E+7	-1.798830E-9	NaN
659	1.000000	0.491094	7.3715e+06	-44139.1	1005.82	-29776.7	0.000000	0.000000	6.490955	0.073240	NaN	0.000000	0.001610	0.001670	28.0822	0.149978	0.002054	73.0278	-128.173	-166.16	0.072552	0.489747	-0.555842	-0.557189	0.073240	73.0278	-0.556595	-2.095365E+7	-3.495337E-9	NaN
659	1.000000	0.499085	7.3715e+06	-44139.1	1005.82	-29776.7	0.000000	0.000000	6.498945	0.065632	NaN	0.000000	0.001624	0.001645	28.082	0.054563	0.002042	26.7202	72.4409	-166.747	0.032658	0.497779	-0.547851	-0.549158	0.065632	26.7202	-0.549694	-1.681557E+7	-3.903023E-9	NaN
659	1.000000	0.507068	7.3715e+06	-44139.1	1005.82	-29776.7	0.000000	0.000000	6.506925	-0.011512	NaN	0.000000	0.001643	0.001630	28.082	0.142822	0.002141	66.7197	-8.521045	-163.774	0.042335	0.505797	-0.539868	-0.541139	-0.011512	66.7197	-0.539739	-1.223878E+7	9.406357E-10	NaN
659	1.000000	0.515100	7.3715e+06	-44139.1	1005.82	-29776.7	0.000000	0.000000	6.514958	0.010303	NaN	0.000000	0.001663	0.001640	28.082	0.053740	0.001957	27.4634	179.795	-170.129	0.034873	0.513800	-0.531837	-0.533136	0.010303	27.4634	-0.532118	-9.59364e+06	-1.073930E-9	NaN
659	1.000000	0.523084	7.3715e+06	-44139.1	1005.82	-29776.7	0.000000	0.000000	6.522940	-0.029542	NaN	0.000000	0.001617	0.001665	28.0822	0.014383	0.001952	7.369888	37.7953	-165.294	0.058585	0.521789	-0.523853	-0.525148	-0.029542	7.369888	-0.520847	-6.6892e+06	4.416312E-9	NaN
659	1.000000	0.531075	7.3715e+06	-44139.1	1005.82	-29776.7	0.000000	0.000000	6.530935	0.053936	NaN	0.000000	0.001605	0.001645	28.082	0.074691	0.002083	35.8658	-144.492	-166.536	0.064245	0.529788	-0.515861	-0.517149	0.053936	35.8658	-0.516989	-5.91175e+06	-9.123564E-9	NaN
659	1.000000	0.539070	7.3715e+06	-44139.1	1005.82	-29776.7	0.000000	0.000000	6.538929	0.047808	NaN	0.000000	0.001575	0.001651	28.0817	0.024998	0.001995	12.5334	138.935	-166.461	0.070450	0.537795	-0.507867	-0.509141	0.047808	12.5334	-0.510727	-4.83669e+06	-9.884379E-9	NaN
659	1.000000	0.547108	7.3715e+06	-44139.1	1005.82	-29776.7	0.000000	0.000000	6.546968	0.061749	NaN	0.000000	0.001597	0.001642	28.0819	0.085624	0.002026	42.2605	51.6563	-167.328	0.075962	0.545788	-0.499828	-0.501148	0.061749	42.2605	-0.500924	-3.53111e+06	-1.748707E-8	NaN
659	1.000000	0.555078	7.3715e+06	-44139.1	1005.82	-29776.7	0.000000	0.000000	6.554934	-0.029113	NaN	0.000000	0.001560	0.001621	28.0818	0.086469	0.001956	44.2138	-68.2018	-163.854	-0.031679	0.553731	-0.491859	-0.493206	-0.029113	44.2138	-0.491365	-2.59698e+06	1.121017E-8	NaN
659	1.000000	0.563117	7.3715e+06	-44139.1	1005.82	-29776.7	0.000000	0.000000	6.562976	0.026168	NaN	0.000000	0.001542	0.001607	28.082	0.072836	0.002016	36.1348	21.7053	-167.328	0.042898	0.561805	-0.483820	-0.485131	0.026168	36.1348	-0.484363	-2.0729e+06	-1.262382E-8	NaN
659	1.000000	0.571098	7.3715e+06	-44139.1	1005.82	-29776.7	0.000000	0.000000	6.570956	0.001160	NaN	0.000000	0.001562	0.001637	28.0822	0.106953	0.001975	54.1656	170.852	-166.757	-0.018372	0.569782	-0.475839	-0.477154	0.001160	54.1656	-0.475855	-1.57571e+06	-7.364852E-10	NaN
659	1.000000	0.579067	7.3715e+06	-44139.1	1005.82	-29776.7	0.000000	0.000000	6.578927	0.051867	NaN	0.000000	0.001603	0.001626	28.0833	0.059351	0.002055	28.8844	-15.5875	-165.921	0.055221	0.577792	-0.467870	-0.469145	0.051867	28.8844	-0.469217	-1.2718e+06	-4.078257E-8	NaN
659	1.000000	0.587150	7.3715e+06	-44139.1	1005.82	-29776.7	0.000000	0.000000	6.587011	0.094116	NaN	0.000000	0.001601	0.001671	28.0834	0.095077	0.001970	48.2699	144.549	-166.52	0.072456	0.585798	-0.459787	-0.461139	0.094116	48.2699	-0.461249	-983033	-9.574085E-8	NaN
659	1.000000	0.595120	7.3715e+06	-44139.1	1005.82	-29776.7	0.000000	0.000000	6.594978	0.009750	NaN	0.000000	0.001569	0.001644	28.0834	0.068839	0.001897	36.2975	82.1864	-166.635	-0.018269	0.593813	-0.451817	-0.453123	0.009750	36.2975	-0.452018	-729054	-1.337282E-8	NaN
659	1.000000	0.603109	7.3715e+06	-44139.1	1005.82	-29776.7	0.000000	0.000000	6.602969	0.046438	NaN	0.000000	0.001561	0.001665	28.0838	0.033710	0.002004	16.8218	-141.293	-166.147	-0.001291	0.601804	-0.443827	-0.445133	0.046438	16.8218	-0.445898	-597788	-7.768292E-8	NaN
659	1.000000	0.611097	7.3715e+06	-44139.1	1005.82	-29776.7	0.000000	0.000000	6.610955	0.033491	NaN	0.000000	0.001551	0.001631	28.0834	0.107793	0.001969	54.7473	-116.043	-168.119	-0.045855	0.609802	-0.435840	-0.437135	0.033491	54.7473	-0.436299	-437630	-7.652806E-8	NaN
659	1.000000	0.619131	7.3715e+06	-44139.1	1005.82	-29776.7	0.000000	0.000000	6.618990	0.049703	NaN	0.000000	0.001582	0.001640	28.0835	0.092995	0.002013	46.1976	-24.2331	-167.723	0.081014	0.617801	-0.427806	-0.429135	0.049703	46.1976	-0.428613	-340748	-1.458649E-7	NaN
659	1.000000	0.627140	7.3715e+06	-44139.1	1005.82	-29776.7	0.000000	0.000000	6.627000	0.072281	NaN	0.000000	0.001545	0.001665	28.0836	0.046150	0.002096	22.0201	-56.8447	-166.487	0.141464	0.625828	-0.419797	-0.421109	0.072281	22.0201	-0.422259	-276973	-2.609665E-7	NaN
659	1.000000	0.635112	7.3715e+06	-44139.1	1005.82	-29776.7	0.000000	0.000000	6.634969	-0.001232	NaN	0.000000	0.001586	0.001651	28.0835	0.035093	0.002034	17.2521	121.809	-168.056	-0.044299	0.633810	-0.411825	-0.413127	-0.001232	17.2521	-0.411771	-196600	6.266205E-9	NaN
659	1.000000	0.643116	7.3715e+06	-44139.1	1005.82	-29776.7	0.000000	0.000000	6.642974	0.029199	NaN	0.000000	0.001570	0.001676	28.0834	0.024992	0.002009	12.4392	-136.843	-167.219	0.080403	0.641805	-0.403821	-0.405132	0.029199	12.4392	-0.405581	-160520	-1.819052E-7	NaN
659	1.000000	0.651143	7.3715e+06	-44139.1	1005.82	-29776.7	0.000000	0.000000	6.651001	0.001250	NaN	0.000000	0.001580	0.001644	28.0835	0.072370	0.002042	35.4454	-1.936988	-164.857	-0.023094	0.649828	-0.395793	-0.397109	0.001250	35.4454	-0.395820	-116504	-1.073153E-8	NaN
659	1.000000	0.659130	7.3715e+06	-44139.1	1005.82	-29776.7	0.000000	0.000000	6.658987	-0.010386	NaN	0.000000	0.001604	0.001638	28.0837	0.048121	0.002064	23.3101	-43.7319	-168.986	0.026026	0.657833	-0.387807	-0.389104	-0.010386	23.3101	-0.387473	-88511.5	1.173418E-7	NaN
659	1.000000	0.667136	7.3715e+06	-44139.1	1005.82	-29776.7	0.000000	0.000000	6.666996	0.053622	NaN	0.000000	0.001588	0.001613	28.0836	0.117423	0.002072	56.6794	-86.6123	-166.858	0.055918	0.665824	-0.379800	-0.381112	0.053622	56.6794	-0.380510	-70340.5	-7.623244E-7	NaN
659	1.000000	0.675155	7.3715e+06	-44139.1	1005.82	-29776.7	0.000000	0.000000	6.675014	0.042006	NaN	0.000000	0.001595	0.001658	28.0835	0.143034	0.001996	71.6597	153.983	-167.959	0.027840	0.673889	-0.371782	-0.373048	0.042006	71.6597	-0.372222	-53469.9	-7.856004E-7	NaN
659	1.000000	0.683180	7.3715e+06	-44139.1	1005.82	-29776.7	0.000000	0.000000	6.683039	0.042656	NaN	0.000000	0.001584	0.001646	28.0834	0.089874	0.002054	43.7588	174.119	-164.19	0.082721	0.681841	-0.363757	-0.365095	0.042656	43.7588	-0.364488	-41367.9	-1.031142E-6	NaN
659	1.000000	0.691166	7.3715e+06	-44139.1	1005.82	-29776.7	0.000000	0.000000	6.691025	0.029122	NaN	0.000000	0.001582	0.001632	28.0833	0.016538	0.001949	8.485394	77.6927	-167.443	-0.029386	0.689842	-0.355771	-0.357095	0.029122	8.485394	-0.358345	-33721.8	-8.635867E-7	NaN
659	1.000000	0.699157	7.3715e+06	-44139.1	1005.82	-29776.7	0.000000	0.000000	6.699016	0.035168	NaN	0.000000	0.001566	0.001633	28.0832	0.103504	0.002035	50.8637	-132.541	-166.009	0.095418	0.697864	-0.347780	-0.349073	0.035168	50.8637	-0.348299	-24115.8	-1.458295E-6	NaN
659	1.000000	0.707160	7.3715e+06	-44139.1	1005.82	-29776.7	0.000000	0.000000	6.707018	0.013468	NaN	0.000000	0.001575	0.001619	28.0831	0.022388	0.001960	11.4208	-88.8417	-163.87	0.047313	0.705832	-0.339777	-0.341104	0.013468	11.4208	-0.340661	-18671.8	-7.213013E-7	NaN
659	1.000000	0.715173	7.3715e+06	-44139.1	1005.82	-29776.7	0.000000	0.000000	6.715030	-0.006540	NaN	0.000000	0.001595	0.001624	28.0822	0.039539	0.002026	19.5186	162.839	-165.55	-0.037444	0.713804	-0.331764	-0.333133	-0.006540	19.5186	-0.331513	-13727.7	4.764433E-7	NaN
659	1.000000	0.723171	7.3715e+06	-44139.1	1005.82	-29776.7	0.000000	0.000000	6.723029	0.020760	NaN	0.000000	0.001541	0.001649	28.0821	0.100671	0.001934	52.062	-108.102	-166.288	0.060522	0.721869	-0.323766	-0.325067	0.020760	52.062	-0.324065	-10676	-1.944528E-6	NaN
659	1.000000	0.731161	7.3715e+06	-44139.1	1005.82	-29776.7	0.000000	0.000000	6.731019	0.028059	NaN	0.000000	0.001570	0.001634	28.0823	0.073895	0.001975	37.423	60.8256	-166.39	0.022721	0.729802	-0.315776	-0.317135	0.028059	37.423	-0.316338	-8216.59	-3.414950E-6	NaN
659	1.000000	0.739179	7.3715e+06	-44139.1	1005.82	-29776.7	0.000000	0.000000	6.739040	0.075071	NaN	0.000000	0.001568	0.001661	28.0818	0.081086	0.002071	39.1462	87.1977	-165.013	-0.015884	0.737856	-0.307757	-0.309081	0.075071	39.1462	-0.309196	-6443.89	-1.165002E-5	NaN
659	1.000000	0.747167	7.3715e+06	-44139.1	1005.82	-29776.7	0.000000	0.000000	6.747026	0.043941	NaN	0.000000	0.001582	0.001672	28.082	0.023198	0.002065	11.2325	43.9776	-167.848	0.049059	0.745855	-0.299770	-0.301081	0.043941	11.2325	-0.302704	-5162.4	-8.511796E-6	NaN
659	1.000000	0.755142	7.3715e+06	-44139.1	1005.82	-29776.7	0.000000	0.000000	6.755000	0.022374	NaN	0.000000	0.001596	0.001651	28.082	0.136061	0.002033	66.9339	0.976434	-163.635	0.026884	0.753898	-0.291795	-0.293039	0.022374	66.9339	-0.292046	-3580.38	-6.249059E-6	NaN
659	1.000000	0.763183	7.3715e+06	-44139.1	1005.82	-29776.7	0.000000	0.000000	6.763037	-0.064776	NaN	0.000000	0.001588	0.001629	28.0819	0.075229	0.002006	37.507	-105.128	-166.947	-0.073352	0.761907	-0.283754	-0.285030	-0.064776	37.507	-0.282459	-2570.58	2.519886E-5	NaN
659	1.000000	0.771182	7.3715e+06	-44139.1	1005.82	-29776.7	0.000000	0.000000	6.771043	0.076765	NaN	0.000000	0.001574	0.001741	28.0822	0.086730	0.001927	44.9989	89.9561	-167.912	0.040050	0.769902	-0.275754	-0.277035	0.076765	44.9989	-0.277034	-2128.99	-3.605686E-5	NaN
659	1.000000	0.779195	7.3715e+06	-44139.1	1005.82	-29776.7	0.000000	0.000000	6.779053	0.020816	NaN	0.000000	0.001612	0.001741	28.082	0.016488	0.002021	8.158808	-102.865	-165.198	-0.019202	0.777831	-0.267742	-0.269106	0.020816	8.158808	-0.269655	-1645.52	-1.264989E-5	NaN
659	1.000000	0.787192	7.3715e+06	-44139.1	1005.82	-29776.7	0.000000	0.000000	6.787051	0.044797	NaN	0.000000	0.001620	0.001700	28.0819	0.043568	0.001965	22.1676	-13.2019	-166.405	0.014034	0.785901	-0.259745	-0.261036	0.044797	22.1676	-0.261261	-1225.26	-3.656111E-5	NaN
659	1.000000	0.795214	7.3715e+06	-44139.1	1005.82	-29776.7	0.000000	0.000000	6.795072	0.015080	NaN	0.000000	0.001610	0.001694	28.0819	0.068676	0.001945	35.3117	-44.8953	-169.796	0.031324	0.793868	-0.251722	-0.253069	0.015080	35.3117	-0.252043	-884.152	-1.705580E-5	NaN
659	1.000000	0.803192	7.3715e+06	-44139.1	1005.82	-29776.7	0.000000	0.000000	6.803052	0.066452	NaN	0.000000	0.001625	0.001696	28.0822	0.062280	0.002107	29.5562	87.9416	-167.122	0.070605	0.801840	-0.243745	-0.245097	0.066452	29.5562	-0.245431	-698.466	-9.513926E-5	NaN
659	1.000000	0.811211	7.3715e+06	-44139.1	1005.82	-29776.7	0.000000	0.000000	6.811070	0.041403	NaN	0.000000	0.001654	0.001662	28.0823	0.096617	0.002092	46.187	93.5913	-165.413	0.049679	0.809906	-0.235726	-0.237031	0.041403	46.187	-0.236398	-504.883	-8.200422E-5	NaN
659	1.000000	0.819183	7.3715e+06	-44139.1	1005.82	-29776.7	0.000000	0.000000	6.819040	-0.010009	NaN	0.000000	0.001642	0.001665	28.082	0.025406	0.002030	12.5179	-47.0724	-165.307	0.057760	0.817904	-0.227754	-0.229033	-0.010009	12.5179	-0.227154	-360.996	2.772611E-5	NaN
659	1.000000	0.827218	7.3715e+06	-44139.1	1005.82	-29776.7	0.000000	0.000000	6.827076	0.009934	NaN	0.000000	0.001627	0.001678	28.0819	0.044892	0.001975	22.7317	165.674	-164.963	0.035404	0.825903	-0.219718	-0.221033	0.009934	22.7317	-0.220046	-278.235	-3.570489E-5	NaN
659	1.000000	0.835246	7.3715e+06	-44139.1	1005.82	-29776.7	0.000000	0.000000	6.835103	-0.016050	NaN	0.000000	0.001626	0.001684	28.082	0.036792	0.001951	18.8539	-39.4399	-165.133	0.001582	0.833891	-0.211690	-0.213046	-0.016050	18.8539	-0.211052	-199.454	8.046916E-5	NaN
659	1.000000	0.843210	7.3715e+06	-44139.1	1005.82	-29776.7	0.000000	0.000000	6.843067	-0.012473	NaN	0.000000	0.001633	0.001676	28.0818	0.048073	0.002087	23.0305	154.451	-162.53	-0.020697	0.841909	-0.203727	-0.205027	-0.012473	23.0305	-0.203321	-149.326	8.352787E-5	NaN
659	1.000000	0.851213	7.3715e+06	-44139.1	1005.82	-29776.7	0.000000	0.000000	6.851074	0.083980	NaN	0.000000	0.001625	0.001690	28.0834	0.045117	0.001999	22.5699	-1.272927	-168.427	0.025978	0.849910	-0.195723	-0.197027	0.083980	22.5699	-0.198514	-124.523	-0.000674	NaN
659	1.000000	0.859218	7.3715e+06	-44139.1	1005.82	-29776.7	0.000000	0.000000	6.859076	0.002924	NaN	0.000000	0.001660	0.001640	28.084	0.074598	0.001940	38.4513	-24.3431	-165.201	-0.007898	0.857871	-0.187719	-0.189066	0.002924	38.4513	-0.187776	-82.5654	-3.541472E-5	NaN
659	1.000000	0.867214	7.3715e+06	-44139.1	1005.82	-29776.7	0.000000	0.000000	6.867072	0.025611	NaN	0.000000	0.001655	0.001710	28.0831	0.050360	0.002015	24.9913	134.886	-165.189	-0.008426	0.865926	-0.179723	-0.181011	0.025611	24.9913	-0.180492	-62.2053	-0.000412	NaN
659	1.000000	0.875245	7.3715e+06	-44139.1	1005.82	-29776.7	0.000000	0.000000	6.875104	0.052832	NaN	0.000000	0.001647	0.001651	28.0836	0.082660	0.002020	40.9218	135.54	-168.482	0.012129	0.873912	-0.171692	-0.173024	0.052832	40.9218	-0.172660	-45.6753	-0.001157	NaN
659	1.000000	0.883244	7.3715e+06	-44139.1	1005.82	-29776.7	0.000000	0.000000	6.883104	0.071443	NaN	0.000000	0.001630	0.001699	28.0828	0.119345	0.001975	60.4169	43.998	-166.971	0.114545	0.881974	-0.163693	-0.164963	0.071443	60.4169	-0.164580	-33.0311	-0.002163	NaN
659	1.000000	0.891246	7.3715e+06	-44139.1	1005.82	-29776.7	0.000000	0.000000	6.891104	0.011391	NaN	0.000000	0.001604	0.001700	28.0833	0.062477	0.001992	31.3566	-81.8613	-164.403	0.019986	0.889950	-0.155691	-0.156986	0.011391	31.3566	-0.155964	-23.2219	-0.000491	NaN
659	1.000000	0.899232	7.3715e+06	-44139.1	1005.82	-29776.7	0.000000	0.000000	6.899089	-0.006571	NaN	0.000000	0.001609	0.001721	28.083	0.069292	0.002179	31.7951	-162.033	-164.794	-0.001995	0.897929	-0.147705	-0.149007	-0.006571	31.7951	-0.147550	-16.3369	0.000402	NaN
659	1.000000	0.907228	7.3715e+06	-44139.1	1005.82	-29776.7	0.000000	0.000000	6.907083	-0.063923	NaN	0.000000	0.001638	0.001750	28.0833	0.111272	0.001823	61.0297	-62.3089	-170.53	-0.031522	0.905919	-0.139709	-0.141018	-0.063923	61.0297	-0.138923	-11.2902	0.005662	NaN
659	1.000000	0.915231	7.3715e+06	-44139.1	1005.82	-29776.7	0.000000	0.000000	6.915088	-0.030493	NaN	0.000000	0.001675	0.001709	28.0833	0.062739	0.001895	33.102	150.8	-168.069	-0.111825	0.913922	-0.131705	-0.133014	-0.030493	33.102	-0.131014	-7.974072	0.003824	NaN
659	1.000000	0.923252	7.3715e+06	-44139.1	1005.82	-29776.7	0.000000	0.000000	6.923108	-0.013650	NaN	0.000000	0.001595	0.001697	28.0833	0.107829	0.001907	56.5534	-124.516	-165.359	0.055017	0.921942	-0.123685	-0.124995	-0.013650	56.5534	-0.123504	-5.679502	0.002403	NaN
659	1.000000	0.931275	7.3715e+06	-44139.1	1005.82	-29776.7	0.000000	0.000000	6.931131	-0.032937	NaN	0.000000	0.001642	0.001673	28.0832	0.049791	0.001921	25.9168	-63.6569	-165.253	-0.017641	0.929913	-0.115662	-0.117024	-0.032937	25.9168	-0.114708	-3.767823	0.008742	NaN
659	1.000000	0.939268	7.3715e+06	-44139.1	1005.82	-29776.7	0.000000	0.000000	6.939124	-0.055948	NaN	0.000000	0.001638	0.001690	28.0832	0.037608	0.001944	19.3408	-67.1104	-166.043	-0.043912	0.937910	-0.107668	-0.109027	-0.055948	19.3408	-0.105499	-2.409536	0.023220	NaN
659	1.000000	0.947249	7.3715e+06	-44139.1	1005.82	-29776.7	0.000000	0.000000	6.947106	-0.005160	NaN	0.000000	0.001664	0.001682	28.0834	0.053877	0.001998	26.9644	161.15	-165.467	-0.060949	0.945974	-0.099688	-0.100963	-0.005160	26.9644	-0.099544	-1.785091	0.002890	NaN
659	1.000000	0.955256	7.3715e+06	-44139.1	1005.82	-29776.7	0.000000	0.000000	6.955114	0.013656	NaN	0.000000	0.001655	0.001686	28.0833	0.136536	0.002022	67.5345	-150.234	-167.501	0.042525	0.953969	-0.091680	-0.092967	0.013656	67.5345	-0.091832	-1.192796	-0.011448	NaN
659	1.000000	0.963250	7.3715e+06	-44139.1	1005.82	-29776.7	0.000000	0.000000	6.963107	-0.023334	NaN	0.000000	0.001621	0.001689	28.0834	0.009845	0.002107	4.671991	-12.8448	-164.316	0.009078	0.961974	-0.083686	-0.084963	-0.023334	4.671991	-0.079941	-0.616878	0.037825	NaN
659	1.000000	0.971259	7.3715e+06	-44139.1	1005.82	-29776.7	0.000000	0.000000	6.971116	-0.013451	NaN	0.000000	0.001625	0.001651	28.0833	0.110718	0.002081	53.2109	-106.442	-167.401	-0.048556	0.969943	-0.075678	-0.076994	-0.013451	53.2109	-0.075488	-0.475481	0.028289	NaN
659	1.000000	0.979265	7.3715e+06	-44139.1	1005.82	-29776.7	0.000000	0.000000	6.979123	0.023863	NaN	0.000000	0.001608	0.001667	28.0833	0.047035	0.001872	25.1245	-176.898	-167.825	0.011816	0.977989	-0.067672	-0.068947	0.023863	25.1245	-0.068384	-0.308571	-0.077333	NaN
659	1.000000	0.987287	7.3715e+06	-44139.1	1005.82	-29776.7	0.000000	0.000000	6.987145	0.024610	NaN	0.000000	0.001598	0.001700	28.082	0.048393	0.001983	24.4077	-43.5059	-166.941	0.040244	0.985969	-0.059650	-0.060967	0.024610	24.4077	-0.060406	-0.184985	-0.133037	NaN
659	1.000000	0.995292	7.3715e+06	-44139.1	1005.82	-29776.7	0.000000	0.000000	6.995150	0.011893	NaN	0.000000	0.001593	0.001658	28.082	0.143767	0.001955	73.5272	152.1	-170.569	0.018755	0.993973	-0.051645	-0.052964	0.011893	73.5272	-0.051766	-0.103148	-0.115296	NaN
659	1.000000	1.003265	7.3715e+06	-44139.1	1005.82	-29776.7	0.000000	0.000000	7.003126	0.084516	NaN	0.000000	0.001606	0.001665	28.0824	0.025562	0.001969	12.98	76.6967	-167.324	-0.016675	1.001995	-0.043671	-0.044942	0.084516	12.98	-0.048555	-0.082494	-1.024510	NaN
659	1.000000	1.011268	7.3715e+06	-44139.1	1005.82	-29776.7	0.000000	0.000000	7.011127	0.020502	NaN	0.000000	0.001633	0.001698	28.082	0.082277	0.002019	40.7477	153.413	-160.676	0.071025	1.009972	-0.035669	-0.036965	0.020502	40.7477	-0.036046	-0.034389	-0.596177	NaN
659	1.000000	1.019332	7.3715e+06	-44139.1	1005.82	-29776.7	0.000000	0.000000	7.019187	-0.061956	NaN	0.000000	0.001624	0.001698	28.0821	0.073006	0.001981	36.8569	-169.963	-165.265	-0.047211	1.018041	-0.027605	-0.028896	-0.061956	36.8569	-0.026344	-0.018303	3.385083	NaN
659	1.000000	1.027294	7.3715e+06	-44139.1	1005.82	-29776.7	0.000000	0.000000	7.027154	0.057836	NaN	0.000000	0.001625	0.001654	28.082	0.089548	0.001999	44.8031	-145.018	-169.382	0.036285	1.025988	-0.019643	-0.020949	0.057836	44.8031	-0.020611	-0.013018	-4.442641	NaN
659	1.000000	1.035316	7.3715e+06	-44139.1	1005.82	-29776.7	0.000000	0.000000	7.035173	-0.013315	NaN	0.000000	0.001652	0.001713	28.082	0.112222	0.001978	56.7301	-52.5111	-165.463	-0.008828	1.033995	-0.011621	-0.012942	-0.013315	56.7301	-0.011445	-0.007212	1.846368	NaN
659	1.000000	1.043310	7.3715e+06	-44139.1	1005.82	-29776.7	0.000000	0.000000	7.043168	-0.003083	NaN	0.000000	0.001628	0.001706	28.0821	0.028629	0.002079	13.7717	-16.9705	-164.937	-0.019408	1.041955	-0.003626	-0.004981	-0.003083	13.7717	-0.003458	-0.002425	1.271128	NaN
659	1.000000	1.051296	7.3715e+06	-44139.1	1005.82	-29776.7	0.000000	0.000000	7.051359	4.998904	NaN	0.000000	0.001619	0.001680	28.082	5.310050	0.001925	2758.55	10.0551	-169.532	3.419499	1.049945	0.004359	0.003009	4.998904	2758.55	0.003000	0.002380	2100.39	51661.5
659	2.000000	1.055890	7.3715e+06	-44139.1	1005.82	-29776.7	0.000000	0.000000	7.056103	8.640801	NaN	0.000000	0.001587	0.001729	28.0819	8.978432	0.001663	5398	3.606541	-170.885	8.272916	1.055618	0.008954	0.008681	8.640801	5398	0.007753	0.006789	1272.67	59853.2
659	2.000000	1.057924	7.3715e+06	-44139.1	1005.82	-29776.7	0.000000	0.000000	7.058254	11.5164	NaN	0.000000	0.001591	0.001664	28.0821	11.1999	0.001846	6068.65	7.157513	-172.54	11.2239	1.057581	0.010987	0.010644	11.5164	6068.65	0.009564	0.008700	1323.65	59442
659	2.000000	1.059874	7.3715e+06	-44139.1	1005.82	-29776.7	0.000000	0.000000	7.060338	14.7599	NaN	0.000000	0.001617	0.001689	28.0817	13.2341	0.001845	7171.89	9.350555	-177.825	15.0555	1.059621	0.012937	0.012684	14.7599	7171.89	0.011394	0.010772	1370.23	63133.9
659	2.000000	1.061875	7.3715e+06	-44139.1	1005.82	-29776.7	0.000000	0.000000	7.062437	17.1348	NaN	0.000000	0.001554	0.001682	28.0822	14.6639	0.001732	8467.19	6.513936	-176.103	16.8303	1.061581	0.014938	0.014644	17.1348	8467.19	0.013421	0.013237	1294.51	67239.6
659	2.000000	1.063839	7.3715e+06	-44139.1	1005.82	-29776.7	0.000000	0.000000	7.064557	20.9407	NaN	0.000000	0.001569	0.001663	28.0818	16.5465	0.001769	9352.83	7.511793	-178.316	20.1689	1.063578	0.016902	0.016642	20.9407	9352.83	0.015223	0.015584	1343.71	68450.2
659	2.000000	1.065822	7.3715e+06	-44139.1	1005.82	-29776.7	0.000000	0.000000	7.066667	24.028	NaN	0.000000	0.001563	0.001701	28.0818	19.1507	0.001910	10027.2	7.498741	-177.989	24.4216	1.065488	0.018885	0.018551	24.028	10027.2	0.017088	0.018172	1322.28	67960.2
659	2.000000	1.067836	7.3715e+06	-44139.1	1005.82	-29776.7	0.000000	0.000000	7.068943	30.4132	NaN	0.000000	0.001582	0.001677	28.0824	21.0015	0.001738	12087.1	8.277221	178.106	30.0546	1.067411	0.020899	0.020474	30.4132	12087.1	0.019012	0.021013	1447.35	76181.7
659	2.000000	1.069781	7.3715e+06	-44139.1	1005.82	-29776.7	0.000000	0.000000	7.071076	34.9854	NaN	0.000000	0.001625	0.001697	28.0817	22.0619	0.001657	13311.5	5.081062	-178.816	34.8052	1.069502	0.022844	0.022565	34.9854	13311.5	0.020873	0.023933	1461.82	78614.5
659	2.000000	1.071819	7.3715e+06	-44139.1	1005.82	-29776.7	0.000000	0.000000	7.073298	39.4567	NaN	0.000000	0.001582	0.001705	28.0833	25.1038	0.001850	13566.8	5.880070	-179.28	38.3289	1.071501	0.024882	0.024565	39.4567	13566.8	0.022701	0.026965	1463.24	75482.8
659	2.000000	1.073763	7.3715e+06	-44139.1	1005.82	-29776.7	0.000000	0.000000	7.075509	45.9633	NaN	0.000000	0.001573	0.001710	28.0828	26.4799	0.001703	15551.8	6.887652	177.584	43.3365	1.073440	0.026826	0.026504	45.9633	15551.8	0.024609	0.030309	1516.52	81615.4
659	2.000000	1.075791	7.3715e+06	-44139.1	1005.82	-29776.7	0.000000	0.000000	7.077746	51.0334	NaN	0.000000	0.001546	0.001654	28.0832	28.1133	0.001936	14522.5	4.137966	-177.076	50.2005	1.075420	0.028854	0.028483	51.0334	14522.5	0.026219	0.033270	1533.93	72742.6
659	2.000000	1.077815	7.3715e+06	-44139.1	1005.82	-29776.7	0.000000	0.000000	7.079992	56.4322	NaN	0.000000	0.001550	0.001662	28.0843	30.861	0.001862	16572.7	6.723578	177.804	56.7903	1.077517	0.030878	0.030580	56.4322	16572.7	0.028324	0.037342	1511.22	78354.9
659	2.000000	1.079770	7.3715e+06	-44139.1	1005.82	-29776.7	0.000000	0.000000	7.082298	64.9839	NaN	0.000000	0.001593	0.001662	28.0829	30.8282	0.001633	18874.5	0.456230	-177.524	63.0079	1.079414	0.032833	0.032477	64.9839	18874.5	0.030251	0.041265	1574.79	84890
659	2.000000	1.081758	7.3715e+06	-44139.1	1005.82	-29776.7	0.000000	0.000000	7.084480	69.6956	NaN	0.000000	0.001586	0.001736	28.0831	34.7497	0.001831	18975.6	3.129251	179.915	67.1058	1.081502	0.034821	0.034565	69.6956	18975.6	0.032066	0.045136	1544.14	81603.5
659	2.000000	1.083798	7.3715e+06	-44139.1	1005.82	-29776.7	0.000000	0.000000	7.086884	78.5451	NaN	0.000000	0.001556	0.001735	28.0829	36.1466	0.001863	19406.5	4.108386	179.371	78.1091	1.083441	0.036862	0.036504	78.5451	19406.5	0.033826	0.049048	1601.4	80059.1
659	2.000000	1.085766	7.3715e+06	-44139.1	1005.82	-29776.7	0.000000	0.000000	7.089125	85.189	NaN	0.000000	0.001585	0.001698	28.0831	38.8471	0.001757	22116.1	7.950571	174.123	84.0078	1.085434	0.038829	0.038498	85.189	22116.1	0.035940	0.053957	1578.83	86987.5
659	2.000000	1.087816	7.3715e+06	-44139.1	1005.82	-29776.7	0.000000	0.000000	7.091633	96.3445	NaN	0.000000	0.001557	0.001668	28.0841	40.8587	0.001762	23195.1	7.372264	174.03	97.3351	1.087395	0.040879	0.040458	96.3445	23195.1	0.037764	0.058377	1650.38	87709.7
659	2.000000	1.089767	7.3715e+06	-44139.1	1005.82	-29776.7	0.000000	0.000000	7.093840	102.561	NaN	0.000000	0.001565	0.001714	28.0829	42.2504	0.001776	23790	5.721621	175.908	103.423	1.089437	0.042830	0.042501	102.561	23790	0.039597	0.062990	1628.21	86602.7
659	2.000000	1.091770	7.3715e+06	-44139.1	1005.82	-29776.7	0.000000	0.000000	7.096343	114.716	NaN	0.000000	0.001561	0.001795	28.0831	45.4582	0.001831	24826.3	7.669156	173.128	114.252	1.091450	0.044833	0.044513	114.716	24826.3	0.041368	0.067611	1696.7	87232.1
659	2.000000	1.093803	7.3715e+06	-44139.1	1005.82	-29776.7	0.000000	0.000000	7.098731	123.356	NaN	0.000000	0.001553	0.001748	28.083	46.3024	0.001840	25170	3.274405	177.568	124.963	1.093398	0.046867	0.046461	123.356	25170	0.043191	0.072535	1700.65	85385.2
659	2.000000	1.095708	7.3715e+06	-44139.1	1005.82	-29776.7	0.000000	0.000000	7.101063	133.745	NaN	0.000000	0.001547	0.001742	28.0828	48.487	0.001859	26088.9	3.116119	176.993	129.742	1.095410	0.048772	0.048473	133.745	26088.9	0.044927	0.077379	1728.44	85687.3
659	2.000000	1.097817	7.3715e+06	-44139.1	1005.82	-29776.7	0.000000	0.000000	7.103354	138.162	NaN	0.000000	0.001560	0.001714	28.0836	50.2017	0.001855	27058	4.208245	176.16	138.468	1.097428	0.050880	0.050491	138.162	27058	0.047051	0.083515	1654.33	85543.2
659	2.000000	1.099761	7.3715e+06	-44139.1	1005.82	-29776.7	0.000000	0.000000	7.105645	146.62	NaN	0.000000	0.001568	0.001710	28.083	51.2529	0.001781	28784.7	0.311075	179.01	145.662	1.099531	0.052824	0.052595	146.62	28784.7	0.049004	0.089358	1640.81	87976.7
659	2.000000	1.101701	7.3715e+06	-44139.1	1005.82	-29776.7	0.000000	0.000000	7.108156	160.496	NaN	0.000000	0.001565	0.001718	28.0829	54.0266	0.001839	29379.2	2.928141	176.248	157.598	1.101451	0.054765	0.054514	160.496	29379.2	0.050667	0.094487	1698.61	87322.8
659	2.000000	1.103784	7.3715e+06	-44139.1	1005.82	-29776.7	0.000000	0.000000	7.110801	174.182	NaN	0.000000	0.001504	0.001754	28.0829	55.5661	0.001783	31164.2	8.773191	170.897	174.321	1.103409	0.056848	0.056472	174.182	31164.2	0.052656	0.100798	1728.02	89681.4
659	2.000000	1.105740	7.3715e+06	-44139.1	1005.82	-29776.7	0.000000	0.000000	7.113100	182.542	NaN	0.000000	0.001517	0.001683	28.0817	56.7037	0.001752	32357.4	2.847176	175.731	181.008	1.105446	0.058803	0.058509	182.542	32357.4	0.054572	0.107067	1704.92	90347.9
659	2.000000	1.107810	7.3715e+06	-44139.1	1005.82	-29776.7	0.000000	0.000000	7.115673	194.771	NaN	0.000000	0.001505	0.001759	28.0818	59.7455	0.001809	33035.1	4.050376	174.747	197.594	1.107459	0.060873	0.060522	194.771	33035.1	0.056451	0.113392	1717.68	89630.8
659	2.000000	1.109714	7.3715e+06	-44139.1	1005.82	-29776.7	0.000000	0.000000	7.118192	209.708	NaN	0.000000	0.001560	0.001736	28.0818	60.1782	0.001668	36078.5	2.284824	175.319	207.271	1.109436	0.062778	0.062499	209.708	36078.5	0.058418	0.120197	1744.7	95076.7
659	2.000000	1.111768	7.3715e+06	-44139.1	1005.82	-29776.7	0.000000	0.000000	7.120615	218.7	NaN	0.000000	0.001569	0.001722	28.0818	63.5435	0.001844	34460.7	3.991900	175.829	218.898	1.111313	0.064831	0.064376	218.7	34460.7	0.060072	0.126065	1734.82	88674.8
659	2.000000	1.113742	7.3715e+06	-44139.1	1005.82	-29776.7	0.000000	0.000000	7.123139	232.062	NaN	0.000000	0.001576	0.001724	28.0817	64.8642	0.001851	35037.2	5.056055	172.972	232.267	1.113419	0.066806	0.066482	232.062	35037.2	0.061838	0.132482	1751.65	87947.5
659	2.000000	1.115668	7.3715e+06	-44139.1	1005.82	-29776.7	0.000000	0.000000	7.125704	247.651	NaN	0.000000	0.001587	0.001700	28.0818	67.1597	0.001853	36240	0.994134	176.115	243.818	1.115350	0.068731	0.068414	247.651	36240	0.063606	0.139054	1780.96	88791.1
659	2.000000	1.117687	7.3715e+06	-44139.1	1005.82	-29776.7	0.000000	0.000000	7.128308	261.87	NaN	0.000000	0.001592	0.001730	28.0818	68.3501	0.001821	37530.2	1.198004	177.321	258.044	1.117292	0.070750	0.070355	261.87	37530.2	0.065517	0.146332	1789.57	89636.4
659	2.000000	1.119702	7.3715e+06	-44139.1	1005.82	-29776.7	0.000000	0.000000	7.130874	275.26	NaN	0.000000	0.001560	0.001732	28.082	70.2131	0.001757	39971.8	4.422452	172.916	273.888	1.119309	0.072765	0.072372	275.26	39971.8	0.067600	0.154464	1782.03	92920.9
659	2.000000	1.121693	7.3715e+06	-44139.1	1005.82	-29776.7	0.000000	0.000000	7.133130	281.715	NaN	0.000000	0.001580	0.001697	28.082	73.0878	0.001741	41992.2	5.834475	170.292	279.376	1.121531	0.074756	0.074594	281.715	41992.2	0.069725	0.162969	1728.64	95036.2
659	2.000000	1.123652	7.3715e+06	-44139.1	1005.82	-29776.7	0.000000	0.000000	7.135948	302.613	NaN	0.000000	0.001572	0.001716	28.0819	73.2994	0.001770	41422.2	2.912545	173.924	297.992	1.123436	0.076716	0.076499	302.613	41422.2	0.071236	0.169154	1788.98	92016.4
659	2.000000	1.125763	7.3715e+06	-44139.1	1005.82	-29776.7	0.000000	0.000000	7.138692	318.022	NaN	0.000000	0.001579	0.001737	28.0818	76.5747	0.001863	41103.7	7.595355	169.914	317.234	1.125221	0.078826	0.078284	318.022	41103.7	0.073023	0.176603	1800.77	89362.5
659	2.000000	1.127829	7.3715e+06	-44139.1	1005.82	-29776.7	0.000000	0.000000	7.140949	322.669	NaN	0.000000	0.001578	0.001723	28.0819	76.7504	0.001708	44948.2	-0.240557	176.74	328.059	1.127511	0.080892	0.080574	322.669	44948.2	0.075508	0.187213	1723.54	94911.3
659	2.000000	1.129684	7.3715e+06	-44139.1	1005.82	-29776.7	0.000000	0.000000	7.143662	343.538	NaN	0.000000	0.001596	0.001721	28.0822	79.0569	0.001768	44707.6	4.032596	172.339	341.922	1.129444	0.082747	0.082507	343.538	44707.6	0.076984	0.193654	1773.98	92820.1
659	2.000000	1.131661	7.3715e+06	-44139.1	1005.82	-29776.7	0.000000	0.000000	7.146574	366.27	NaN	0.000000	0.001582	0.001710	28.0822	81.5561	0.001836	44419.8	-0.599721	177.112	362.383	1.131314	0.084725	0.084378	366.27	44419.8	0.078540	0.200554	1826.3	90622.1
659	2.000000	1.133563	7.3715e+06	-44139.1	1005.82	-29776.7	0.000000	0.000000	7.148716	372.123	NaN	0.000000	0.001540	0.001699	28.082	82.4934	0.001793	46005.4	3.723286	172.265	363.026	1.133335	0.086626	0.086398	372.123	46005.4	0.080560	0.209676	1774.75	91792.6
659	2.000000	1.135795	7.3715e+06	-44139.1	1005.82	-29776.7	0.000000	0.000000	7.151505	385.687	NaN	0.000000	0.001556	0.001692	28.082	85.6366	0.001669	51299.8	8.183025	166.905	392.066	1.135439	0.088858	0.088503	385.687	51299.8	0.083219	0.221979	1737.49	99479.3
659	2.000000	1.137726	7.3715e+06	-44139.1	1005.82	-29776.7	0.000000	0.000000	7.154498	411.509	NaN	0.000000	0.001552	0.001722	28.0822	87.3705	0.001864	46875.9	5.954217	169.997	410.123	1.137402	0.090790	0.090466	411.509	46875.9	0.084206	0.226626	1815.8	89963.7
659	2.000000	1.139667	7.3715e+06	-44139.1	1005.82	-29776.7	0.000000	0.000000	7.157045	426.235	NaN	0.000000	0.001566	0.001694	28.0832	88.2227	0.001742	50647.7	5.097272	170.472	422.896	1.139341	0.092730	0.092405	426.235	50647.7	0.086419	0.237216	1796.82	95008.2
659	2.000000	1.141655	7.3715e+06	-44139.1	1005.82	-29776.7	0.000000	0.000000	7.159805	445.03	NaN	0.000000	0.001589	0.001704	28.0836	90.5927	0.001774	51079.9	2.557309	173.014	441.041	1.141366	0.094718	0.094429	445.03	51079.9	0.088184	0.245823	1810.37	94126.5
659	2.000000	1.143680	7.3715e+06	-44139.1	1005.82	-29776.7	0.000000	0.000000	7.162560	462.785	NaN	0.000000	0.001560	0.001735	28.0836	92.4563	0.001730	53451.7	7.020071	167.904	460.643	1.143353	0.096743	0.096416	462.785	53451.7	0.090250	0.256081	1807.18	96504.1
659	2.000000	1.145659	7.3715e+06	-44139.1	1005.82	-29776.7	0.000000	0.000000	7.164994	473.857	NaN	0.000000	0.001609	0.001700	28.0832	96.4137	0.001886	51125.5	5.192564	170.114	469.865	1.145323	0.098723	0.098386	473.857	51125.5	0.091771	0.263759	1796.56	90950.9
659	2.000000	1.147780	7.3715e+06	-44139.1	1005.82	-29776.7	0.000000	0.000000	7.167780	490.031	NaN	0.000000	0.001582	0.001708	28.0833	98.3903	0.001822	53992.7	5.225286	169.62	491.752	1.147544	0.100844	0.100607	490.031	53992.7	0.094037	0.275388	1779.42	94001.6
659	2.000000	1.149605	7.3715e+06	-44139.1	1005.82	-29776.7	0.000000	0.000000	7.170343	508.005	NaN	0.000000	0.001544	0.001705	28.0833	99.8799	0.001864	53577.4	6.709862	168.424	502.323	1.149327	0.102668	0.102391	508.005	53577.4	0.095557	0.283322	1793.03	91963.4
659	2.000000	1.151680	7.3715e+06	-44139.1	1005.82	-29776.7	0.000000	0.000000	7.173343	530.499	NaN	0.000000	0.001579	0.001758	28.0834	101.724	0.001885	53976.7	6.058909	169.4	528.46	1.151305	0.104743	0.104368	530.499	53976.7	0.097372	0.292936	1810.97	91115.7
659	2.000000	1.153106	7.3715e+06	-44139.1	1005.82	-29776.7	0.000000	0.000000	7.175277	542.86	NaN	0.000000	0.001587	0.001741	28.0835	102.213	0.001900	53809.8	5.005069	-9.787521	536.266	1.152741	0.106169	0.105804	542.86	53809.8	0.098602	0.299538	1812.33	89827.4