File: remote_trans/data/nanoindenter/0828-1/data/Data_2025-08-06,11h17m57s/2025-07-22_16-23-58_1_592.txt
2025-07-22, 16:23:58, 1
Index	Phase	Displacement	Time	Pos X	Pos Y	Pos Z	Rot A	Rot B	Piezo Z	Force A	Force B	Gripper	Voltage A	Voltage B	Temperature	Amplitude force	Amplitude pos	Stiffness	Phase shift	Phase excitation	Force A raw	Displacement raw	HMax	HMax raw	Real Force	Real Stiffness	Contact Depth	Area	Hardness	Reduced Mod.
[#]	[#]	[um]	[s]	[um]	[um]	[um]	[m°]	[m°]	[um]	[uN]	[uN]	[V]	[V]	[V]	[°C]	[uN]	[um]	[N/m]	[°]	[°]	[uN]	[um]	[um]	[um]	[uN]	[N/m]	[um]	[um^2]	[MPa]	[MPa]
592	1.000000	0.002527	7.37084e+06	-47489.1	1005.82	-29765.8	0.000000	0.000000	6.002766	0.051366	NaN	0.000000	0.001546	0.001694	28.0806	0.072771	0.000917	79.3938	-174.3	-164.968	0.044927	0.001319	-1.059262	-1.060470	0.051366	79.3938	-1.059747	-1.443519E+14	-3.558392E-16	NaN
592	1.000000	0.010503	7.37084e+06	-47489.1	1005.82	-29765.8	0.000000	0.000000	6.010740	0.003403	NaN	0.000000	0.001551	0.001694	28.0805	0.094161	0.000992	94.9453	-37.5845	-165.443	0.009790	0.009215	-1.051286	-1.052574	0.003403	94.9453	-1.051313	-1.111890E+14	-3.060409E-17	NaN
592	1.000000	0.018514	7.37084e+06	-47489.1	1005.82	-29765.8	0.000000	0.000000	6.018754	0.075040	NaN	0.000000	0.001575	0.001643	28.0803	0.153090	0.001785	85.7722	-170.066	-169.412	0.125484	0.017178	-1.043275	-1.044611	0.075040	85.7722	-1.043931	-8.847605E+13	-8.481398E-16	NaN
592	1.000000	0.026533	7.37084e+06	-47489.1	1005.82	-29765.8	0.000000	0.000000	6.026771	0.027123	NaN	0.000000	0.001550	0.001675	28.0803	0.116338	0.001830	63.5871	161.87	-164.1	-0.010132	0.025220	-1.035256	-1.036569	0.027123	63.5871	-1.035576	-6.830773E+13	-3.970724E-16	NaN
592	1.000000	0.034529	7.37084e+06	-47489.1	1005.82	-29765.8	0.000000	0.000000	6.034768	0.063930	NaN	0.000000	0.001545	0.001687	28.0803	0.138283	0.001946	71.0574	-5.546765	-168.714	0.027706	0.033207	-1.027260	-1.028582	0.063930	71.0574	-1.027935	-5.391401E+13	-1.185769E-15	NaN
592	1.000000	0.042497	7.37084e+06	-47489.1	1005.82	-29765.8	0.000000	0.000000	6.042736	0.038992	NaN	0.000000	0.001526	0.001657	28.0792	0.109864	0.001780	61.7175	82.8264	-167.854	0.026751	0.041172	-1.019292	-1.020617	0.038992	61.7175	-1.019765	-4.185959E+13	-9.314880E-16	NaN
592	1.000000	0.050502	7.37084e+06	-47489.1	1005.82	-29765.8	0.000000	0.000000	6.050744	0.119677	NaN	0.000000	0.001528	0.001675	28.0793	0.104974	0.001915	54.8208	-126.784	-163.629	0.092608	0.049217	-1.011287	-1.012572	0.119677	54.8208	-1.012924	-3.386365E+13	-3.534082E-15	NaN
592	1.000000	0.058506	7.37084e+06	-47489.1	1005.82	-29765.8	0.000000	0.000000	6.058744	0.030015	NaN	0.000000	0.001543	0.001663	28.0794	0.061488	0.001985	30.9818	-118.874	-165.826	0.037625	0.057160	-1.003283	-1.004629	0.030015	30.9818	-1.004009	-2.568896E+13	-1.168385E-15	NaN
592	1.000000	0.066523	7.37084e+06	-47489.1	1005.82	-29765.8	0.000000	0.000000	6.066761	0.024591	NaN	0.000000	0.001581	0.001672	28.0793	0.117638	0.002074	56.7294	34.8808	-163.84	0.010129	0.065245	-0.995265	-0.996544	0.024591	56.7294	-0.995591	-1.978782E+13	-1.242742E-15	NaN
592	1.000000	0.074491	7.37084e+06	-47489.1	1005.82	-29765.8	0.000000	0.000000	6.074728	0.013647	NaN	0.000000	0.001549	0.001704	28.0794	0.071562	0.002040	35.0748	159.156	-169.408	0.062774	0.073207	-0.987298	-0.988582	0.013647	35.0748	-0.987590	-1.544001E+13	-8.838570E-16	NaN
592	1.000000	0.082519	7.37084e+06	-47489.1	1005.82	-29765.8	0.000000	0.000000	6.082758	0.049524	NaN	0.000000	0.001543	0.001663	28.0795	0.085741	0.002073	41.3623	57.8612	-166.586	-0.003064	0.081215	-0.979270	-0.980573	0.049524	41.3623	-0.980168	-1.226509E+13	-4.037804E-15	NaN
592	1.000000	0.090526	7.37084e+06	-47489.1	1005.82	-29765.8	0.000000	0.000000	6.090763	-0.000470	NaN	0.000000	0.001541	0.001665	28.0795	0.105738	0.002092	50.5525	-96.6235	-169.159	0.046931	0.089274	-0.971262	-0.972515	-0.000470	50.5525	-0.971255	-9.302143E+12	5.049228E-17	NaN
592	1.000000	0.098525	7.37084e+06	-47489.1	1005.82	-29765.8	0.000000	0.000000	6.098769	0.167918	NaN	0.000000	0.001565	0.001675	28.0794	0.076126	0.001963	38.7891	56.0449	-164.871	0.150688	0.097284	-0.963264	-0.964505	0.167918	38.7891	-0.966510	-8.028433E+12	-2.091538E-14	NaN
592	1.000000	0.106538	7.37084e+06	-47489.1	1005.82	-29765.8	0.000000	0.000000	6.106777	0.061320	NaN	0.000000	0.001598	0.001640	28.0791	0.050613	0.001980	25.5638	152.356	-163.68	0.086267	0.105206	-0.955251	-0.956583	0.061320	25.5638	-0.957050	-5.985487E+12	-1.024484E-14	NaN
592	1.000000	0.114540	7.37084e+06	-47489.1	1005.82	-29765.8	0.000000	0.000000	6.114781	0.103043	NaN	0.000000	0.001571	0.001651	28.0793	0.037337	0.001921	19.4353	-123.226	-165.684	0.060250	0.113222	-0.947249	-0.948567	0.103043	19.4353	-0.951225	-4.995194E+12	-2.062848E-14	NaN
592	1.000000	0.122549	7.37084e+06	-47489.1	1005.82	-29765.8	0.000000	0.000000	6.122788	0.055690	NaN	0.000000	0.001587	0.001647	28.0793	0.067019	0.002299	29.148	127.172	-165.08	0.068980	0.121180	-0.939240	-0.940609	0.055690	29.148	-0.940673	-3.599242E+12	-1.547267E-14	NaN
592	1.000000	0.130557	7.37084e+06	-47489.1	1005.82	-29765.8	0.000000	0.000000	6.130796	0.065939	NaN	0.000000	0.001557	0.001655	28.0792	0.069450	0.002087	33.2794	173.807	-164.395	0.044982	0.129261	-0.931232	-0.932528	0.065939	33.2794	-0.932718	-2.811144E+12	-2.345616E-14	NaN
592	1.000000	0.138536	7.37084e+06	-47489.1	1005.82	-29765.8	0.000000	0.000000	6.138777	0.099385	NaN	0.000000	0.001542	0.001637	28.0791	0.052421	0.001976	26.5309	123.358	-163.922	0.134791	0.137218	-0.923253	-0.924571	0.099385	26.5309	-0.926062	-2.285841E+12	-4.347869E-14	NaN
592	1.000000	0.146555	7.37084e+06	-47489.1	1005.82	-29765.8	0.000000	0.000000	6.146792	0.020143	NaN	0.000000	0.001561	0.001646	28.0794	0.083463	0.001881	44.3616	-125.354	-163.201	0.037316	0.145195	-0.915234	-0.916594	0.020143	44.3616	-0.915575	-1.649877E+12	-1.220853E-14	NaN
592	1.000000	0.154550	7.37084e+06	-47489.1	1005.82	-29765.8	0.000000	0.000000	6.154792	0.120268	NaN	0.000000	0.001560	0.001669	28.0794	0.024614	0.001898	12.9681	152.012	-165.538	0.066582	0.153202	-0.907238	-0.908587	0.120268	12.9681	-0.914194	-1.580548E+12	-7.609255E-14	NaN
592	1.000000	0.162560	7.37084e+06	-47489.1	1005.82	-29765.8	0.000000	0.000000	6.162797	-0.002635	NaN	0.000000	0.001554	0.001670	28.0793	0.150345	0.002002	75.0987	-168.139	-166.633	0.133087	0.161266	-0.899228	-0.900523	-0.002635	75.0987	-0.899202	-9.914803E+11	2.657858E-15	NaN
592	1.000000	0.170533	7.37084e+06	-47489.1	1005.82	-29765.8	0.000000	0.000000	6.170774	0.107583	NaN	0.000000	0.001577	0.001671	28.0791	0.074320	0.002073	35.8429	-98.8878	-166.706	0.058538	0.169222	-0.891256	-0.892567	0.107583	35.8429	-0.893507	-8.304523E+11	-1.295469E-13	NaN
592	1.000000	0.178546	7.37084e+06	-47489.1	1005.82	-29765.8	0.000000	0.000000	6.178785	0.070250	NaN	0.000000	0.001569	0.001644	28.0804	0.061936	0.001921	32.2381	45.7296	-166.962	0.039287	0.177243	-0.883243	-0.884546	0.070250	32.2381	-0.884877	-6.348341E+11	-1.106596E-13	NaN
592	1.000000	0.186578	7.37084e+06	-47489.1	1005.82	-29765.8	0.000000	0.000000	6.186812	-0.043022	NaN	0.000000	0.001564	0.001687	28.0803	0.042793	0.002063	20.7418	18.3582	-164.636	0.025893	0.185289	-0.875211	-0.876500	-0.043022	20.7418	-0.873656	-4.476085E+11	9.611458E-14	NaN
592	1.000000	0.194574	7.37084e+06	-47489.1	1005.82	-29765.8	0.000000	0.000000	6.194812	0.034808	NaN	0.000000	0.001583	0.001596	28.0805	0.034274	0.002024	16.9333	-77.5101	-168.173	0.048051	0.193292	-0.867215	-0.868497	0.034808	16.9333	-0.868757	-3.842612E+11	-9.058462E-14	NaN
592	1.000000	0.202577	7.37084e+06	-47489.1	1005.82	-29765.8	0.000000	0.000000	6.202815	0.046109	NaN	0.000000	0.001579	0.001666	28.0805	0.070697	0.001920	36.8166	53.0088	-172.591	0.037639	0.201284	-0.859212	-0.860505	0.046109	36.8166	-0.860151	-2.938807E+11	-1.568973E-13	NaN
592	1.000000	0.210554	7.37084e+06	-47489.1	1005.82	-29765.8	0.000000	0.000000	6.210795	0.101830	NaN	0.000000	0.001540	0.001670	28.0802	0.074320	0.001973	37.6744	-126.429	-170.443	0.078359	0.209286	-0.851235	-0.852503	0.101830	37.6744	-0.853262	-2.370869E+11	-4.295051E-13	NaN
592	1.000000	0.218575	7.37084e+06	-47489.1	1005.82	-29765.8	0.000000	0.000000	6.218816	0.113074	NaN	0.000000	0.001566	0.001624	28.0804	0.027703	0.002080	13.3156	-82.0868	-165.638	0.141324	0.217236	-0.843214	-0.844552	0.113074	13.3156	-0.849583	-2.113918E+11	-5.349016E-13	NaN
592	1.000000	0.226597	7.37084e+06	-47489.1	1005.82	-29765.8	0.000000	0.000000	6.226835	0.040664	NaN	0.000000	0.001563	0.001645	28.0805	0.082511	0.001902	43.3739	-124.148	-166.329	-0.007383	0.225256	-0.835192	-0.836533	0.040664	43.3739	-0.835895	-1.379351E+11	-2.948032E-13	NaN
592	1.000000	0.234563	7.37084e+06	-47489.1	1005.82	-29765.8	0.000000	0.000000	6.234803	0.075878	NaN	0.000000	0.001561	0.001655	28.0804	0.100860	0.001973	51.1261	-50.9395	-165.936	0.055468	0.233237	-0.827225	-0.828552	0.075878	51.1261	-0.828338	-1.089591E+11	-6.963885E-13	NaN
592	1.000000	0.242613	7.37084e+06	-47489.1	1005.82	-29765.8	0.000000	0.000000	6.242848	-0.044173	NaN	0.000000	0.001587	0.001634	28.0805	0.069712	0.002047	34.0612	22.2161	-163.468	-0.030995	0.241262	-0.819176	-0.820527	-0.044173	34.0612	-0.818203	-7.940364E+10	5.563096E-13	NaN
592	1.000000	0.250599	7.37084e+06	-47489.1	1005.82	-29765.8	0.000000	0.000000	6.250835	-0.030192	NaN	0.000000	0.001575	0.001672	28.0804	0.068427	0.001934	35.3833	-142.146	-165.364	0.030646	0.249314	-0.811190	-0.812475	-0.030192	35.3833	-0.810550	-6.252127E+10	4.829132E-13	NaN
592	1.000000	0.258595	7.37084e+06	-47489.1	1005.82	-29765.8	0.000000	0.000000	6.258831	-0.024702	NaN	0.000000	0.001587	0.001634	28.0804	0.042214	0.002011	20.9948	-154.743	-163.754	-0.006112	0.257306	-0.803194	-0.804483	-0.024702	20.9948	-0.802311	-4.833218E+10	5.110971E-13	NaN
592	1.000000	0.266579	7.37084e+06	-47489.1	1005.82	-29765.8	0.000000	0.000000	6.266816	-0.006923	NaN	0.000000	0.001597	0.001669	28.0802	0.017500	0.002070	8.455075	24.5883	-165.935	0.084444	0.265273	-0.795210	-0.796516	-0.006923	8.455075	-0.794596	-3.797430E+10	1.822966E-13	NaN
592	1.000000	0.274598	7.37084e+06	-47489.1	1005.82	-29765.8	0.000000	0.000000	6.274836	0.041153	NaN	0.000000	0.001574	0.001652	28.0803	0.087009	0.002094	41.5555	46.4005	-167.379	-0.029077	0.273290	-0.787191	-0.788499	0.041153	41.5555	-0.787934	-3.083306E+10	-1.334697E-12	NaN
592	1.000000	0.282579	7.37084e+06	-47489.1	1005.82	-29765.8	0.000000	0.000000	6.282817	0.019319	NaN	0.000000	0.001562	0.001649	28.0804	0.107122	0.001907	56.1639	-30.3454	-165.38	0.038944	0.281294	-0.779209	-0.780495	0.019319	56.1639	-0.779467	-2.365889E+10	-8.165464E-13	NaN
592	1.000000	0.290593	7.37084e+06	-47489.1	1005.82	-29765.8	0.000000	0.000000	6.290829	-0.014537	NaN	0.000000	0.001550	0.001661	28.0803	0.105726	0.001945	54.3486	175.447	-167.905	-0.023548	0.289295	-0.771196	-0.772494	-0.014537	54.3486	-0.770995	-1.814822E+10	8.010199E-13	NaN
592	1.000000	0.298633	7.37084e+06	-47489.1	1005.82	-29765.8	0.000000	0.000000	6.298872	0.057701	NaN	0.000000	0.001567	0.001650	28.0804	0.066445	0.001953	34.0137	-176.588	-164.672	0.079337	0.297315	-0.763156	-0.764474	0.057701	34.0137	-0.764428	-1.477525E+10	-3.905234E-12	NaN
592	1.000000	0.306588	7.37084e+06	-47489.1	1005.82	-29765.8	0.000000	0.000000	6.306826	0.012618	NaN	0.000000	0.001624	0.001645	28.0802	0.013107	0.002022	6.481675	-32.9159	-165.73	0.093856	0.305320	-0.755200	-0.756469	0.012618	6.481675	-0.756660	-1.158419E+10	-1.089246E-12	NaN
592	1.000000	0.314625	7.37084e+06	-47489.1	1005.82	-29765.8	0.000000	0.000000	6.314864	0.047610	NaN	0.000000	0.001575	0.001657	28.0792	0.085825	0.001965	43.6843	48.8807	-162.864	-0.014244	0.313303	-0.747164	-0.748486	0.047610	43.6843	-0.747981	-8.825422E+9	-5.394634E-12	NaN
592	1.000000	0.322622	7.37084e+06	-47489.1	1005.82	-29765.8	0.000000	0.000000	6.322859	0.011401	NaN	0.000000	0.001636	0.001629	28.079	0.056127	0.002128	26.3697	-85.3183	-170.61	-0.017204	0.321343	-0.739167	-0.740446	0.011401	26.3697	-0.739492	-6.762860E+9	-1.685821E-12	NaN
592	1.000000	0.330611	7.37084e+06	-47489.1	1005.82	-29765.8	0.000000	0.000000	6.330847	-0.013645	NaN	0.000000	0.001584	0.001651	28.0791	0.042116	0.001967	21.4062	-133.628	-168.209	0.044200	0.329313	-0.731178	-0.732476	-0.013645	21.4062	-0.730700	-5.132716E+9	2.658471E-12	NaN
592	1.000000	0.338637	7.37084e+06	-47489.1	1005.82	-29765.8	0.000000	0.000000	6.338873	-0.001496	NaN	0.000000	0.001551	0.001674	28.079	0.056575	0.002113	26.7762	139.838	-164.156	0.021258	0.337371	-0.723152	-0.724418	-0.001496	26.7762	-0.723110	-4.044671E+9	3.697710E-13	NaN
592	1.000000	0.346644	7.37084e+06	-47489.1	1005.82	-29765.8	0.000000	0.000000	6.346882	0.036252	NaN	0.000000	0.001526	0.001616	28.0792	0.087860	0.001960	44.823	178.759	-162.49	0.089239	0.345299	-0.715145	-0.716490	0.036252	44.823	-0.715752	-3.210184E+9	-1.129276E-11	NaN
592	1.000000	0.354653	7.37084e+06	-47489.1	1005.82	-29765.8	0.000000	0.000000	6.354893	0.068505	NaN	0.000000	0.001536	0.001651	28.0794	0.031448	0.001924	16.3492	-170.887	-167.716	0.128836	0.353343	-0.707136	-0.708446	0.068505	16.3492	-0.710278	-2.702984E+9	-2.534412E-11	NaN
592	1.000000	0.362654	7.37084e+06	-47489.1	1005.82	-29765.8	0.000000	0.000000	6.362894	0.074100	NaN	0.000000	0.001569	0.001661	28.0793	0.046064	0.001945	23.6803	127.886	-164.78	0.011913	0.361332	-0.699135	-0.700457	0.074100	23.6803	-0.701481	-2.050032E+9	-3.614564E-11	NaN
592	1.000000	0.370625	7.37084e+06	-47489.1	1005.82	-29765.8	0.000000	0.000000	6.370864	0.068071	NaN	0.000000	0.001563	0.001658	28.0795	0.096613	0.002016	47.9115	-52.6659	-166.897	0.034824	0.369314	-0.691164	-0.692475	0.068071	47.9115	-0.692230	-1.532448E+9	-4.441976E-11	NaN
592	1.000000	0.378633	7.37084e+06	-47489.1	1005.82	-29765.8	0.000000	0.000000	6.378875	0.117374	NaN	0.000000	0.001568	0.001680	28.0794	0.116212	0.001764	65.897	101.312	-165.137	-0.008151	0.377360	-0.683156	-0.684429	0.117374	65.897	-0.684492	-1.201225E+9	-9.771197E-11	NaN
592	1.000000	0.386668	7.37084e+06	-47489.1	1005.82	-29765.8	0.000000	0.000000	6.386909	0.091237	NaN	0.000000	0.001565	0.001666	28.0794	0.140620	0.002028	69.3418	66.6835	-169.275	0.125264	0.385373	-0.675121	-0.676416	0.091237	69.3418	-0.676107	-9.224889E+8	-9.890323E-11	NaN
592	1.000000	0.394654	7.37084e+06	-47489.1	1005.82	-29765.8	0.000000	0.000000	6.394893	0.059110	NaN	0.000000	0.001577	0.001669	28.0796	0.115603	0.002063	56.0264	147.036	-166.996	0.047535	0.393308	-0.667135	-0.668481	0.059110	56.0264	-0.667926	-7.128589E+8	-8.291920E-11	NaN
592	1.000000	0.402619	7.37084e+06	-47489.1	1005.82	-29765.8	0.000000	0.000000	6.402858	0.059821	NaN	0.000000	0.001569	0.001683	28.0794	0.052753	0.002020	26.1202	-167.293	-166.785	0.075845	0.401350	-0.659170	-0.660439	0.059821	26.1202	-0.660887	-5.709839E+8	-1.047675E-10	NaN
592	1.000000	0.410672	7.37084e+06	-47489.1	1005.82	-29765.8	0.000000	0.000000	6.410912	0.067748	NaN	0.000000	0.001584	0.001666	28.0796	0.015573	0.001866	8.344683	-171.446	-167.718	0.082667	0.409301	-0.651117	-0.652488	0.067748	8.344683	-0.657206	-5.083818E+8	-1.332616E-10	NaN
592	1.000000	0.418657	7.37084e+06	-47489.1	1005.82	-29765.8	0.000000	0.000000	6.418896	0.067493	NaN	0.000000	0.001580	0.001684	28.0792	0.079993	0.002039	39.2408	37.0553	-164.63	0.028284	0.417357	-0.643132	-0.644432	0.067493	39.2408	-0.644422	-3.395837E+8	-1.987534E-10	NaN
592	1.000000	0.426650	7.37084e+06	-47489.1	1005.82	-29765.8	0.000000	0.000000	6.426889	0.061957	NaN	0.000000	0.001612	0.001643	28.0793	0.043833	0.001973	22.2187	80.0634	-167.686	-0.004430	0.425360	-0.635139	-0.636429	0.061957	22.2187	-0.637230	-2.705696E+8	-2.289876E-10	NaN
592	1.000000	0.434712	7.37084e+06	-47489.1	1005.82	-29765.8	0.000000	0.000000	6.434949	0.007938	NaN	0.000000	0.001610	0.001667	28.0793	0.073649	0.002053	35.8758	-11.8664	-164.884	-0.053067	0.433381	-0.627077	-0.628408	0.007938	35.8758	-0.627243	-1.973137E+8	-4.022969E-11	NaN
592	1.000000	0.442676	7.37084e+06	-47489.1	1005.82	-29765.8	0.000000	0.000000	6.442916	0.088441	NaN	0.000000	0.001581	0.001684	28.0793	0.036459	0.001954	18.6541	47.1629	-169.636	0.084524	0.441445	-0.619113	-0.620343	0.088441	18.6541	-0.622669	-1.707323E+8	-5.180104E-10	NaN
592	1.000000	0.450696	7.37084e+06	-47489.1	1005.82	-29765.8	0.000000	0.000000	6.450934	0.042657	NaN	0.000000	0.001577	0.001650	28.0802	0.142869	0.001966	72.6802	-54.3842	-165.897	0.015297	0.449350	-0.611093	-0.612439	0.042657	72.6802	-0.611533	-1.200075E+8	-3.554567E-10	NaN
592	1.000000	0.458677	7.37084e+06	-47489.1	1005.82	-29765.8	0.000000	0.000000	6.458915	0.049642	NaN	0.000000	0.001576	0.001663	28.0805	0.046859	0.001967	23.8183	-51.5044	-165.465	-0.015106	0.457405	-0.603112	-0.604384	0.049642	23.8183	-0.604675	-9.656799E+7	-5.140582E-10	NaN
592	1.000000	0.466670	7.37084e+06	-47489.1	1005.82	-29765.8	0.000000	0.000000	6.466909	0.073118	NaN	0.000000	0.001608	0.001613	28.0808	0.188165	0.001992	94.4568	137.83	-163.796	-0.011656	0.465360	-0.595119	-0.596429	0.073118	94.4568	-0.595700	-7.264770E+7	-1.006475E-9	NaN
592	1.000000	0.474701	7.37084e+06	-47489.1	1005.82	-29765.8	0.000000	0.000000	6.474940	0.054242	NaN	0.000000	0.001574	0.001634	28.0806	0.184682	0.001945	94.9384	51.6282	-163.602	0.013799	0.473351	-0.587088	-0.588438	0.054242	94.9384	-0.587516	-5.602964E+7	-9.680939E-10	NaN
592	1.000000	0.482694	7.37084e+06	-47489.1	1005.82	-29765.8	0.000000	0.000000	6.482933	0.049594	NaN	0.000000	0.001620	0.001659	28.0806	0.111334	0.002012	55.3448	139.87	-167.79	0.021857	0.481360	-0.579095	-0.580429	0.049594	55.3448	-0.579767	-4.380331E+7	-1.132191E-9	NaN
592	1.000000	0.490696	7.37084e+06	-47489.1	1005.82	-29765.8	0.000000	0.000000	6.490934	0.027099	NaN	0.000000	0.001559	0.001676	28.0808	0.034892	0.001973	17.686	47.1916	-166.309	-0.001131	0.489378	-0.571092	-0.572411	0.027099	17.686	-0.572242	-3.448271E+7	-7.858716E-10	NaN
592	1.000000	0.498701	7.37084e+06	-47489.1	1005.82	-29765.8	0.000000	0.000000	6.498939	0.022143	NaN	0.000000	0.001562	0.001669	28.0807	0.023290	0.001855	12.5585	93.7987	-168.048	0.013913	0.497393	-0.563088	-0.564396	0.022143	12.5585	-0.564410	-2.687642E+7	-8.238915E-10	NaN
592	1.000000	0.506715	7.37084e+06	-47489.1	1005.82	-29765.8	0.000000	0.000000	6.506954	0.069171	NaN	0.000000	0.001593	0.001631	28.0808	0.111581	0.001947	57.295	-161.267	-166.879	0.045215	0.505423	-0.555074	-0.556366	0.069171	57.295	-0.555979	-2.054681E+7	-3.366508E-9	NaN
592	1.000000	0.514706	7.37084e+06	-47489.1	1005.82	-29765.8	0.000000	0.000000	6.514942	-0.012156	NaN	0.000000	0.001577	0.001667	28.0806	0.061043	0.002002	30.4945	56.6507	-168.337	-0.019273	0.513363	-0.547083	-0.548426	-0.012156	30.4945	-0.546784	-1.532495E+7	7.931884E-10	NaN
592	1.000000	0.522733	7.37084e+06	-47489.1	1005.82	-29765.8	0.000000	0.000000	6.522971	0.014570	NaN	0.000000	0.001539	0.001651	28.0806	0.076784	0.002032	37.7789	127.269	-170.466	-0.028710	0.521446	-0.539055	-0.540343	0.014570	37.7789	-0.539345	-1.208561E+7	-1.205575E-9	NaN
592	1.000000	0.530726	7.37084e+06	-47489.1	1005.82	-29765.8	0.000000	0.000000	6.530963	0.027302	NaN	0.000000	0.001557	0.001645	28.0806	0.047198	0.001984	23.7935	136.129	-167.374	0.034479	0.529385	-0.531063	-0.532404	0.027302	23.7935	-0.531924	-9.53434e+06	-2.863536E-9	NaN
592	1.000000	0.538723	7.37084e+06	-47489.1	1005.82	-29765.8	0.000000	0.000000	6.538962	0.055942	NaN	0.000000	0.001660	0.001658	28.0807	0.065500	0.002077	31.5368	132.985	-165.792	0.067988	0.537413	-0.523065	-0.524376	0.055942	31.5368	-0.524396	-7.49401e+06	-7.464844E-9	NaN
592	1.000000	0.546728	7.37084e+06	-47489.1	1005.82	-29765.8	0.000000	0.000000	6.546968	0.089540	NaN	0.000000	0.001648	0.001646	28.0804	0.052216	0.001918	27.2211	-107.863	-164.637	0.071136	0.545386	-0.515061	-0.516403	0.089540	27.2211	-0.517528	-6.01462e+06	-1.488706E-8	NaN
592	1.000000	0.554749	7.37084e+06	-47489.1	1005.82	-29765.8	0.000000	0.000000	6.554985	-0.010178	NaN	0.000000	0.001574	0.001660	28.0807	0.086604	0.001975	43.8482	-127.384	-169.181	0.010680	0.553434	-0.507040	-0.508355	-0.010178	43.8482	-0.506866	-4.27319e+06	2.381820E-9	NaN
592	1.000000	0.562746	7.37084e+06	-47489.1	1005.82	-29765.8	0.000000	0.000000	6.562984	0.034989	NaN	0.000000	0.001537	0.001638	28.0807	0.044303	0.001991	22.2567	-21.0072	-167.696	0.027854	0.561460	-0.499043	-0.500329	0.034989	22.2567	-0.500222	-3.45238e+06	-1.013475E-8	NaN
592	1.000000	0.570747	7.37084e+06	-47489.1	1005.82	-29765.8	0.000000	0.000000	6.570985	0.043312	NaN	0.000000	0.001576	0.001630	28.0804	0.116710	0.001898	61.5011	-92.2373	-166.864	0.049882	0.569402	-0.491042	-0.492387	0.043312	61.5011	-0.491570	-2.61418e+06	-1.656826E-8	NaN
592	1.000000	0.578734	7.37084e+06	-47489.1	1005.82	-29765.8	0.000000	0.000000	6.578973	0.077124	NaN	0.000000	0.001606	0.001585	28.0804	0.031855	0.001947	16.3609	-154.176	-165.845	0.029472	0.577401	-0.483055	-0.484388	0.077124	16.3609	-0.486591	-2.22709e+06	-3.462987E-8	NaN
592	1.000000	0.586747	7.37084e+06	-47489.1	1005.82	-29765.8	0.000000	0.000000	6.586986	0.066767	NaN	0.000000	0.001572	0.001661	28.0797	0.030688	0.001869	16.4184	-0.401481	-166.341	0.009597	0.585436	-0.475042	-0.476353	0.066767	16.4184	-0.478092	-1.69361e+06	-3.942304E-8	NaN
592	1.000000	0.594716	7.37084e+06	-47489.1	1005.82	-29765.8	0.000000	0.000000	6.594957	0.085848	NaN	0.000000	0.001546	0.001668	28.0794	0.022974	0.001976	11.6274	40.8802	-164.847	0.085877	0.593387	-0.467072	-0.468402	0.085848	11.6274	-0.472610	-1.41907e+06	-6.049615E-8	NaN
592	1.000000	0.602728	7.37084e+06	-47489.1	1005.82	-29765.8	0.000000	0.000000	6.602969	0.098133	NaN	0.000000	0.001539	0.001706	28.079	0.128283	0.002084	61.548	133.779	-167.985	0.064104	0.601374	-0.459060	-0.460415	0.098133	61.548	-0.460256	-951961	-1.030852E-7	NaN
592	1.000000	0.610752	7.37084e+06	-47489.1	1005.82	-29765.8	0.000000	0.000000	6.610990	0.032137	NaN	0.000000	0.001563	0.001651	28.0791	0.102295	0.002019	50.6643	162.945	-164.21	0.020689	0.609409	-0.451037	-0.452380	0.032137	50.6643	-0.451512	-717196	-4.480868E-8	NaN
592	1.000000	0.618732	7.37084e+06	-47489.1	1005.82	-29765.8	0.000000	0.000000	6.618972	0.067989	NaN	0.000000	0.001592	0.001708	28.0794	0.050099	0.001981	25.2953	154.466	-164.573	0.018391	0.617438	-0.443057	-0.444351	0.067989	25.2953	-0.445072	-581988	-1.168212E-7	NaN
592	1.000000	0.626785	7.37084e+06	-47489.1	1005.82	-29765.8	0.000000	0.000000	6.627022	0.025813	NaN	0.000000	0.001575	0.001670	28.0792	0.067966	0.002013	33.7599	-112.9	-165.419	0.081439	0.625462	-0.435004	-0.436326	0.025813	33.7599	-0.435578	-427478	-6.038464E-8	NaN
592	1.000000	0.634737	7.37084e+06	-47489.1	1005.82	-29765.8	0.000000	0.000000	6.634975	0.035680	NaN	0.000000	0.001595	0.001675	28.079	0.059421	0.002097	28.3348	-124.341	-164.521	0.026815	0.633470	-0.427051	-0.428319	0.035680	28.3348	-0.427996	-333966	-1.068371E-7	NaN
592	1.000000	0.642750	7.37084e+06	-47489.1	1005.82	-29765.8	0.000000	0.000000	6.642989	0.063806	NaN	0.000000	0.001594	0.001663	28.079	0.086760	0.001838	47.2068	-23.6556	-167.114	0.102069	0.641427	-0.419039	-0.420362	0.063806	47.2068	-0.420053	-257731	-2.475679E-7	NaN
592	1.000000	0.650770	7.37084e+06	-47489.1	1005.82	-29765.8	0.000000	0.000000	6.651007	-0.007013	NaN	0.000000	0.001597	0.001650	28.0791	0.078570	0.001976	39.7717	-131.636	-167.876	0.020087	0.649438	-0.411019	-0.412351	-0.007013	39.7717	-0.410886	-190987	3.671946E-8	NaN
592	1.000000	0.658764	7.37084e+06	-47489.1	1005.82	-29765.8	0.000000	0.000000	6.659001	0.008830	NaN	0.000000	0.001577	0.001698	28.0791	0.011163	0.002022	5.522074	127.039	-165.376	-0.031620	0.657505	-0.403024	-0.404284	0.008830	5.522074	-0.404224	-153530	-5.751415E-8	NaN
592	1.000000	0.666802	7.37084e+06	-47489.1	1005.82	-29765.8	0.000000	0.000000	6.667039	0.017798	NaN	0.000000	0.001593	0.001655	28.0791	0.063808	0.002087	30.5811	-57.4344	-166.865	0.061860	0.665491	-0.394987	-0.396298	0.017798	30.5811	-0.395424	-114996	-1.547739E-7	NaN
592	1.000000	0.674758	7.37084e+06	-47489.1	1005.82	-29765.8	0.000000	0.000000	6.674995	0.002877	NaN	0.000000	0.001564	0.001679	28.0793	0.050324	0.001839	27.3634	80.0078	-166.889	0.006065	0.673432	-0.387031	-0.388357	0.002877	27.3634	-0.387110	-87459.2	-3.288979E-8	NaN
592	1.000000	0.682759	7.37084e+06	-47489.1	1005.82	-29765.8	0.000000	0.000000	6.682996	0.023665	NaN	0.000000	0.001579	0.001690	28.0791	0.094745	0.001987	47.6798	-153.558	-165.6	0.065429	0.681482	-0.379030	-0.380307	0.023665	47.6798	-0.379402	-67812.5	-3.489771E-7	NaN
592	1.000000	0.690772	7.37084e+06	-47489.1	1005.82	-29765.8	0.000000	0.000000	6.691009	0.026892	NaN	0.000000	0.001555	0.001665	28.0793	0.035654	0.002122	16.799	-23.3237	-167.586	0.003199	0.689511	-0.371017	-0.372278	0.026892	16.799	-0.372218	-53463	-5.030082E-7	NaN
592	1.000000	0.698812	7.37084e+06	-47489.1	1005.82	-29765.8	0.000000	0.000000	6.699049	0.002456	NaN	0.000000	0.001553	0.001651	28.0791	0.042041	0.002009	20.9273	66.6743	-167.792	0.064140	0.697480	-0.362976	-0.364308	0.002456	20.9273	-0.363064	-39456.3	-6.224667E-8	NaN
592	1.000000	0.706809	7.37084e+06	-47489.1	1005.82	-29765.8	0.000000	0.000000	6.707046	0.007844	NaN	0.000000	0.001579	0.001626	28.0789	0.045678	0.001905	23.978	75.4008	-169.154	0.076333	0.705488	-0.354980	-0.356301	0.007844	23.978	-0.355225	-30391.7	-2.580942E-7	NaN
592	1.000000	0.714785	7.37084e+06	-47489.1	1005.82	-29765.8	0.000000	0.000000	6.715023	0.046334	NaN	0.000000	0.001559	0.001643	28.0794	0.085285	0.001930	44.1991	-97.9054	-168.503	0.060223	0.713448	-0.347004	-0.348341	0.046334	44.1991	-0.347790	-23709.1	-1.954262E-6	NaN
592	1.000000	0.722811	7.37084e+06	-47489.1	1005.82	-29765.8	0.000000	0.000000	6.723047	-0.028119	NaN	0.000000	0.001579	0.001662	28.0794	0.024586	0.001991	12.3507	163.743	-165.036	0.071887	0.721489	-0.338978	-0.340300	-0.028119	12.3507	-0.337270	-16662.3	1.687570E-6	NaN
592	1.000000	0.730789	7.37084e+06	-47489.1	1005.82	-29765.8	0.000000	0.000000	6.731025	-0.030233	NaN	0.000000	0.001662	0.001656	28.0802	0.111499	0.001955	57.0458	18.2588	-165.339	0.048824	0.729518	-0.331000	-0.332271	-0.030233	57.0458	-0.330602	-13312.8	2.271011E-6	NaN
592	1.000000	0.738811	7.37084e+06	-47489.1	1005.82	-29765.8	0.000000	0.000000	6.739049	0.043670	NaN	0.000000	0.001582	0.001620	28.0803	0.079945	0.002112	37.8475	170.387	-164.259	-0.013508	0.737509	-0.322978	-0.324280	0.043670	37.8475	-0.323843	-10596.2	-4.121291E-6	NaN
592	1.000000	0.746782	7.37084e+06	-47489.1	1005.82	-29765.8	0.000000	0.000000	6.747022	0.081073	NaN	0.000000	0.001636	0.001668	28.0805	0.112082	0.002059	54.4258	125.799	-164.234	0.055048	0.745448	-0.315007	-0.316341	0.081073	54.4258	-0.316124	-8157.13	-9.938931E-6	NaN
592	1.000000	0.754829	7.37084e+06	-47489.1	1005.82	-29765.8	0.000000	0.000000	6.755067	0.021266	NaN	0.000000	0.001641	0.001642	28.0803	0.039486	0.001917	20.595	-62.9934	-166.511	0.040358	0.753520	-0.306960	-0.308268	0.021266	20.595	-0.307734	-6130.56	-3.468809E-6	NaN
592	1.000000	0.762833	7.37084e+06	-47489.1	1005.82	-29765.8	0.000000	0.000000	6.763072	0.061005	NaN	0.000000	0.001555	0.001621	28.0804	0.055414	0.001866	29.6951	157.316	-162.366	0.042337	0.761508	-0.298956	-0.300281	0.061005	29.6951	-0.300497	-4786.69	-1.274478E-5	NaN
592	1.000000	0.770805	7.37084e+06	-47489.1	1005.82	-29765.8	0.000000	0.000000	6.771042	-0.002453	NaN	0.000000	0.001552	0.001636	28.0806	0.096403	0.002010	47.9693	14.9762	-164.7	0.056064	0.769526	-0.290984	-0.292263	-0.002453	47.9693	-0.290945	-3447.16	7.115659E-7	NaN
592	1.000000	0.778822	7.37084e+06	-47489.1	1005.82	-29765.8	0.000000	0.000000	6.779059	0.018362	NaN	0.000000	0.001565	0.001650	28.0803	0.023076	0.001883	12.2545	1.144187	-162.714	0.026776	0.777509	-0.282967	-0.284280	0.018362	12.2545	-0.284091	-2720.16	-6.750510E-6	NaN
592	1.000000	0.786810	7.37084e+06	-47489.1	1005.82	-29765.8	0.000000	0.000000	6.787049	0.049411	NaN	0.000000	0.001540	0.001669	28.0806	0.142978	0.001986	72.0022	-4.168562	-165.741	0.051200	0.785467	-0.274978	-0.276322	0.049411	72.0022	-0.275493	-2017.74	-2.448845E-5	NaN
592	1.000000	0.794813	7.37084e+06	-47489.1	1005.82	-29765.8	0.000000	0.000000	6.795052	0.058224	NaN	0.000000	0.001550	0.001656	28.0803	0.062912	0.002085	30.1703	-40.6387	-168.194	0.094147	0.793493	-0.266976	-0.268296	0.058224	30.1703	-0.268423	-1576.03	-3.694354E-5	NaN
592	1.000000	0.802793	7.37084e+06	-47489.1	1005.82	-29765.8	0.000000	0.000000	6.803032	0.052341	NaN	0.000000	0.001557	0.001643	28.0803	0.009874	0.002119	4.658724	-146.456	-164.706	0.020422	0.801495	-0.258995	-0.260293	0.052341	4.658724	-0.267422	-1521.64	-3.439795E-5	NaN
592	1.000000	0.810796	7.37084e+06	-47489.1	1005.82	-29765.8	0.000000	0.000000	6.811038	0.112882	NaN	0.000000	0.001518	0.001673	28.0803	0.048926	0.002045	23.9272	103.866	-166.233	0.151098	0.809530	-0.250993	-0.252259	0.112882	23.9272	-0.254531	-965.809	-0.000117	NaN
592	1.000000	0.818802	7.37084e+06	-47489.1	1005.82	-29765.8	0.000000	0.000000	6.819040	0.036040	NaN	0.000000	0.001564	0.001642	28.0801	0.040915	0.002055	19.9103	86.4161	-166.442	0.068140	0.817528	-0.242987	-0.244261	0.036040	19.9103	-0.244344	-671.832	-5.364361E-5	NaN
592	1.000000	0.826844	7.37084e+06	-47489.1	1005.82	-29765.8	0.000000	0.000000	6.827083	0.068078	NaN	0.000000	0.001536	0.001692	28.0804	0.108851	0.002100	51.8399	121.047	-165.486	-0.009919	0.825476	-0.234945	-0.236313	0.068078	51.8399	-0.235930	-496.42	-0.000137	NaN
592	1.000000	0.834827	7.37084e+06	-47489.1	1005.82	-29765.8	0.000000	0.000000	6.835065	0.030116	NaN	0.000000	0.001542	0.001659	28.0801	0.049094	0.001927	25.4764	92.6667	-167.574	0.024928	0.833514	-0.226962	-0.228274	0.030116	25.4764	-0.227848	-370.253	-8.133819E-5	NaN
592	1.000000	0.842861	7.37084e+06	-47489.1	1005.82	-29765.8	0.000000	0.000000	6.843102	0.097023	NaN	0.000000	0.001576	0.001674	28.0803	0.043052	0.002015	21.3678	-127.709	-165.325	0.093692	0.841542	-0.218928	-0.220247	0.097023	21.3678	-0.222333	-302.626	-0.000321	NaN
592	1.000000	0.850820	7.37084e+06	-47489.1	1005.82	-29765.8	0.000000	0.000000	6.851059	0.050561	NaN	0.000000	0.001574	0.001647	28.08	0.045504	0.001921	23.6822	-34.059	-169.228	0.015742	0.849578	-0.210969	-0.212211	0.050561	23.6822	-0.212570	-211.042	-0.000240	NaN
592	1.000000	0.858852	7.37084e+06	-47489.1	1005.82	-29765.8	0.000000	0.000000	6.859087	-0.024940	NaN	0.000000	0.001555	0.001658	28.0798	0.062432	0.002034	30.6886	-72.6989	-166.892	0.022415	0.857553	-0.202937	-0.204236	-0.024940	30.6886	-0.202328	-143.841	0.000173	NaN
592	1.000000	0.866850	7.37084e+06	-47489.1	1005.82	-29765.8	0.000000	0.000000	6.867084	-0.064130	NaN	0.000000	0.001590	0.001632	28.0788	0.084053	0.001936	43.4254	108.668	-163.831	0.018732	0.865566	-0.194939	-0.196223	-0.064130	43.4254	-0.193831	-104.188	0.000616	NaN
592	1.000000	0.874843	7.37084e+06	-47489.1	1005.82	-29765.8	0.000000	0.000000	6.875081	0.022668	NaN	0.000000	0.001574	0.001611	28.0788	0.041053	0.001974	20.8019	-54.3488	-164.078	0.054917	0.873537	-0.186946	-0.188251	0.022668	20.8019	-0.187763	-82.5254	-0.000275	NaN
592	1.000000	0.882845	7.37084e+06	-47489.1	1005.82	-29765.8	0.000000	0.000000	6.883083	0.035991	NaN	0.000000	0.001549	0.001657	28.0793	0.112738	0.001943	58.0226	132.334	-163.301	0.077792	0.881561	-0.178944	-0.180228	0.035991	58.0226	-0.179409	-59.6227	-0.000604	NaN
592	1.000000	0.890853	7.37084e+06	-47489.1	1005.82	-29765.8	0.000000	0.000000	6.891091	0.031234	NaN	0.000000	0.001536	0.001630	28.0788	0.035485	0.002083	17.0319	-49.9446	-163.753	0.049078	0.889514	-0.170935	-0.172275	0.031234	17.0319	-0.172311	-45.0445	-0.000693	NaN
592	1.000000	0.898873	7.37084e+06	-47489.1	1005.82	-29765.8	0.000000	0.000000	6.899110	0.019965	NaN	0.000000	0.001567	0.001628	28.079	0.085133	0.002037	41.785	-92.1811	-169.743	4.033393E-8	0.897554	-0.162916	-0.164235	0.019965	41.785	-0.163275	-31.329	-0.000637	NaN
592	1.000000	0.906863	7.37084e+06	-47489.1	1005.82	-29765.8	0.000000	0.000000	6.907102	0.057142	NaN	0.000000	0.001577	0.001609	28.0788	0.033048	0.001985	16.6481	-67.4367	-166.161	0.070391	0.905541	-0.154926	-0.156248	0.057142	16.6481	-0.157501	-24.7419	-0.002310	NaN
592	1.000000	0.914855	7.37084e+06	-47489.1	1005.82	-29765.8	0.000000	0.000000	6.915091	-0.022305	NaN	0.000000	0.001568	0.001587	28.0789	0.111413	0.001942	57.3764	-117.669	-167.736	-0.050212	0.913562	-0.146934	-0.148227	-0.022305	57.3764	-0.146642	-15.7208	0.001419	NaN
592	1.000000	0.922885	7.37084e+06	-47489.1	1005.82	-29765.8	0.000000	0.000000	6.923123	0.029012	NaN	0.000000	0.001588	0.001633	28.079	0.056322	0.002113	26.6598	128.827	-165.834	-0.008396	0.921583	-0.138904	-0.140206	0.029012	26.6598	-0.139720	-11.6871	-0.002482	NaN
592	1.000000	0.930881	7.37084e+06	-47489.1	1005.82	-29765.8	0.000000	0.000000	6.931116	-0.022038	NaN	0.000000	0.001580	0.001646	28.0789	0.039303	0.002055	19.1233	-15.1856	-164.954	0.060790	0.929532	-0.130908	-0.132257	-0.022038	19.1233	-0.130044	-7.635953	0.002886	NaN
592	1.000000	0.938853	7.37084e+06	-47489.1	1005.82	-29765.8	0.000000	0.000000	6.939090	-0.011365	NaN	0.000000	0.001553	0.001640	28.0794	0.076237	0.002038	37.4033	-86.9071	-165.267	-0.022228	0.937572	-0.122935	-0.124217	-0.011365	37.4033	-0.122708	-5.475588	0.002076	NaN
592	1.000000	0.946880	7.37084e+06	-47489.1	1005.82	-29765.8	0.000000	0.000000	6.947120	0.067775	NaN	0.000000	0.001580	0.001617	28.0792	0.020717	0.002150	9.635457	89.6377	-164.633	0.136330	0.945574	-0.114909	-0.116215	0.067775	9.635457	-0.120184	-4.873010	-0.013908	NaN
592	1.000000	0.954868	7.37084e+06	-47489.1	1005.82	-29765.8	0.000000	0.000000	6.955105	-0.003951	NaN	0.000000	0.001584	0.001641	28.0791	0.126054	0.002100	60.0354	89.1364	-165.956	-0.012240	0.953591	-0.106921	-0.108198	-0.003951	60.0354	-0.106871	-2.578741	0.001532	NaN
592	1.000000	0.962888	7.37084e+06	-47489.1	1005.82	-29765.8	0.000000	0.000000	6.963126	0.019879	NaN	0.000000	0.001572	0.001629	28.0791	0.034217	0.001927	17.7596	-38.7284	-167.58	0.054478	0.961612	-0.098900	-0.100177	0.019879	17.7596	-0.099740	-1.803037	-0.011025	NaN
592	1.000000	0.970892	7.37084e+06	-47489.1	1005.82	-29765.8	0.000000	0.000000	6.971131	0.057723	NaN	0.000000	0.001554	0.001630	28.0792	0.100516	0.001955	51.4066	161.333	-165.088	0.071847	0.969574	-0.090897	-0.092215	0.057723	51.4066	-0.091739	-1.186893	-0.048634	NaN
592	1.000000	0.978910	7.37084e+06	-47489.1	1005.82	-29765.8	0.000000	0.000000	6.979145	-0.041998	NaN	0.000000	0.001553	0.001617	28.0794	0.057565	0.001937	29.7166	51.3965	-168.647	-0.076606	0.977563	-0.082879	-0.084225	-0.041998	29.7166	-0.081819	-0.686914	0.061141	NaN
592	1.000000	0.986905	7.37084e+06	-47489.1	1005.82	-29765.8	0.000000	0.000000	6.987143	0.028927	NaN	0.000000	0.001567	0.001651	28.0792	0.026817	0.002201	12.183	-13.4983	-164.222	0.054238	0.985549	-0.074883	-0.076240	0.028927	12.183	-0.076664	-0.509714	-0.056752	NaN
592	1.000000	0.994909	7.37084e+06	-47489.1	1005.82	-29765.8	0.000000	0.000000	6.995146	0.004229	NaN	0.000000	0.001585	0.001625	28.0792	0.035285	0.002097	16.8301	-14.0038	-166.861	0.073915	0.993611	-0.066880	-0.068178	0.004229	16.8301	-0.067068	-0.284144	-0.014883	NaN
592	1.000000	1.002901	7.37084e+06	-47489.1	1005.82	-29765.8	0.000000	0.000000	7.003136	-0.023081	NaN	0.000000	0.001562	0.001703	28.0803	0.081883	0.002084	39.2823	151.897	-167.192	-0.062491	1.001597	-0.058888	-0.060192	-0.023081	39.2823	-0.058448	-0.162459	0.142073	NaN
592	1.000000	1.010901	7.37084e+06	-47489.1	1005.82	-29765.8	0.000000	0.000000	7.011139	0.039569	NaN	0.000000	0.001593	0.001665	28.0803	0.075106	0.002021	37.1608	-166.754	-167.224	-0.021880	1.009593	-0.050888	-0.052196	0.039569	37.1608	-0.051687	-0.102584	-0.385726	NaN
592	1.000000	1.018892	7.37084e+06	-47489.1	1005.82	-29765.8	0.000000	0.000000	7.019130	0.032503	NaN	0.000000	0.001591	0.001665	28.0804	0.148886	0.001933	77.0319	28.6154	-167.278	-0.064795	1.017588	-0.042897	-0.044200	0.032503	77.0319	-0.043213	-0.056670	-0.573549	NaN
592	1.000000	1.026909	7.37084e+06	-47489.1	1005.82	-29765.8	0.000000	0.000000	7.027186	0.981487	NaN	0.000000	0.001580	0.001661	28.0802	0.939353	0.001891	496.694	10.6951	-168.105	0.561507	1.025627	-0.034880	-0.036162	0.981487	496.694	-0.036362	-0.035142	-27.9295	NaN
592	1.000000	1.034902	7.37084e+06	-47489.1	1005.82	-29765.8	0.000000	0.000000	7.035270	3.206729	NaN	0.000000	0.001526	0.001645	28.0803	1.429999	0.001875	762.701	15.6321	-171.987	2.917799	1.033651	-0.026887	-0.028138	3.206729	762.701	-0.030040	-0.023073	-138.984	NaN
592	1.000000	1.042932	7.37084e+06	-47489.1	1005.82	-29765.8	0.000000	0.000000	7.043316	3.573040	NaN	0.000000	0.001523	0.001671	28.0802	1.805175	0.002001	902.049	17.242	-166.76	3.679008	1.041637	-0.018857	-0.020152	3.573040	902.049	-0.021828	-0.013979	-255.601	NaN
592	1.000000	1.050927	7.37084e+06	-47489.1	1005.82	-29765.8	0.000000	0.000000	7.051311	3.586239	NaN	0.000000	0.001553	0.001687	28.0803	1.954931	0.002089	935.678	16.3698	-165.566	3.476936	1.049584	-0.010862	-0.012205	3.586239	935.678	-0.013737	-0.008529	-420.455	NaN
592	1.000000	1.058914	7.37084e+06	-47489.1	1005.82	-29765.8	0.000000	0.000000	7.059339	4.587959	NaN	0.000000	0.001542	0.001657	28.0801	2.842205	0.001991	1427.72	20.1669	-170.052	4.229974	1.057563	-0.002875	-0.004226	4.587959	1427.72	-0.005285	-0.003595	-1276.18	NaN
592	2.000000	1.065408	7.37084e+06	-47489.1	1005.82	-29765.8	0.000000	0.000000	7.066054	9.953512	NaN	0.000000	0.001532	0.001639	28.08	8.197888	0.001840	4454.81	10.4772	-170.642	9.925089	1.065016	0.003619	0.003227	9.953512	4454.81	0.001944	0.001509	6594.73	104764
592	2.000000	1.067382	7.37084e+06	-47489.1	1005.82	-29765.8	0.000000	0.000000	7.068151	12.9543	NaN	0.000000	0.001525	0.001643	28.0806	10.7034	0.001654	6469.42	10.7658	-176.721	12.6928	1.067094	0.005593	0.005306	12.9543	6469.42	0.004091	0.003319	3903.21	102599
592	2.000000	1.069370	7.37084e+06	-47489.1	1005.82	-29765.8	0.000000	0.000000	7.070377	18.7378	NaN	0.000000	0.001557	0.001638	28.0803	13.2241	0.001665	7943.52	4.307730	-171.634	17.9652	1.069049	0.007582	0.007260	18.7378	7943.52	0.005812	0.004887	3834.14	103815
592	2.000000	1.071394	7.37084e+06	-47489.1	1005.82	-29765.8	0.000000	0.000000	7.072546	22.2717	NaN	0.000000	0.001539	0.001630	28.0805	14.5714	0.001700	8570.49	7.776309	-175.199	21.7705	1.071095	0.009605	0.009306	22.2717	8570.49	0.007656	0.006691	3328.8	95729.4
592	2.000000	1.073334	7.37084e+06	-47489.1	1005.82	-29765.8	0.000000	0.000000	7.074775	29.3014	NaN	0.000000	0.001518	0.001621	28.0803	17.3777	0.001685	10312.2	5.407406	-176.359	27.9578	1.073015	0.011545	0.011226	29.3014	10312.2	0.009414	0.008537	3432.13	101968
592	2.000000	1.075379	7.37084e+06	-47489.1	1005.82	-29765.8	0.000000	0.000000	7.077012	33.9871	NaN	0.000000	0.001554	0.001660	28.0802	19.5488	0.001896	10310.3	5.952954	-175.194	32.9852	1.075055	0.013590	0.013266	33.9871	10310.3	0.011117	0.010450	3252.37	92148.6
592	2.000000	1.077367	7.37084e+06	-47489.1	1005.82	-29765.8	0.000000	0.000000	7.079301	41.2909	NaN	0.000000	0.001587	0.001623	28.081	21.4917	0.001786	12032	10.4471	-179.959	42.0208	1.076980	0.015578	0.015191	41.2909	12032	0.013005	0.012716	3247.24	97485.6
592	2.000000	1.079291	7.37084e+06	-47489.1	1005.82	-29765.8	0.000000	0.000000	7.081431	46.2817	NaN	0.000000	0.001560	0.001625	28.0803	24.0099	0.001871	12834.1	8.882538	178.667	44.4781	1.079034	0.017503	0.017245	46.2817	12834.1	0.014798	0.015017	3081.96	95686.2
592	2.000000	1.081255	7.37084e+06	-47489.1	1005.82	-29765.8	0.000000	0.000000	7.083717	54.1356	NaN	0.000000	0.001550	0.001652	28.0804	24.564	0.001746	14065.5	2.768890	-176.585	50.8077	1.080958	0.019466	0.019170	54.1356	14065.5	0.016579	0.017449	3102.42	97283.3
592	2.000000	1.083334	7.37084e+06	-47489.1	1005.82	-29765.8	0.000000	0.000000	7.086106	61.6646	NaN	0.000000	0.001558	0.001648	28.0789	27.2073	0.001819	14955	6.429308	179.911	62.6859	1.083088	0.021546	0.021299	61.6646	14955	0.018453	0.020169	3057.33	96208.2
592	2.000000	1.085343	7.37084e+06	-47489.1	1005.82	-29765.8	0.000000	0.000000	7.088495	70.913	NaN	0.000000	0.001595	0.001671	28.079	28.7472	0.001654	17375.3	4.660787	179.938	69.4539	1.084926	0.023554	0.023137	70.913	17375.3	0.020493	0.023323	3040.48	103948
592	2.000000	1.087298	7.37084e+06	-47489.1	1005.82	-29765.8	0.000000	0.000000	7.090751	78.2259	NaN	0.000000	0.001568	0.001678	28.0806	30.8652	0.001780	17343.3	6.243983	178.141	76.5498	1.086927	0.025509	0.025138	78.2259	17343.3	0.022126	0.025994	3009.35	98280
592	2.000000	1.089258	7.37084e+06	-47489.1	1005.82	-29765.8	0.000000	0.000000	7.093022	85.7857	NaN	0.000000	0.001556	0.001656	28.0788	32.5303	0.001873	17365.7	4.875120	179.907	83.2294	1.089016	0.027470	0.027227	85.7857	17365.7	0.023765	0.028806	2978	93480.5
592	2.000000	1.091235	7.37084e+06	-47489.1	1005.82	-29765.8	0.000000	0.000000	7.095450	96.7715	NaN	0.000000	0.001590	0.001693	28.0793	33.3513	0.001778	18762.8	5.952261	178.19	93.4238	1.090959	0.029446	0.029170	96.7715	18762.8	0.025578	0.032075	3017.05	95716.7
592	2.000000	1.093375	7.37084e+06	-47489.1	1005.82	-29765.8	0.000000	0.000000	7.097781	101.42	NaN	0.000000	0.001608	0.001711	28.0791	35.9413	0.001847	19458.1	8.078086	175.136	102.718	1.093031	0.031586	0.031242	101.42	19458.1	0.027677	0.036066	2812.08	93610.9
592	2.000000	1.095379	7.37084e+06	-47489.1	1005.82	-29765.8	0.000000	0.000000	7.100127	109.744	NaN	0.000000	0.001636	0.001728	28.0791	36.9552	0.001812	20397.4	3.080080	179.665	109.58	1.095080	0.033590	0.033291	109.744	20397.4	0.029554	0.039825	2755.64	93382.9
592	2.000000	1.097309	7.37084e+06	-47489.1	1005.82	-29765.8	0.000000	0.000000	7.102630	123.657	NaN	0.000000	0.001620	0.001714	28.0796	38.3979	0.001938	19817.3	6.273047	177.266	123.276	1.096935	0.035520	0.035147	123.657	19817.3	0.030840	0.042503	2909.33	87822.4
592	2.000000	1.099314	7.37084e+06	-47489.1	1005.82	-29765.8	0.000000	0.000000	7.105041	133.538	NaN	0.000000	0.001590	0.001725	28.0791	39.9663	0.001823	21918.6	6.895692	177.144	134.199	1.098940	0.037525	0.037151	133.538	21918.6	0.032956	0.047093	2835.61	92279.8
592	2.000000	1.101323	7.37084e+06	-47489.1	1005.82	-29765.8	0.000000	0.000000	7.107172	136.501	NaN	0.000000	0.001599	0.001679	28.0791	40.3701	0.001785	22619.2	4.610146	178.305	138.796	1.101066	0.039534	0.039277	136.501	22619.2	0.035008	0.051765	2636.92	90830.3
592	2.000000	1.103303	7.37084e+06	-47489.1	1005.82	-29765.8	0.000000	0.000000	7.109226	138.31	NaN	0.000000	0.001614	0.001693	28.0792	43.5039	0.001873	23221.9	5.963596	175.608	137.613	1.103099	0.041514	0.041311	138.31	23221.9	0.037047	0.056620	2442.79	89163.6
592	2.000000	1.105338	7.37084e+06	-47489.1	1005.82	-29765.8	0.000000	0.000000	7.111817	151.835	NaN	0.000000	0.001637	0.001685	28.0793	43.8833	0.001666	26348.1	5.463060	176.09	152.434	1.104922	0.043550	0.043133	151.835	26348.1	0.039228	0.062047	2447.08	96640.8
592	2.000000	1.107226	7.37084e+06	-47489.1	1005.82	-29765.8	0.000000	0.000000	7.114028	159.692	NaN	0.000000	0.001619	0.001724	28.0795	45.8926	0.001819	25231.2	1.982908	179.764	157.249	1.106949	0.045437	0.045160	159.692	25231.2	0.040690	0.065824	2426.02	89850.1
592	2.000000	1.109304	7.37084e+06	-47489.1	1005.82	-29765.8	0.000000	0.000000	7.116431	167.591	NaN	0.000000	0.001607	0.001702	28.0793	48.0603	0.001804	26642.4	5.098882	176.714	167.933	1.108971	0.047515	0.047182	167.591	26642.4	0.042798	0.071458	2345.31	91058.7
592	2.000000	1.111224	7.37084e+06	-47489.1	1005.82	-29765.8	0.000000	0.000000	7.118918	181.384	NaN	0.000000	0.001605	0.001734	28.0791	49.026	0.001768	27722.8	6.778090	173.677	179.234	1.110914	0.049436	0.049125	181.384	27722.8	0.044528	0.076254	2378.68	91723
592	2.000000	1.113220	7.37084e+06	-47489.1	1005.82	-29765.8	0.000000	0.000000	7.121231	189.101	NaN	0.000000	0.001581	0.001715	28.0791	51.2996	0.001770	28979.6	3.867157	176.458	186.463	1.112960	0.051432	0.051171	189.101	28979.6	0.046538	0.082012	2305.76	92454
592	2.000000	1.115254	7.37084e+06	-47489.1	1005.82	-29765.8	0.000000	0.000000	7.123872	203.858	NaN	0.000000	0.001596	0.001677	28.079	53.3046	0.001760	30294.8	5.942901	174.397	200.517	1.114843	0.053465	0.053054	203.858	30294.8	0.048418	0.087587	2327.49	93523.9
592	2.000000	1.117261	7.37084e+06	-47489.1	1005.82	-29765.8	0.000000	0.000000	7.126212	211.968	NaN	0.000000	0.001553	0.001668	28.0804	54.7667	0.001715	31934.1	7.570913	171.29	211.867	1.116951	0.055472	0.055162	211.968	31934.1	0.050494	0.093946	2256.27	95189.3
592	2.000000	1.119315	7.37084e+06	-47489.1	1005.82	-29765.8	0.000000	0.000000	7.128607	220.248	NaN	0.000000	0.001553	0.001700	28.0805	57.2512	0.001780	32171.6	3.170734	176.072	220.431	1.118935	0.057526	0.057146	220.248	32171.6	0.052392	0.099950	2203.59	92972.8
592	2.000000	1.121329	7.37084e+06	-47489.1	1005.82	-29765.8	0.000000	0.000000	7.131105	232.02	NaN	0.000000	0.001556	0.001674	28.0804	58.3795	0.001924	30349.9	3.467382	177.177	236.804	1.120994	0.059540	0.059205	232.02	30349.9	0.053807	0.104542	2219.39	85760
592	2.000000	1.123221	7.37084e+06	-47489.1	1005.82	-29765.8	0.000000	0.000000	7.133624	247.28	NaN	0.000000	0.001564	0.001680	28.0804	61.1842	0.001927	31745.8	6.544806	173.282	244.411	1.122901	0.061432	0.061112	247.28	31745.8	0.055590	0.110473	2238.38	87263.3
592	2.000000	1.125159	7.37084e+06	-47489.1	1005.82	-29765.8	0.000000	0.000000	7.136194	262.657	NaN	0.000000	0.001562	0.001690	28.0804	61.3892	0.001858	33031.9	2.642111	176.941	257.285	1.124856	0.063370	0.063067	262.657	33031.9	0.057407	0.116673	2251.22	88353
592	2.000000	1.127237	7.37084e+06	-47489.1	1005.82	-29765.8	0.000000	0.000000	7.138491	267.98	NaN	0.000000	0.001544	0.001672	28.0803	62.1447	0.001797	34578.5	2.246315	176.234	265.98	1.126973	0.065448	0.065184	267.98	34578.5	0.059636	0.124506	2152.34	89533.2
592	2.000000	1.129216	7.37084e+06	-47489.1	1005.82	-29765.8	0.000000	0.000000	7.140970	280.13	NaN	0.000000	0.001631	0.001694	28.0805	64.9568	0.001792	36246.6	3.707877	174.916	278.791	1.129018	0.067427	0.067229	280.13	36246.6	0.061631	0.131721	2126.69	91245.8
592	2.000000	1.131195	7.37084e+06	-47489.1	1005.82	-29765.8	0.000000	0.000000	7.143555	294.893	NaN	0.000000	0.001629	0.001693	28.0806	66.2095	0.001832	36147.5	8.165435	170.426	291.65	1.130797	0.069406	0.069008	294.893	36147.5	0.063288	0.137861	2139.07	88947.2
592	2.000000	1.133229	7.37084e+06	-47489.1	1005.82	-29765.8	0.000000	0.000000	7.146082	306.875	NaN	0.000000	0.001700	0.001675	28.0803	67.6788	0.001809	37408.6	4.324554	174.428	303.902	1.132851	0.071441	0.071062	306.875	37408.6	0.065288	0.145450	2109.82	89616.3
592	2.000000	1.135146	7.37084e+06	-47489.1	1005.82	-29765.8	0.000000	0.000000	7.148426	317.259	NaN	0.000000	0.001589	0.001696	28.0802	69.4532	0.001824	38071.5	5.252722	172.69	310.463	1.134878	0.073357	0.073089	317.259	38071.5	0.067107	0.152521	2080.1	89065.4
592	2.000000	1.137261	7.37084e+06	-47489.1	1005.82	-29765.8	0.000000	0.000000	7.150555	317.582	NaN	0.000000	0.001591	0.001689	28.0803	71.0137	0.001777	39956.5	5.658611	171.389	316.834	1.136989	0.075473	0.075201	317.582	39956.5	0.069511	0.162106	1959.1	90669.5
592	2.000000	1.139252	7.37084e+06	-47489.1	1005.82	-29765.8	0.000000	0.000000	7.153277	335.366	NaN	0.000000	0.001582	0.001650	28.0805	71.877	0.001908	37666.5	4.080759	174.06	334.924	1.138950	0.077464	0.077161	335.366	37666.5	0.070786	0.167300	2004.58	84135.8
592	2.000000	1.141360	7.37084e+06	-47489.1	1005.82	-29765.8	0.000000	0.000000	7.155797	345.382	NaN	0.000000	0.001592	0.001693	28.0805	72.9777	0.001804	40458	7.380969	170.021	351.862	1.140902	0.079572	0.079113	345.382	40458	0.073169	0.177217	1948.92	87806
592	2.000000	1.143190	7.37084e+06	-47489.1	1005.82	-29765.8	0.000000	0.000000	7.158355	363.108	NaN	0.000000	0.001634	0.001737	28.0805	74.3759	0.001852	40170.2	4.655458	172.695	358.275	1.142938	0.081401	0.081149	363.108	40170.2	0.074622	0.183395	1979.92	85700.6
592	2.000000	1.145310	7.37084e+06	-47489.1	1005.82	-29765.8	0.000000	0.000000	7.160956	374.816	NaN	0.000000	0.001578	0.001669	28.0802	76.2901	0.001830	41679.2	5.998105	172.42	376.334	1.144890	0.083521	0.083101	374.816	41679.2	0.076776	0.192739	1944.68	86737.6
592	2.000000	1.147250	7.37084e+06	-47489.1	1005.82	-29765.8	0.000000	0.000000	7.163280	384.166	NaN	0.000000	0.001663	0.001655	28.0803	77.3646	0.001897	40787.2	4.948168	173.051	383.141	1.146907	0.085461	0.085118	384.166	40787.2	0.078397	0.199911	1921.68	83344.9
592	2.000000	1.149295	7.37084e+06	-47489.1	1005.82	-29765.8	0.000000	0.000000	7.165956	399.497	NaN	0.000000	0.001629	0.001651	28.0804	80.2533	0.001814	44234.4	6.531694	171.343	399.937	1.148951	0.087506	0.087163	399.497	44234.4	0.080732	0.210464	1898.17	88093.7
592	2.000000	1.151103	7.37084e+06	-47489.1	1005.82	-29765.8	0.000000	0.000000	7.167835	401.224	NaN	0.000000	0.001681	0.001668	28.0791	79.8667	0.001825	43774.1	2.594362	174.642	395.577	1.150819	0.089314	0.089030	401.224	43774.1	0.082440	0.218341	1837.6	85589.9
592	2.000000	1.153216	7.37084e+06	-47489.1	1005.82	-29765.8	0.000000	0.000000	7.170476	414.052	NaN	0.000000	0.001651	0.001684	28.0794	82.3135	0.001790	45987.7	2.199383	174.729	411.283	1.152888	0.091427	0.091099	414.052	45987.7	0.084675	0.228853	1809.25	87828.8
592	2.000000	1.155246	7.37084e+06	-47489.1	1005.82	-29765.8	0.000000	0.000000	7.173195	430.808	NaN	0.000000	0.001639	0.001681	28.0792	85.2133	0.001892	45031.2	4.395363	172.858	431.59	1.154995	0.093458	0.093206	430.808	45031.2	0.086282	0.236557	1821.16	84589.9
592	2.000000	1.157366	7.37084e+06	-47489.1	1005.82	-29765.8	0.000000	0.000000	7.175521	435.833	NaN	0.000000	0.001634	0.001672	28.0799	87.2903	0.001828	47747.4	8.697792	168.051	443	1.156936	0.095577	0.095147	435.833	47747.4	0.088731	0.248521	1753.71	87506.6
592	2.000000	1.159228	7.37085e+06	-47489.1	1005.82	-29765.8	0.000000	0.000000	7.178233	456.505	NaN	0.000000	0.001631	0.001672	28.079	89.0223	0.001827	48720.6	5.479568	170.464	455.559	1.158906	0.097439	0.097118	456.505	48720.6	0.090412	0.256893	1777.02	87823.3
592	2.000000	1.161107	7.37085e+06	-47489.1	1005.82	-29765.8	0.000000	0.000000	7.180925	476.275	NaN	0.000000	0.001623	0.001700	28.079	89.2905	0.001842	48478.4	4.593737	172.174	469.777	1.160768	0.099318	0.098980	476.275	48478.4	0.091950	0.264666	1799.53	86093.9
592	2.000000	1.163112	7.37085e+06	-47489.1	1005.82	-29765.8	0.000000	0.000000	7.183199	482.831	NaN	0.000000	0.001629	0.001684	28.0793	91.6802	0.001867	49110.2	6.505034	169.715	476.842	1.162768	0.101323	0.100979	482.831	49110.2	0.093950	0.274937	1756.15	85571.3