File: remote_trans/data/nanoindenter/0828-1/data/Data_2025-08-06,11h17m57s/2025-07-22_16-23-58_1_44.txt
2025-07-22, 16:23:58, 1
Index	Phase	Displacement	Time	Pos X	Pos Y	Pos Z	Rot A	Rot B	Piezo Z	Force A	Force B	Gripper	Voltage A	Voltage B	Temperature	Amplitude force	Amplitude pos	Stiffness	Phase shift	Phase excitation	Force A raw	Displacement raw	HMax	HMax raw	Real Force	Real Stiffness	Contact Depth	Area	Hardness	Reduced Mod.
[#]	[#]	[um]	[s]	[um]	[um]	[um]	[m°]	[m°]	[um]	[uN]	[uN]	[V]	[V]	[V]	[°C]	[uN]	[um]	[N/m]	[°]	[°]	[uN]	[um]	[um]	[um]	[uN]	[N/m]	[um]	[um^2]	[MPa]	[MPa]
44	1.000000	0.002324	7.36547e+06	-40839.1	955.818	-29789.1	0.000000	0.000000	6.002817	-0.017280	NaN	0.000000	0.001592	0.001671	28.079	0.098929	0.000925	106.984	26.7951	-175.649	-0.069534	0.001085	-1.097381	-1.098621	-0.017280	106.984	-1.097260	-4.605632E+14	3.751834E-17	NaN
44	1.000000	0.012396	7.36547e+06	-40839.1	955.818	-29789.1	0.000000	0.000000	6.012887	-0.039020	NaN	0.000000	0.001590	0.001712	28.0943	0.043805	0.001180	37.1191	-91.868	17.9753	0.033145	0.010976	-1.087310	-1.088729	-0.039020	37.1191	-1.086522	-3.304488E+14	1.180827E-16	NaN
44	1.000000	0.022253	7.36547e+06	-40839.1	955.819	-29789.1	0.000000	0.000000	6.022743	-0.074545	NaN	0.000000	0.001605	0.001688	28.1318	0.098592	0.001819	54.2107	150.262	-167.318	-0.093328	0.020929	-1.077453	-1.078777	-0.074545	54.2107	-1.076422	-2.418002E+14	3.082924E-16	NaN
44	1.000000	0.032297	7.36547e+06	-40839.1	955.818	-29789.1	0.000000	0.000000	6.032791	0.015774	NaN	0.000000	0.001640	0.001650	28.1037	0.044314	0.001912	23.1774	131.247	15.3647	0.007551	0.030856	-1.067409	-1.068850	0.015774	23.1774	-1.067919	-1.858804E+14	-8.485944E-17	NaN
44	1.000000	0.042291	7.36547e+06	-40839.1	955.818	-29789.1	0.000000	0.000000	6.042785	0.032307	NaN	0.000000	0.001636	0.001714	28.0815	0.034094	0.001972	17.2881	50.3998	-167.562	0.008666	0.040971	-1.057415	-1.058735	0.032307	17.2881	-1.058816	-1.402538E+14	-2.303464E-16	NaN
44	1.000000	0.052300	7.36547e+06	-40839.1	955.819	-29789.1	0.000000	0.000000	6.052793	-0.026730	NaN	0.000000	0.001597	0.001716	28.0952	0.067520	0.002009	33.6107	140.988	15.0766	-0.043166	0.050914	-1.047405	-1.048792	-0.026730	33.6107	-1.046809	-9.671922E+13	2.763631E-16	NaN
44	1.000000	0.062237	7.36547e+06	-40839.1	955.818	-29789.1	0.000000	0.000000	6.062730	-0.008702	NaN	0.000000	0.001601	0.001690	28.1322	0.038109	0.002113	18.0384	49.5247	-166.147	0.017475	0.061014	-1.037468	-1.038692	-0.008702	18.0384	-1.037106	-7.162369E+13	1.214993E-16	NaN
44	1.000000	0.072257	7.36547e+06	-40839.1	955.818	-29789.1	0.000000	0.000000	6.072750	-0.013185	NaN	0.000000	0.001594	0.001701	28.1033	0.086921	0.001997	43.5154	-151.975	13.9375	-0.044523	0.070895	-1.027449	-1.028811	-0.013185	43.5154	-1.027221	-5.273565E+13	2.500209E-16	NaN
44	1.000000	0.082272	7.36547e+06	-40839.1	955.818	-29789.1	0.000000	0.000000	6.082765	-0.004450	NaN	0.000000	0.001577	0.001700	28.0824	0.035424	0.002046	17.316	-128.037	-165.519	0.034897	0.080928	-1.017434	-1.018777	-0.004450	17.316	-1.017241	-3.871042E+13	1.149477E-16	NaN
44	1.000000	0.092301	7.36547e+06	-40839.1	955.818	-29789.1	0.000000	0.000000	6.092792	-0.058289	NaN	0.000000	0.001578	0.001706	28.0955	0.138205	0.002028	68.1483	22.7428	12.9627	-0.103157	0.090900	-1.007404	-1.008806	-0.058289	68.1483	-1.006763	-2.797747E+13	2.083413E-15	NaN
44	1.000000	0.102288	7.36547e+06	-40839.1	955.818	-29789.1	0.000000	0.000000	6.102781	-0.011668	NaN	0.000000	0.001573	0.001704	28.1321	0.165368	0.001931	85.6363	-47.0448	-162.547	-0.057581	0.101008	-0.997417	-0.998698	-0.011668	85.6363	-0.997315	-2.087468E+13	5.589419E-16	NaN
44	1.000000	0.112307	7.36547e+06	-40839.1	955.818	-29789.1	0.000000	0.000000	6.112800	0.007190	NaN	0.000000	0.001615	0.001700	28.1037	0.104648	0.001907	54.8797	67.9108	13.9451	-0.004552	0.110953	-0.987399	-0.988753	0.007190	54.8797	-0.987497	-1.539590E+13	-4.670336E-16	NaN
44	1.000000	0.122307	7.36547e+06	-40839.1	955.819	-29789.1	0.000000	0.000000	6.122802	0.044604	NaN	0.000000	0.001597	0.001708	28.0812	0.156869	0.002038	76.9579	137.022	-165.819	0.085589	0.121009	-0.977398	-0.978697	0.044604	76.9579	-0.977833	-1.140814E+13	-3.909834E-15	NaN
44	1.000000	0.132290	7.36547e+06	-40839.1	955.818	-29789.1	0.000000	0.000000	6.132785	0.043136	NaN	0.000000	0.001558	0.001736	28.0936	0.094663	0.001915	49.4308	103.802	12.9561	0.011159	0.130918	-0.967416	-0.968787	0.043136	49.4308	-0.968070	-8.426681E+12	-5.118999E-15	NaN
44	1.000000	0.142297	7.36547e+06	-40839.1	955.819	-29789.1	0.000000	0.000000	6.142788	-0.050475	NaN	0.000000	0.001617	0.001706	28.1305	0.088600	0.001937	45.742	44.8973	-169.777	-0.050523	0.140966	-0.957409	-0.958740	-0.050475	45.742	-0.956581	-5.898988E+12	8.556476E-15	NaN
44	1.000000	0.152288	7.36547e+06	-40839.1	955.818	-29789.1	0.000000	0.000000	6.152783	0.026674	NaN	0.000000	0.001594	0.001741	28.1016	0.036980	0.001929	19.1674	-13.5356	14.0067	0.043249	0.150978	-0.947417	-0.948728	0.026674	19.1674	-0.948461	-4.584285E+12	-5.818584E-15	NaN
44	1.000000	0.162293	7.36547e+06	-40839.1	955.818	-29789.1	0.000000	0.000000	6.162783	-0.088392	NaN	0.000000	0.001556	0.001739	28.0803	0.031850	0.001822	17.4823	-10.4264	-167.325	-0.039287	0.160987	-0.937412	-0.938719	-0.088392	17.4823	-0.933620	-2.891047E+12	3.057450E-14	NaN
44	1.000000	0.172324	7.36547e+06	-40839.1	955.818	-29789.1	0.000000	0.000000	6.172817	0.005277	NaN	0.000000	0.001548	0.001695	28.0933	0.015389	0.002204	6.980654	177.972	12.3841	0.013351	0.170938	-0.927382	-0.928768	0.005277	6.980654	-0.927949	-2.423891E+12	-2.177228E-15	NaN
44	1.000000	0.182335	7.36547e+06	-40839.1	955.818	-29789.1	0.000000	0.000000	6.182828	-0.004874	NaN	0.000000	0.001600	0.001719	28.1306	0.040098	0.002052	19.5407	146.268	-169.776	-0.085773	0.181005	-0.917371	-0.918701	-0.004874	19.5407	-0.917184	-1.734536E+12	2.809742E-15	NaN
44	1.000000	0.192343	7.36547e+06	-40839.1	955.818	-29789.1	0.000000	0.000000	6.192839	0.061229	NaN	0.000000	0.001592	0.001713	28.1036	0.039523	0.002033	19.44	110.531	11.7767	0.001727	0.190961	-0.907362	-0.908745	0.061229	19.44	-0.909724	-1.375435E+12	-4.451576E-14	NaN
44	1.000000	0.202323	7.36547e+06	-40839.1	955.818	-29789.1	0.000000	0.000000	6.202816	-0.003641	NaN	0.000000	0.001594	0.001646	28.0802	0.052098	0.002003	26.0114	162.529	-167.56	-0.026628	0.201023	-0.897383	-0.898683	-0.003641	26.0114	-0.897278	-9.338560E+11	3.899070E-15	NaN
44	1.000000	0.212335	7.36547e+06	-40839.1	955.818	-29789.1	0.000000	0.000000	6.212826	-0.053803	NaN	0.000000	0.001596	0.001696	28.094	0.064947	0.001944	33.4049	-126.126	17.7622	-0.088791	0.211043	-0.887371	-0.888662	-0.053803	33.4049	-0.886163	-6.607495E+11	8.142756E-14	NaN
44	1.000000	0.222350	7.36547e+06	-40839.1	955.818	-29789.1	0.000000	0.000000	6.222840	-0.083758	NaN	0.000000	0.001631	0.001694	28.1299	0.068835	0.002091	32.9192	135.689	-166.148	-0.051773	0.221038	-0.877356	-0.878668	-0.083758	32.9192	-0.875447	-4.732962E+11	1.769678E-13	NaN
44	1.000000	0.232343	7.36547e+06	-40839.1	955.817	-29789.1	0.000000	0.000000	6.232833	-0.075112	NaN	0.000000	0.001612	0.001725	28.1017	0.117549	0.001947	60.3634	164.918	15.6818	-0.074925	0.230949	-0.867363	-0.868757	-0.075112	60.3634	-0.866430	-3.573852E+11	2.101708E-13	NaN
44	1.000000	0.242345	7.36547e+06	-40839.1	955.819	-29789.1	0.000000	0.000000	6.242838	0.001963	NaN	0.000000	0.001605	0.001725	28.0803	0.061927	0.001929	32.1083	46.4361	-169.916	-0.063504	0.241052	-0.857360	-0.858653	0.001963	32.1083	-0.857406	-2.697820E+11	-7.276662E-15	NaN
44	1.000000	0.252322	7.36547e+06	-40839.1	955.819	-29789.1	0.000000	0.000000	6.252813	-0.059840	NaN	0.000000	0.001596	0.001724	28.0927	0.020384	0.002007	10.155	161.428	16.8596	-0.005636	0.251000	-0.847383	-0.848705	-0.059840	10.155	-0.842964	-1.719665E+11	3.479745E-13	NaN
44	1.000000	0.262338	7.36547e+06	-40839.1	955.818	-29789.1	0.000000	0.000000	6.262832	0.033647	NaN	0.000000	0.001592	0.001731	28.1316	0.092792	0.001984	46.7608	-9.814215	-164.691	0.003245	0.261029	-0.837368	-0.838677	0.033647	46.7608	-0.837908	-1.468747E+11	-2.290858E-13	NaN
44	1.000000	0.272377	7.36547e+06	-40839.1	955.818	-29789.1	0.000000	0.000000	6.272872	0.037714	NaN	0.000000	0.001586	0.001714	28.1043	0.081865	0.001989	41.1573	137.925	15.6938	0.058280	0.270992	-0.827328	-0.828714	0.037714	41.1573	-0.828016	-1.078669E+11	-3.496335E-13	NaN
44	1.000000	0.282363	7.36547e+06	-40839.1	955.819	-29789.1	0.000000	0.000000	6.282855	-0.025300	NaN	0.000000	0.001605	0.001725	28.0817	0.112033	0.002016	55.5741	-134.55	-162.842	0.089455	0.280982	-0.817343	-0.818724	-0.025300	55.5741	-0.817002	-7.648025E+10	3.308100E-13	NaN
44	1.000000	0.292373	7.36547e+06	-40839.1	955.819	-29789.1	0.000000	0.000000	6.292865	-0.040440	NaN	0.000000	0.001645	0.001735	28.0939	0.101262	0.001895	53.4272	162.69	15.581	-0.026190	0.291019	-0.807333	-0.808687	-0.040440	53.4272	-0.806765	-5.554883E+10	7.280143E-13	NaN
44	1.000000	0.302355	7.36547e+06	-40839.1	955.818	-29789.1	0.000000	0.000000	6.302849	0.012143	NaN	0.000000	0.001629	0.001736	28.1311	0.057313	0.002074	27.6321	-174.6	-164.889	0.036993	0.301062	-0.797351	-0.798644	0.012143	27.6321	-0.797680	-4.181870E+10	-2.903682E-13	NaN
44	1.000000	0.312379	7.36547e+06	-40839.1	955.818	-29789.1	0.000000	0.000000	6.312872	-0.017922	NaN	0.000000	0.001626	0.001724	28.1036	0.078674	0.001949	40.3631	-7.275828	11.7697	-0.033738	0.311010	-0.787326	-0.788695	-0.017922	40.3631	-0.786993	-2.993946E+10	5.986108E-13	NaN
44	1.000000	0.322390	7.36547e+06	-40839.1	955.817	-29789.1	0.000000	0.000000	6.322884	0.035003	NaN	0.000000	0.001602	0.001696	28.0802	0.077237	0.002031	38.0344	178.973	-165.234	-0.020503	0.321064	-0.777316	-0.778642	0.035003	38.0344	-0.778006	-2.260129E+10	-1.548709E-12	NaN
44	1.000000	0.332383	7.36547e+06	-40839.1	955.818	-29789.1	0.000000	0.000000	6.332875	-0.029605	NaN	0.000000	0.001608	0.001684	28.0928	0.071043	0.001923	36.9382	60.0777	13.784	-0.028369	0.330998	-0.767323	-0.768708	-0.029605	36.9382	-0.766721	-1.587542E+10	1.864857E-12	NaN
44	1.000000	0.342403	7.36547e+06	-40839.1	955.818	-29789.1	0.000000	0.000000	6.342892	-0.102741	NaN	0.000000	0.001605	0.001744	28.1315	0.071010	0.001897	37.4297	-11.4985	-164.994	-0.102298	0.341057	-0.757303	-0.758649	-0.102741	37.4297	-0.755244	-1.108142E+10	9.271508E-12	NaN
44	1.000000	0.352397	7.36547e+06	-40839.1	955.818	-29789.1	0.000000	0.000000	6.352888	-0.052915	NaN	0.000000	0.001579	0.001702	28.1041	0.029584	0.001927	15.3523	-171.884	13.7799	0.010327	0.351008	-0.747309	-0.748698	-0.052915	15.3523	-0.744724	-7.968656E+9	6.640368E-12	NaN
44	1.000000	0.362374	7.36547e+06	-40839.1	955.818	-29789.1	0.000000	0.000000	6.362867	0.008212	NaN	0.000000	0.001594	0.001723	28.082	0.096771	0.002030	47.6642	-82.6508	-167.47	-0.025179	0.361085	-0.737332	-0.738620	0.008212	47.6642	-0.737461	-6.345548E+9	-1.294143E-12	NaN
44	1.000000	0.372385	7.36547e+06	-40839.1	955.819	-29789.1	0.000000	0.000000	6.372880	0.067112	NaN	0.000000	0.001590	0.001737	28.0937	0.035717	0.001966	18.1661	-4.491569	13.2271	0.070828	0.371044	-0.727321	-0.728662	0.067112	18.1661	-0.730092	-5.035697E+9	-1.332735E-11	NaN
44	1.000000	0.382394	7.36547e+06	-40839.1	955.818	-29789.1	0.000000	0.000000	6.382886	-0.042523	NaN	0.000000	0.001581	0.001789	28.1309	0.041483	0.001985	20.894	-73.7567	-163.461	-0.053043	0.381080	-0.717311	-0.718626	-0.042523	20.894	-0.715785	-3.213518E+9	1.323257E-11	NaN
44	1.000000	0.392402	7.36547e+06	-40839.1	955.818	-29789.1	0.000000	0.000000	6.392893	-0.050538	NaN	0.000000	0.001582	0.001730	28.1021	0.036550	0.002134	17.1314	-53.5033	14.4575	-0.092188	0.391056	-0.707304	-0.708650	-0.050538	17.1314	-0.705091	-2.296405E+9	2.200726E-11	NaN
44	1.000000	0.402399	7.36548e+06	-40839.1	955.818	-29789.1	0.000000	0.000000	6.402889	-0.065291	NaN	0.000000	0.001584	0.001726	28.0791	0.039558	0.001928	20.5182	136.593	-167.072	-0.078737	0.401110	-0.697307	-0.698595	-0.065291	20.5182	-0.694920	-1.667824E+9	3.914767E-11	NaN
44	1.000000	0.412412	7.36548e+06	-40839.1	955.818	-29789.1	0.000000	0.000000	6.412902	-0.060600	NaN	0.000000	0.001562	0.001723	28.0904	0.023482	0.001955	12.0119	-28.9781	12.4709	-0.058912	0.411047	-0.687294	-0.688658	-0.060600	12.0119	-0.683510	-1.164686E+9	5.203121E-11	NaN
44	1.000000	0.422420	7.36548e+06	-40839.1	955.818	-29789.1	0.000000	0.000000	6.422913	0.004893	NaN	0.000000	0.001554	0.001715	28.1301	0.030250	0.002032	14.8884	159.531	-169.028	-0.001654	0.421127	-0.677286	-0.678578	0.004893	14.8884	-0.677533	-9.648431E+8	-5.071237E-12	NaN
44	1.000000	0.432433	7.36548e+06	-40839.1	955.819	-29789.1	0.000000	0.000000	6.432926	0.010163	NaN	0.000000	0.001575	0.001750	28.104	0.070458	0.001970	35.7657	-142.67	11.7751	0.075681	0.431096	-0.667273	-0.668610	0.010163	35.7657	-0.667486	-7.030432E+8	-1.445570E-11	NaN
44	1.000000	0.442467	7.36548e+06	-40839.1	955.819	-29789.1	0.000000	0.000000	6.442961	0.009977	NaN	0.000000	0.001593	0.001727	28.08	0.035364	0.002005	17.6377	171.867	-166.729	0.008851	0.441184	-0.657238	-0.658521	0.009977	17.6377	-0.657663	-5.157620E+8	-1.934401E-11	NaN
44	1.000000	0.452419	7.36548e+06	-40839.1	955.818	-29789.1	0.000000	0.000000	6.452911	-0.029568	NaN	0.000000	0.001616	0.001731	28.0928	0.061035	0.002060	29.6325	-118.514	16.0614	0.037664	0.451082	-0.647287	-0.648623	-0.029568	29.6325	-0.646539	-3.630596E+8	8.144105E-11	NaN
44	1.000000	0.462456	7.36548e+06	-40839.1	955.819	-29789.1	0.000000	0.000000	6.462949	0.002747	NaN	0.000000	0.001558	0.001716	28.1301	0.062372	0.001823	34.2135	-125.904	-165.32	0.103770	0.461106	-0.637250	-0.638600	0.002747	34.2135	-0.637310	-2.712567E+8	-1.012541E-11	NaN
44	1.000000	0.472451	7.36548e+06	-40839.1	955.818	-29789.1	0.000000	0.000000	6.472945	0.013289	NaN	0.000000	0.001611	0.001705	28.1031	0.022804	0.002181	10.4539	-21.0379	14.5024	0.064296	0.471110	-0.627254	-0.628596	0.013289	10.4539	-0.628208	-2.034268E+8	-6.532485E-11	NaN
44	1.000000	0.482456	7.36548e+06	-40839.1	955.819	-29789.1	0.000000	0.000000	6.482948	-0.033104	NaN	0.000000	0.001630	0.001725	28.0794	0.094524	0.001865	50.6734	145.586	-163.166	-0.062566	0.481157	-0.617250	-0.618549	-0.033104	50.6734	-0.616760	-1.416079E+8	2.337749E-10	NaN
44	1.000000	0.492445	7.36548e+06	-40839.1	955.818	-29789.1	0.000000	0.000000	6.492938	-0.010123	NaN	0.000000	0.001610	0.001712	28.0912	0.011648	0.001968	5.919417	-173.589	12.2778	0.071128	0.491130	-0.607260	-0.608575	-0.010123	5.919417	-0.605978	-1.006375E+8	1.005918E-10	NaN
44	1.000000	0.502434	7.36548e+06	-40839.1	955.818	-29789.1	0.000000	0.000000	6.502923	-0.085573	NaN	0.000000	0.001579	0.001732	28.1301	0.066300	0.001985	33.4065	-4.193445	-169.503	-0.084820	0.501144	-0.597272	-0.598562	-0.085573	33.4065	-0.595351	-7.184814E+7	1.191030E-9	NaN
44	1.000000	0.512458	7.36548e+06	-40839.1	955.819	-29789.1	0.000000	0.000000	6.512950	-0.034106	NaN	0.000000	0.001604	0.001707	28.105	0.078364	0.001908	41.0766	-172.037	13.6469	-0.085851	0.511109	-0.587247	-0.588596	-0.034106	41.0766	-0.586624	-5.446534E+7	6.262044E-10	NaN
44	1.000000	0.522427	7.36548e+06	-40839.1	955.818	-29789.1	0.000000	0.000000	6.522919	-0.030313	NaN	0.000000	0.001607	0.001705	28.0806	0.153802	0.002043	75.2969	-94.7686	-168.991	-0.010557	0.521166	-0.577279	-0.578540	-0.030313	75.2969	-0.576977	-4.008629E+7	7.561928E-10	NaN
44	1.000000	0.532464	7.36548e+06	-40839.1	955.818	-29789.1	0.000000	0.000000	6.532960	0.077124	NaN	0.000000	0.001598	0.001677	28.0933	0.040520	0.002122	19.0907	49.0444	13.871	0.049831	0.531078	-0.567242	-0.568628	0.077124	19.0907	-0.570272	-3.238851E+7	-2.381220E-9	NaN
44	1.000000	0.542471	7.36548e+06	-40839.1	955.818	-29789.1	0.000000	0.000000	6.542964	-0.003528	NaN	0.000000	0.001610	0.001655	28.1307	0.157639	0.002013	78.3063	-109.052	-165.649	0.006734	0.541149	-0.557235	-0.558557	-0.003528	78.3063	-0.557201	-2.136229E+7	1.651542E-10	NaN
44	1.000000	0.552480	7.36548e+06	-40839.1	955.818	-29789.1	0.000000	0.000000	6.552970	-0.077559	NaN	0.000000	0.001621	0.001684	28.105	0.112834	0.001977	57.0658	94.3912	12.6605	0.007097	0.551141	-0.547225	-0.548565	-0.077559	57.0658	-0.546206	-1.504505E+7	5.155103E-9	NaN
44	1.000000	0.562478	7.36548e+06	-40839.1	955.818	-29789.1	0.000000	0.000000	6.562972	0.025885	NaN	0.000000	0.001616	0.001654	28.0814	0.016862	0.002045	8.243883	-68.2406	-166.299	0.107100	0.561209	-0.537228	-0.538496	0.025885	8.243883	-0.539583	-1.217778E+7	-2.125585E-9	NaN
44	1.000000	0.572483	7.36548e+06	-40839.1	955.819	-29789.1	0.000000	0.000000	6.572978	0.041836	NaN	0.000000	0.001575	0.001711	28.0927	0.080873	0.002024	39.9495	-164.531	14.12	0.010801	0.571079	-0.527222	-0.528627	0.041836	39.9495	-0.528008	-8.41204e+06	-4.973301E-9	NaN
44	1.000000	0.582489	7.36548e+06	-40839.1	955.819	-29789.1	0.000000	0.000000	6.582986	0.086512	NaN	0.000000	0.001587	0.001702	28.1308	0.062031	0.001902	32.6094	-111.892	-164.515	0.055353	0.581202	-0.517216	-0.518504	0.086512	32.6094	-0.519206	-6.34678e+06	-1.363092E-8	NaN
44	1.000000	0.592473	7.36548e+06	-40839.1	955.818	-29789.1	0.000000	0.000000	6.592966	-0.003438	NaN	0.000000	0.001602	0.001717	28.1058	0.067219	0.001988	33.8108	-56.2395	12.0845	0.037336	0.591108	-0.507232	-0.508597	-0.003438	33.8108	-0.507156	-4.31316e+06	7.971045E-10	NaN
44	1.000000	0.602514	7.36548e+06	-40839.1	955.818	-29789.1	0.000000	0.000000	6.603005	-0.043999	NaN	0.000000	0.001594	0.001691	28.0821	0.049626	0.002017	24.5996	-10.9172	-165.698	0.023000	0.601169	-0.497192	-0.498537	-0.043999	24.5996	-0.495850	-2.9999e+06	1.466688E-8	NaN
44	1.000000	0.612516	7.36548e+06	-40839.1	955.819	-29789.1	0.000000	0.000000	6.613009	-0.025262	NaN	0.000000	0.001608	0.001716	28.0933	0.064716	0.002031	31.8635	134.608	10.475	0.051261	0.611104	-0.487189	-0.488601	-0.025262	31.8635	-0.486595	-2.22736e+06	1.134157E-8	NaN
44	1.000000	0.622507	7.36548e+06	-40839.1	955.818	-29789.1	0.000000	0.000000	6.622997	-0.065880	NaN	0.000000	0.001591	0.001698	28.1308	0.063202	0.002172	29.0934	-129.704	-169.763	0.006076	0.621210	-0.477199	-0.478495	-0.065880	29.0934	-0.475500	-1.55779e+06	4.229075E-8	NaN
44	1.000000	0.632525	7.36548e+06	-40839.1	955.818	-29789.1	0.000000	0.000000	6.633016	-0.054299	NaN	0.000000	0.001580	0.001726	28.1057	0.027897	0.002077	13.4306	-76.8422	13.642	-0.053494	0.631152	-0.467180	-0.468554	-0.054299	13.4306	-0.464148	-1.07966e+06	5.029253E-8	NaN
44	1.000000	0.642501	7.36548e+06	-40839.1	955.818	-29789.1	0.000000	0.000000	6.642993	-0.040505	NaN	0.000000	0.001571	0.001745	28.0808	0.077841	0.002036	38.2357	-86.9581	-166.243	-0.096685	0.641224	-0.457204	-0.458482	-0.040505	38.2357	-0.456410	-840516	4.819106E-8	NaN
44	1.000000	0.652515	7.36548e+06	-40839.1	955.818	-29789.1	0.000000	0.000000	6.653005	-0.064362	NaN	0.000000	0.001566	0.001735	28.092	0.057818	0.002039	28.3559	165.41	16.3143	-0.015668	0.651187	-0.447191	-0.448519	-0.064362	28.3559	-0.445489	-589907	1.091050E-7	NaN
44	1.000000	0.662513	7.36548e+06	-40839.1	955.818	-29789.1	0.000000	0.000000	6.663005	-0.029040	NaN	0.000000	0.001583	0.001715	28.1311	0.018281	0.002076	8.805068	118.282	-164.656	-0.032853	0.661212	-0.437193	-0.438493	-0.029040	8.805068	-0.434719	-415709	6.985672E-8	NaN
44	1.000000	0.672524	7.36548e+06	-40839.1	955.818	-29789.1	0.000000	0.000000	6.673016	-0.014607	NaN	0.000000	0.001574	0.001753	28.1047	0.072366	0.001981	36.532	78.6203	14.7611	0.015723	0.671152	-0.427182	-0.428554	-0.014607	36.532	-0.426882	-322056	4.535654E-8	NaN
44	1.000000	0.682522	7.36548e+06	-40839.1	955.818	-29789.1	0.000000	0.000000	6.683018	0.068229	NaN	0.000000	0.001550	0.001724	28.0805	0.136075	0.002109	64.5261	-156.134	-163.79	0.054671	0.681165	-0.417184	-0.418540	0.068229	64.5261	-0.417977	-240831	-2.833060E-7	NaN
44	1.000000	0.692546	7.36548e+06	-40839.1	955.819	-29789.1	0.000000	0.000000	6.693037	-0.050569	NaN	0.000000	0.001594	0.001740	28.0915	0.047084	0.001999	23.5488	55.8388	10.4942	-0.097939	0.691162	-0.407160	-0.408544	-0.050569	23.5488	-0.405549	-160351	3.153667E-7	NaN
44	1.000000	0.702523	7.36548e+06	-40839.1	955.819	-29789.1	0.000000	0.000000	6.703014	-0.044268	NaN	0.000000	0.001600	0.001708	28.1299	0.097796	0.002103	46.4999	-46.7119	-165.2	-0.022632	0.701207	-0.397183	-0.398498	-0.044268	46.4999	-0.396469	-119017	3.719471E-7	NaN
44	1.000000	0.712556	7.36548e+06	-40839.1	955.819	-29789.1	0.000000	0.000000	6.713044	-0.122154	NaN	0.000000	0.001590	0.001718	28.1048	0.039186	0.001892	20.7151	154.697	11.1472	-0.047099	0.711144	-0.387150	-0.388561	-0.122154	20.7151	-0.382727	-75684.8	1.613983E-6	NaN
44	1.000000	0.722542	7.36548e+06	-40839.1	955.818	-29789.1	0.000000	0.000000	6.723036	0.033014	NaN	0.000000	0.001600	0.001734	28.0805	0.051795	0.002035	25.4567	2.144450	-165.12	0.017824	0.721249	-0.377164	-0.378457	0.033014	25.4567	-0.378136	-65033.3	-5.076420E-7	NaN
44	1.000000	0.732554	7.36548e+06	-40839.1	955.819	-29789.1	0.000000	0.000000	6.733046	-0.019510	NaN	0.000000	0.001583	0.001728	28.0906	0.031416	0.002026	15.508	-121.877	14.6756	0.011982	0.731201	-0.367152	-0.368505	-0.019510	15.508	-0.366208	-43800.9	4.454204E-7	NaN
44	1.000000	0.742534	7.36548e+06	-40839.1	955.819	-29789.1	0.000000	0.000000	6.743024	-0.083759	NaN	0.000000	0.001598	0.001743	28.1297	0.040066	0.001944	20.6144	-20.5734	-167.113	-0.150600	0.741275	-0.357172	-0.358430	-0.083759	20.6144	-0.354124	-29296.2	2.859043E-6	NaN
44	1.000000	0.752563	7.36548e+06	-40839.1	955.818	-29789.1	0.000000	0.000000	6.753054	-0.049264	NaN	0.000000	0.001604	0.001735	28.1063	0.105267	0.002105	50.0014	-79.6934	10.7533	-0.011021	0.751181	-0.347143	-0.348525	-0.049264	50.0014	-0.346404	-22634.6	2.176472E-6	NaN
44	1.000000	0.762544	7.36548e+06	-40839.1	955.818	-29789.1	0.000000	0.000000	6.763034	-0.067991	NaN	0.000000	0.001597	0.001716	28.0813	0.027262	0.001988	13.7115	99.954	-169.098	-0.030288	0.761296	-0.337162	-0.338410	-0.067991	13.7115	-0.333443	-14649.6	4.641191E-6	NaN
44	1.000000	0.772556	7.36548e+06	-40839.1	955.819	-29789.1	0.000000	0.000000	6.773048	-0.038747	NaN	0.000000	0.001596	0.001761	28.0919	0.091873	0.001974	46.5343	40.0498	14.9758	-0.002822	0.771259	-0.327149	-0.328446	-0.038747	46.5343	-0.326525	-11601.5	3.339798E-6	NaN
44	1.000000	0.782564	7.36548e+06	-40839.1	955.818	-29789.1	0.000000	0.000000	6.783055	-0.045378	NaN	0.000000	0.001599	0.001761	28.1295	0.115875	0.002004	57.8156	-153.777	-168.94	-0.067923	0.781288	-0.317142	-0.318418	-0.045378	57.8156	-0.316553	-8276.78	5.482569E-6	NaN
44	1.000000	0.792606	7.36548e+06	-40839.1	955.819	-29789.1	0.000000	0.000000	6.793098	-0.011896	NaN	0.000000	0.001609	0.001757	28.1053	0.084011	0.001917	43.8241	-156.203	16.0096	-0.016587	0.791261	-0.307100	-0.308444	-0.011896	43.8241	-0.306897	-5957.82	1.996788E-6	NaN
44	1.000000	0.802586	7.36548e+06	-40839.1	955.819	-29789.1	0.000000	0.000000	6.803079	-0.004512	NaN	0.000000	0.001568	0.001716	28.0805	0.050610	0.002071	24.44	167.24	-163.174	0.012199	0.801308	-0.297120	-0.298398	-0.004512	24.44	-0.296981	-4242.8	1.063534E-6	NaN
44	1.000000	0.812613	7.36548e+06	-40839.1	955.818	-29789.1	0.000000	0.000000	6.813107	0.023952	NaN	0.000000	0.001576	0.001750	28.0913	0.055908	0.002126	26.297	-82.1022	14.7577	0.075017	0.811222	-0.287093	-0.288484	0.023952	26.297	-0.287776	-3089.98	-7.751534E-6	NaN
44	1.000000	0.822581	7.36548e+06	-40839.1	955.819	-29789.1	0.000000	0.000000	6.823071	-0.080712	NaN	0.000000	0.001614	0.001719	28.1318	0.066666	0.002028	32.8712	-48.8008	-168.505	-0.052435	0.821257	-0.277124	-0.278449	-0.080712	32.8712	-0.275283	-2003.02	4.029518E-5	NaN
44	1.000000	0.832573	7.36548e+06	-40839.1	955.818	-29789.1	0.000000	0.000000	6.833062	-0.093454	NaN	0.000000	0.001627	0.001728	28.1075	0.046410	0.002118	21.912	112.864	14.695	-0.067866	0.831209	-0.267133	-0.268497	-0.093454	21.912	-0.263934	-1346.21	6.942019E-5	NaN
44	1.000000	0.842591	7.36548e+06	-40839.1	955.818	-29789.1	0.000000	0.000000	6.843083	-0.049139	NaN	0.000000	0.001619	0.001752	28.0825	0.028661	0.001885	15.2028	135.864	-165.049	-0.048330	0.841293	-0.257114	-0.258413	-0.049139	15.2028	-0.254690	-971.275	5.059228E-5	NaN
44	1.000000	0.852594	7.36548e+06	-40839.1	955.819	-29789.1	0.000000	0.000000	6.853088	0.009018	NaN	0.000000	0.001611	0.001736	28.0909	0.054423	0.001980	27.483	96.0316	15.7676	-0.088944	0.851225	-0.247111	-0.248481	0.009018	27.483	-0.247357	-748.248	-1.205262E-5	NaN
44	1.000000	0.862616	7.36548e+06	-40839.1	955.819	-29789.1	0.000000	0.000000	6.863109	-0.000897	NaN	0.000000	0.001618	0.001720	28.1307	0.089242	0.001980	45.0804	104.637	-167.286	0.036467	0.861264	-0.237090	-0.238442	-0.000897	45.0804	-0.237075	-517.364	1.734070E-6	NaN
44	1.000000	0.872583	7.36548e+06	-40839.1	955.819	-29789.1	0.000000	0.000000	6.873075	-0.030455	NaN	0.000000	0.001634	0.001741	28.1065	0.005102	0.002004	2.546178	-129.101	16.9257	0.022193	0.871219	-0.227123	-0.228486	-0.030455	2.546178	-0.218152	-259.483	0.000117	NaN
44	1.000000	0.882604	7.36548e+06	-40839.1	955.819	-29789.1	0.000000	0.000000	6.883098	0.020534	NaN	0.000000	0.001641	0.001695	28.0813	0.016359	0.001841	8.886393	139.103	-164.863	0.032119	0.881301	-0.217102	-0.218405	0.020534	8.886393	-0.218835	-266.1	-7.716535E-5	NaN
44	1.000000	0.892591	7.36548e+06	-40839.1	955.818	-29789.1	0.000000	0.000000	6.893083	-0.022002	NaN	0.000000	0.001634	0.001746	28.092	0.050109	0.001947	25.7431	34.8863	16.8893	-0.071122	0.891255	-0.207114	-0.208450	-0.022002	25.7431	-0.206473	-168.099	0.000131	NaN
44	1.000000	0.902601	7.36548e+06	-40839.1	955.819	-29789.1	0.000000	0.000000	6.903094	-0.021197	NaN	0.000000	0.001625	0.001734	28.1312	0.141881	0.001910	74.2986	20.1403	-166.849	-0.042900	0.901332	-0.197104	-0.198374	-0.021197	74.2986	-0.196890	-117.076	0.000181	NaN
44	1.000000	0.912621	7.36548e+06	-40839.1	955.818	-29789.1	0.000000	0.000000	6.913113	-0.049736	NaN	0.000000	0.001626	0.001703	28.1079	0.130953	0.002047	63.9623	-179.871	18.5507	-0.080446	0.911257	-0.187084	-0.188449	-0.049736	63.9623	-0.186501	-78.5954	0.000633	NaN
44	1.000000	0.922647	7.36548e+06	-40839.1	955.818	-29789.1	0.000000	0.000000	6.923140	0.002033	NaN	0.000000	0.001648	0.001706	28.0829	0.021881	0.001963	11.147	151.367	-163.397	-0.014785	0.921316	-0.177059	-0.178390	0.002033	11.147	-0.177195	-54.6539	-3.719654E-5	NaN
44	1.000000	0.932633	7.36548e+06	-40839.1	955.818	-29789.1	0.000000	0.000000	6.933127	0.012056	NaN	0.000000	0.001655	0.001697	28.0921	0.064633	0.001955	33.0568	-95.6195	12.9573	-0.002909	0.931227	-0.167073	-0.168479	0.012056	33.0568	-0.167346	-36.9313	-0.000326	NaN
44	1.000000	0.942646	7.36548e+06	-40839.1	955.819	-29789.1	0.000000	0.000000	6.943141	0.053466	NaN	0.000000	0.001624	0.001722	28.1293	0.066095	0.002005	32.9622	-37.3927	-166.764	0.061555	0.941291	-0.157060	-0.158414	0.053466	32.9622	-0.158276	-25.5442	-0.002093	NaN
44	1.000000	0.952674	7.36548e+06	-40839.1	955.818	-29789.1	0.000000	0.000000	6.953166	-0.022839	NaN	0.000000	0.001679	0.001683	28.1064	0.053165	0.001977	26.8928	173.507	13.4677	-0.078313	0.951277	-0.147032	-0.148428	-0.022839	26.8928	-0.146395	-15.5569	0.001468	NaN
44	1.000000	0.962665	7.36548e+06	-40839.1	955.818	-29789.1	0.000000	0.000000	6.963156	-0.047049	NaN	0.000000	0.001640	0.001701	28.0799	0.077524	0.002150	36.0554	172.551	-164.677	-0.057260	0.961357	-0.137041	-0.138349	-0.047049	36.0554	-0.136062	-9.966121	0.004721	NaN
44	1.000000	0.972645	7.36548e+06	-40839.1	955.818	-29789.1	0.000000	0.000000	6.973136	-0.047541	NaN	0.000000	0.001598	0.001651	28.0902	0.081461	0.002009	40.5463	-116.959	12.5309	-0.095370	0.971296	-0.127061	-0.128410	-0.047541	40.5463	-0.126181	-6.416813	0.007409	NaN
44	1.000000	0.982631	7.36548e+06	-40839.1	955.819	-29789.1	0.000000	0.000000	6.983125	0.024037	NaN	0.000000	0.001574	0.001678	28.1294	0.074594	0.002095	35.6078	68.9571	-166.05	-0.012337	0.981345	-0.117075	-0.118360	0.024037	35.6078	-0.117581	-4.315370	-0.005570	NaN
44	1.000000	0.992646	7.36548e+06	-40839.1	955.819	-29789.1	0.000000	0.000000	6.993139	0.009123	NaN	0.000000	0.001577	0.001655	28.1078	0.072050	0.002037	35.3724	109.528	11.5026	-0.004219	0.991305	-0.107060	-0.108401	0.009123	35.3724	-0.107253	-2.627715	-0.003472	NaN
44	1.000000	1.002710	7.36548e+06	-40839.1	955.819	-29789.1	0.000000	0.000000	7.003200	-0.073919	NaN	0.000000	0.001588	0.001655	28.0812	0.092851	0.001944	47.7635	-63.7082	-162.462	-0.063698	1.001336	-0.096996	-0.098369	-0.073919	47.7635	-0.095835	-1.473643	0.050161	NaN
44	1.000000	1.012675	7.36548e+06	-40839.1	955.819	-29789.1	0.000000	0.000000	7.013167	-0.029731	NaN	0.000000	0.001596	0.001705	28.0906	0.080237	0.002001	40.0933	126.978	15.3985	0.004197	1.011351	-0.087031	-0.088355	-0.029731	40.0933	-0.086475	-0.891673	0.033343	NaN
44	1.000000	1.022687	7.36548e+06	-40839.1	955.819	-29789.1	0.000000	0.000000	7.023182	0.048321	NaN	0.000000	0.001578	0.001696	28.1292	0.126887	0.001921	66.0551	-88.4211	-166.898	0.023471	1.021354	-0.077018	-0.078351	0.048321	66.0551	-0.077567	-0.537464	-0.089906	NaN
44	1.000000	1.032661	7.36548e+06	-40839.1	955.819	-29789.1	0.000000	0.000000	7.033153	-0.038461	NaN	0.000000	0.001590	0.001683	28.1069	0.166673	0.002146	77.6644	-61.1787	14.3361	-0.064940	1.031345	-0.067044	-0.068361	-0.038461	77.6644	-0.066673	-0.277150	0.138771	NaN
44	1.000000	1.042671	7.36548e+06	-40839.1	955.818	-29789.1	0.000000	0.000000	7.043165	0.031108	NaN	0.000000	0.001599	0.001635	28.0802	0.075106	0.001934	38.8334	-77.8657	-166.582	0.023582	1.041319	-0.057035	-0.058386	0.031108	38.8334	-0.057636	-0.153875	-0.202165	NaN
44	1.000000	1.052685	7.36548e+06	-40839.1	955.819	-29789.1	0.000000	0.000000	7.053177	-0.033433	NaN	0.000000	0.001596	0.001686	28.0901	0.051841	0.001968	26.3374	-1.776846	12.8655	0.010041	1.051343	-0.047021	-0.048363	-0.033433	26.3374	-0.046069	-0.069289	0.482515	NaN
44	1.000000	1.062669	7.36548e+06	-40839.1	955.818	-29789.1	0.000000	0.000000	7.063163	0.015960	NaN	0.000000	0.001611	0.001668	28.1291	0.119624	0.002098	57.0237	123.272	-164.492	-0.036324	1.061376	-0.037036	-0.038330	0.015960	57.0237	-0.037246	-0.037345	-0.427358	NaN
44	1.000000	1.072699	7.36548e+06	-40839.1	955.819	-29789.1	0.000000	0.000000	7.073188	-0.100917	NaN	0.000000	0.001662	0.001678	28.1086	0.074041	0.002028	36.5144	-160.894	13.4484	-0.098736	1.071332	-0.027007	-0.028374	-0.100917	36.5144	-0.024934	-0.016804	6.005588	NaN
44	1.000000	1.082694	7.36548e+06	-40839.1	955.819	-29789.1	0.000000	0.000000	7.083186	-0.026269	NaN	0.000000	0.001630	0.001669	28.0823	0.116579	0.002089	55.8192	-155.688	-162.084	-0.068089	1.081335	-0.017012	-0.018370	-0.026269	55.8192	-0.016659	-0.010294	2.551896	NaN
44	1.000000	1.092686	7.36548e+06	-40839.1	955.819	-29789.1	0.000000	0.000000	7.093177	-0.063501	NaN	0.000000	0.001634	0.001668	28.0919	0.057885	0.002024	28.5967	-108.323	12.2572	0.015886	1.091283	-0.007019	-0.008422	-0.063501	28.5967	-0.005354	-0.003638	17.4559	NaN
44	1.000000	1.102704	7.36548e+06	-40839.1	955.819	-29789.1	0.000000	0.000000	7.103255	1.410596	NaN	0.000000	0.001648	0.001663	28.1306	1.902420	0.001949	975.956	0.362530	-164.391	0.353950	1.101396	0.002998	0.001690	1.410596	975.956	0.001914	0.001485	949.723	23136.7
44	2.000000	1.110751	7.36548e+06	-40839.1	955.819	-29789.1	0.000000	0.000000	7.111629	9.360174	NaN	0.000000	0.001661	0.001617	28.1079	9.945553	0.001752	5675.78	10.7866	6.040166	8.801769	1.110345	0.011046	0.010640	9.360174	5675.78	0.009809	0.008970	1043.54	54753.4
44	2.000000	1.113206	7.36548e+06	-40839.1	955.819	-29789.1	0.000000	0.000000	7.114268	13.8518	NaN	0.000000	0.001610	0.001616	28.0807	12.6245	0.001602	7880.5	2.447223	-171.488	13.365	1.112892	0.013500	0.013186	13.8518	7880.5	0.012182	0.011709	1183.04	66538.6
44	2.000000	1.115702	7.36548e+06	-40839.1	955.819	-29789.1	0.000000	0.000000	7.116903	17.2259	NaN	0.000000	0.001629	0.001656	28.0902	15.4307	0.001824	8458.52	8.831343	4.036762	16.0947	1.115354	0.015996	0.015648	17.2259	8458.52	0.014469	0.014583	1181.2	63994
44	2.000000	1.118195	7.36548e+06	-40839.1	955.819	-29789.1	0.000000	0.000000	7.119607	22.3787	NaN	0.000000	0.001644	0.001638	28.1295	17.7738	0.001808	9832.56	5.452783	-175.538	21.8744	1.117910	0.018489	0.018205	22.3787	9832.56	0.016782	0.017736	1261.8	67455.6
44	2.000000	1.120682	7.36548e+06	-40839.1	955.819	-29789.1	0.000000	0.000000	7.122260	26.3863	NaN	0.000000	0.001656	0.001668	28.1093	20.843	0.001854	11244.1	6.568049	1.154480	25.6545	1.120325	0.020977	0.020619	26.3863	11244.1	0.019217	0.021327	1237.25	70345.5
44	2.000000	1.123184	7.36548e+06	-40839.1	955.819	-29789.1	0.000000	0.000000	7.125105	34.7584	NaN	0.000000	0.001659	0.001609	28.0813	23.894	0.001858	12857.1	8.836930	179.055	34.8938	1.122867	0.023478	0.023161	34.7584	12857.1	0.021450	0.024873	1397.44	74482.5
44	2.000000	1.125664	7.36548e+06	-40839.1	955.819	-29789.1	0.000000	0.000000	7.127934	43.242	NaN	0.000000	0.001645	0.001668	28.0904	25.3576	0.001675	15134.6	4.839937	1.565892	41.8479	1.125289	0.025958	0.025583	43.242	15134.6	0.023815	0.028896	1496.48	81344.3
44	2.000000	1.128112	7.36548e+06	-40839.1	955.819	-29789.1	0.000000	0.000000	7.130606	48.686	NaN	0.000000	0.001664	0.001652	28.129	28.5832	0.001841	15523.7	12.0134	173.52	47.8483	1.127792	0.028406	0.028086	48.686	15523.7	0.026054	0.032961	1477.09	78121.4
44	2.000000	1.130609	7.36548e+06	-40839.1	955.818	-29789.1	0.000000	0.000000	7.133483	57.9525	NaN	0.000000	0.001690	0.001668	28.1086	30.4446	0.001665	18280.6	4.343769	-1.030797	55.8824	1.130292	0.030903	0.030586	57.9525	18280.6	0.028525	0.037743	1535.47	85970.3
44	2.000000	1.133165	7.36548e+06	-40839.1	955.819	-29789.1	0.000000	0.000000	7.136107	59.6018	NaN	0.000000	0.001690	0.001663	28.0807	33.6456	0.001863	18058.8	5.400185	178.616	58.8306	1.132841	0.033459	0.033135	59.6018	18058.8	0.030984	0.042807	1392.32	79744.8
44	2.000000	1.135655	7.36548e+06	-40839.1	955.818	-29789.1	0.000000	0.000000	7.139053	70.6817	NaN	0.000000	0.001704	0.001653	28.088	35.6571	0.001878	18987.1	1.841027	2.624716	68.7969	1.135202	0.035950	0.035497	70.6817	18987.1	0.033158	0.047543	1486.69	79558.5
44	2.000000	1.138132	7.36548e+06	-40839.1	955.819	-29789.1	0.000000	0.000000	7.141969	81.3789	NaN	0.000000	0.001667	0.001653	28.1282	37.8201	0.001766	21409.8	1.384850	-178.169	81.3441	1.137796	0.038426	0.038090	81.3789	21409.8	0.035575	0.053094	1532.72	84890.9
44	2.000000	1.140620	7.36548e+06	-40839.1	955.819	-29789.1	0.000000	0.000000	7.144871	91.4419	NaN	0.000000	0.001609	0.001665	28.1082	39.5788	0.001842	21488.1	-0.952506	3.520059	88.9235	1.140216	0.040914	0.040511	91.4419	21488.1	0.037723	0.058276	1569.12	81325.5
44	2.000000	1.143099	7.36548e+06	-40839.1	955.819	-29789.1	0.000000	0.000000	7.147812	102.67	NaN	0.000000	0.001629	0.001643	28.0815	43.2731	0.001821	23759.6	3.250863	178.387	101.037	1.142735	0.043393	0.043030	102.67	23759.6	0.040153	0.064423	1593.68	85524.7
44	2.000000	1.145611	7.36548e+06	-40839.1	955.819	-29789.1	0.000000	0.000000	7.150828	114.965	NaN	0.000000	0.001688	0.001634	28.0887	45.1629	0.001763	25611.4	5.776456	-4.001145	112.18	1.145242	0.045905	0.045536	114.965	25611.4	0.042538	0.070753	1624.89	87970
44	2.000000	1.148073	7.36548e+06	-40839.1	955.819	-29789.1	0.000000	0.000000	7.153581	122.046	NaN	0.000000	0.001653	0.001699	28.1278	47.2481	0.001761	26831.1	4.807611	175.375	120.559	1.147867	0.048367	0.048161	122.046	26831.1	0.044955	0.077461	1575.58	88078.7
44	2.000000	1.150611	7.36548e+06	-40839.1	955.818	-29789.1	0.000000	0.000000	7.156661	135.222	NaN	0.000000	0.001655	0.001682	28.1078	49.8093	0.001742	28596.5	3.030939	-2.730858	134.364	1.150288	0.050905	0.050583	135.222	28596.5	0.047358	0.084423	1601.71	89919.8
44	2.000000	1.153123	7.36548e+06	-40839.1	955.819	-29789.1	0.000000	0.000000	7.159304	138.384	NaN	0.000000	0.001605	0.001671	28.08	52.4845	0.001848	28395.6	-0.939992	-179.023	138.652	1.152994	0.053418	0.053288	138.384	28395.6	0.049763	0.091681	1509.41	85681
44	2.000000	1.155623	7.36548e+06	-40839.1	955.818	-29789.1	0.000000	0.000000	7.162877	164.516	NaN	0.000000	0.001623	0.001688	28.0883	54.6522	0.001873	29172	5.377122	-4.353011	162.255	1.155198	0.055917	0.055493	164.516	29172	0.051688	0.097701	1683.87	85268.8
44	2.000000	1.158040	7.36548e+06	-40839.1	955.819	-29789.1	0.000000	0.000000	7.165705	174.522	NaN	0.000000	0.001606	0.001652	28.1284	56.8785	0.001663	34197.2	2.545112	175.746	171.386	1.157852	0.058334	0.058146	174.522	34197.2	0.054507	0.106851	1633.32	95581.6
44	2.000000	1.160579	7.36548e+06	-40839.1	955.819	-29789.1	0.000000	0.000000	7.168662	184.671	NaN	0.000000	0.001632	0.001666	28.1089	60.6626	0.001932	31394.5	1.700971	-2.340184	183.441	1.160335	0.060874	0.060629	184.671	31394.5	0.056462	0.113427	1628.1	85166.3
44	2.000000	1.163002	7.36548e+06	-40839.1	955.819	-29789.1	0.000000	0.000000	7.171820	202.578	NaN	0.000000	0.001558	0.001680	28.0817	62.99	0.001848	34083.9	6.973118	171.39	199.202	1.162751	0.063296	0.063045	202.578	34083.9	0.058838	0.121676	1664.9	89273.1
44	2.000000	1.165522	7.36548e+06	-40839.1	955.818	-29789.1	0.000000	0.000000	7.175022	219.15	NaN	0.000000	0.001595	0.001705	28.0888	63.1361	0.001875	33672.1	5.665702	-5.701925	214.95	1.165171	0.065817	0.065466	219.15	33672.1	0.060935	0.129183	1696.43	85593.4
44	2.000000	1.168064	7.36548e+06	-40839.1	955.819	-29789.1	0.000000	0.000000	7.178188	234.345	NaN	0.000000	0.001621	0.001706	28.1281	65.2809	0.001685	38731.4	4.467577	173.156	233.478	1.167743	0.068359	0.068037	234.345	38731.4	0.063821	0.139864	1675.51	94620
44	2.000000	1.170546	7.36548e+06	-40839.1	955.819	-29789.1	0.000000	0.000000	7.181172	246.543	NaN	0.000000	0.001571	0.001667	28.1093	67.9381	0.001800	37751.9	3.882642	-5.920857	243.911	1.170300	0.070841	0.070595	246.543	37751.9	0.065943	0.147977	1666.09	89663.5
44	2.000000	1.173170	7.36548e+06	-40839.1	955.818	-29789.1	0.000000	0.000000	7.184382	260.816	NaN	0.000000	0.001563	0.001701	28.0809	71.234	0.001807	39425	2.108442	175.844	264.775	1.172766	0.073464	0.073061	260.816	39425	0.068503	0.158050	1650.21	90603.8
44	2.000000	1.175554	7.36548e+06	-40839.1	955.818	-29789.1	0.000000	0.000000	7.187728	284.239	NaN	0.000000	0.001597	0.001672	28.0891	73.2426	0.001746	41944	5.426639	-8.441701	278.115	1.175228	0.075848	0.075522	284.239	41944	0.070765	0.167216	1699.84	93714
44	2.000000	1.178120	7.36548e+06	-40839.1	955.818	-29789.1	0.000000	0.000000	7.190928	299.661	NaN	0.000000	0.001646	0.001692	28.1293	75.9126	0.001796	42275.4	5.557194	171.59	301.217	1.177765	0.078414	0.078059	299.661	42275.4	0.073098	0.176918	1693.79	91828.1
44	2.000000	1.180507	7.36548e+06	-40839.1	955.819	-29789.1	0.000000	0.000000	7.193919	314.348	NaN	0.000000	0.001644	0.001706	28.1107	79.5523	0.001922	41392.9	7.581162	-10.3384	308.784	1.180108	0.080801	0.080402	314.348	41392.9	0.075106	0.185476	1694.82	87812.3
44	2.000000	1.183085	7.36548e+06	-40839.1	955.819	-29789.1	0.000000	0.000000	7.197180	330.988	NaN	0.000000	0.001646	0.001674	28.0837	82.0044	0.001888	43428.5	7.408433	169.686	331.83	1.182745	0.083379	0.083039	330.988	43428.5	0.077663	0.196649	1683.14	89475.2
44	2.000000	1.185476	7.36548e+06	-40839.1	955.819	-29789.1	0.000000	0.000000	7.200209	346.521	NaN	0.000000	0.001582	0.001715	28.0905	81.9976	0.001773	46254.8	1.788133	-5.199905	338.905	1.185154	0.085770	0.085449	346.521	46254.8	0.080151	0.207815	1667.45	92702.5
44	2.000000	1.187988	7.36548e+06	-40839.1	955.819	-29789.1	0.000000	0.000000	7.203539	366.424	NaN	0.000000	0.001578	0.001688	28.1291	83.7264	0.001698	49296.7	3.646182	172.256	360.784	1.187723	0.088282	0.088017	366.424	49296.7	0.082707	0.219585	1668.71	96114.5
44	2.000000	1.190533	7.36548e+06	-40839.1	955.818	-29789.1	0.000000	0.000000	7.206637	379.857	NaN	0.000000	0.001546	0.001661	28.1101	88.6949	0.001901	46652.5	4.928898	-8.862673	375.416	1.190261	0.090828	0.090555	379.857	46652.5	0.084721	0.229073	1658.24	89055.8
44	2.000000	1.192975	7.36548e+06	-40839.1	955.818	-29789.1	0.000000	0.000000	7.210030	403.01	NaN	0.000000	0.001554	0.001673	28.0825	89.8353	0.001750	51325.9	3.309393	172.21	396.954	1.192714	0.093269	0.093008	403.01	51325.9	0.087380	0.241887	1666.11	95346.3
44	2.000000	1.195591	7.36548e+06	-40839.1	955.818	-29789.1	0.000000	0.000000	7.213346	420.046	NaN	0.000000	0.001555	0.001674	28.0894	91.834	0.001831	50151.6	4.812327	-8.931751	416.786	1.195284	0.095885	0.095578	420.046	50151.6	0.089603	0.252850	1661.24	91122.6
44	2.000000	1.198006	7.36548e+06	-40839.1	955.819	-29789.1	0.000000	0.000000	7.216735	443.739	NaN	0.000000	0.001618	0.001650	28.1292	94.4601	0.001815	52039	6.038305	169.397	441.681	1.197791	0.098300	0.098085	443.739	52039	0.091905	0.264438	1678.05	92457.1
44	2.000000	1.200453	7.36548e+06	-40839.1	955.819	-29789.1	0.000000	0.000000	7.219931	461.976	NaN	0.000000	0.001615	0.001646	28.1114	97.3819	0.001849	52673.1	6.460805	-10.9585	453.547	1.200014	0.100747	0.100309	461.976	52673.1	0.094169	0.276074	1673.38	91590.2
44	2.000000	1.203062	7.36548e+06	-40839.1	955.818	-29789.1	0.000000	0.000000	7.223390	482.635	NaN	0.000000	0.001624	0.001682	28.0825	98.9462	0.001786	55403.8	4.701951	170.544	481.752	1.202745	0.103357	0.103039	482.635	55403.8	0.096823	0.290014	1664.18	93994.7
44	2.000000	1.205607	7.36548e+06	-40839.1	955.817	-29789.1	0.000000	0.000000	7.226668	500.466	NaN	0.000000	0.001610	0.001677	28.0878	99.6781	0.001717	58059	2.697373	-7.182414	499.219	1.205155	0.105902	0.105449	500.466	58059	0.099437	0.304052	1645.99	96198.7
44	2.000000	1.208063	7.36548e+06	-40839.1	955.819	-29789.1	0.000000	0.000000	7.230028	522.469	NaN	0.000000	0.001572	0.001629	28.1276	101.626	0.001685	60298.7	2.761951	171.915	522.282	1.207712	0.108358	0.108006	522.469	60298.7	0.101859	0.317342	1646.39	97795.1
44	2.000000	1.208458	7.36548e+06	-40839.1	955.818	-29789.1	0.000000	0.000000	7.230717	529.618	NaN	0.000000	0.001581	0.001654	28.1082	101.811	0.001784	57078.7	3.837510	-8.735681	522.128	1.208225	0.108753	0.108519	529.618	57078.7	0.101794	0.316979	1670.83	92625.8