File: remote_trans/data/nanoindenter/0828-1/data/Data_2025-08-06,11h17m57s/2025-07-22_16-23-58_1_270.txt
2025-07-22, 16:23:58, 1
Index	Phase	Displacement	Time	Pos X	Pos Y	Pos Z	Rot A	Rot B	Piezo Z	Force A	Force B	Gripper	Voltage A	Voltage B	Temperature	Amplitude force	Amplitude pos	Stiffness	Phase shift	Phase excitation	Force A raw	Displacement raw	HMax	HMax raw	Real Force	Real Stiffness	Contact Depth	Area	Hardness	Reduced Mod.
[#]	[#]	[um]	[s]	[um]	[um]	[um]	[m°]	[m°]	[um]	[uN]	[uN]	[V]	[V]	[V]	[°C]	[uN]	[um]	[N/m]	[°]	[°]	[uN]	[um]	[um]	[um]	[uN]	[N/m]	[um]	[um^2]	[MPa]	[MPa]
270	1.000000	0.002620	7.3677e+06	-52139.1	955.818	-29750.4	0.000000	0.000000	6.002788	-0.036860	NaN	0.000000	0.001691	0.001690	28.0796	0.016356	0.000989	16.5447	111.967	-163.395	-0.039505	0.001434	-1.050829	-1.052015	-0.036860	16.5447	-1.049158	-1.040140E+14	3.543711E-16	NaN
270	1.000000	0.010590	7.3677e+06	-52139.1	955.817	-29750.4	0.000000	0.000000	6.010757	-0.075002	NaN	0.000000	0.001692	0.001698	28.079	0.112728	0.000958	117.702	-70.9842	-165.065	-0.082769	0.009319	-1.042858	-1.044130	-0.075002	117.702	-1.042380	-8.432877E+13	8.894042E-16	NaN
270	1.000000	0.018596	7.3677e+06	-52139.1	955.818	-29750.4	0.000000	0.000000	6.018766	-0.007192	NaN	0.000000	0.001671	0.001693	28.0792	0.071481	0.001588	44.9996	-19.9137	-162.093	-0.082253	0.017290	-1.034853	-1.036159	-0.007192	44.9996	-1.034733	-6.654817E+13	1.080721E-16	NaN
270	1.000000	0.026641	7.3677e+06	-52139.1	955.819	-29750.4	0.000000	0.000000	6.026810	-0.003942	NaN	0.000000	0.001693	0.001699	28.0791	0.132801	0.001864	71.2555	-26.9674	-163.354	0.005342	0.025267	-1.026808	-1.028182	-0.003942	71.2555	-1.026767	-5.199814E+13	7.580693E-17	NaN
270	1.000000	0.034581	7.3677e+06	-52139.1	955.819	-29750.4	0.000000	0.000000	6.034750	-0.026673	NaN	0.000000	0.001660	0.001670	28.0787	0.074505	0.001999	37.28	-88.3102	-169.763	-0.076497	0.033249	-1.018868	-1.020200	-0.026673	37.28	-1.018331	-4.004004E+13	6.661639E-16	NaN
270	1.000000	0.042577	7.3677e+06	-52139.1	955.818	-29750.4	0.000000	0.000000	6.042744	-0.062536	NaN	0.000000	0.001662	0.001685	28.0804	0.144385	0.002036	70.9065	-100.722	-164.85	-0.109724	0.041318	-1.010872	-1.012131	-0.062536	70.9065	-1.010210	-3.113249E+13	2.008710E-15	NaN
270	1.000000	0.050599	7.3677e+06	-52139.1	955.818	-29750.4	0.000000	0.000000	6.050766	-0.073277	NaN	0.000000	0.001661	0.001686	28.0807	0.054047	0.001946	27.7673	-141.161	-166.398	-0.081159	0.049282	-1.002850	-1.004167	-0.073277	27.7673	-1.000871	-2.330718E+13	3.143947E-15	NaN
270	1.000000	0.058583	7.3677e+06	-52139.1	955.818	-29750.4	0.000000	0.000000	6.058752	-0.021987	NaN	0.000000	0.001729	0.001698	28.0804	0.087818	0.001983	44.278	60.1751	-167.354	-0.016528	0.057250	-0.994865	-0.996199	-0.021987	44.278	-0.994493	-1.912581E+13	1.149581E-15	NaN
270	1.000000	0.066581	7.3677e+06	-52139.1	955.818	-29750.4	0.000000	0.000000	6.066749	-0.050872	NaN	0.000000	0.001770	0.001678	28.0805	0.040828	0.001822	22.412	18.5354	-165.939	-0.010308	0.065264	-0.986868	-0.988185	-0.050872	22.412	-0.985165	-1.432168E+13	3.552088E-15	NaN
270	1.000000	0.074571	7.3677e+06	-52139.1	955.818	-29750.4	0.000000	0.000000	6.074738	-0.045910	NaN	0.000000	0.001690	0.001685	28.0804	0.083770	0.001970	42.5264	-100.363	-166.338	-0.005340	0.073278	-0.978878	-0.980171	-0.045910	42.5264	-0.978069	-1.149181E+13	3.995045E-15	NaN
270	1.000000	0.082605	7.3677e+06	-52139.1	955.818	-29750.4	0.000000	0.000000	6.082773	-0.042909	NaN	0.000000	0.001680	0.001657	28.0806	0.009880	0.002077	4.758049	-127.819	-167.164	0.015408	0.081291	-0.970844	-0.972158	-0.042909	4.758049	-0.964081	-7.445223E+12	5.763320E-15	NaN
270	1.000000	0.090603	7.3677e+06	-52139.1	955.819	-29750.4	0.000000	0.000000	6.090768	-0.114707	NaN	0.000000	0.001719	0.001702	28.0802	0.033003	0.001849	17.8443	-179.082	-163.927	-0.158058	0.089236	-0.962845	-0.964213	-0.114707	17.8443	-0.958024	-6.169242E+12	1.859340E-14	NaN
270	1.000000	0.098586	7.3677e+06	-52139.1	955.818	-29750.4	0.000000	0.000000	6.098758	0.058098	NaN	0.000000	0.001772	0.001738	28.0802	0.092553	0.002021	45.7972	-15.2111	-168.383	0.054399	0.097274	-0.954863	-0.956175	0.058098	45.7972	-0.955815	-5.760227E+12	-1.008606E-14	NaN
270	1.000000	0.106592	7.3677e+06	-52139.1	955.818	-29750.4	0.000000	0.000000	6.106760	-0.034000	NaN	0.000000	0.001780	0.001713	28.0799	0.130707	0.002062	63.3747	-89.8721	-165.711	-0.021819	0.105273	-0.946857	-0.948176	-0.034000	63.3747	-0.946454	-4.307322E+12	7.893550E-15	NaN
270	1.000000	0.114617	7.3677e+06	-52139.1	955.818	-29750.4	0.000000	0.000000	6.114784	-0.052536	NaN	0.000000	0.001769	0.001698	28.0799	0.074460	0.002083	35.7424	151.729	-163.544	-0.069246	0.113287	-0.938832	-0.940162	-0.052536	35.7424	-0.937730	-3.284795E+12	1.599368E-14	NaN
270	1.000000	0.122617	7.3677e+06	-52139.1	955.818	-29750.4	0.000000	0.000000	6.122787	0.022698	NaN	0.000000	0.001761	0.001712	28.0801	0.113135	0.001947	58.1153	-25.1453	-163.282	-0.010105	0.121333	-0.930832	-0.932116	0.022698	58.1153	-0.931125	-2.675358E+12	-8.484148E-15	NaN
270	1.000000	0.130609	7.3677e+06	-52139.1	955.818	-29750.4	0.000000	0.000000	6.130775	-0.099015	NaN	0.000000	0.001736	0.001754	28.0801	0.115183	0.001996	57.7169	-112.242	-168.383	-0.070253	0.129323	-0.922840	-0.924126	-0.099015	57.7169	-0.921553	-1.986907E+12	4.983389E-14	NaN
270	1.000000	0.138604	7.3677e+06	-52139.1	955.818	-29750.4	0.000000	0.000000	6.138772	-0.050565	NaN	0.000000	0.001776	0.001705	28.0801	0.066989	0.002012	33.2963	-79.6825	-169.558	-0.127861	0.137337	-0.914845	-0.916112	-0.050565	33.2963	-0.913706	-1.556720E+12	3.248163E-14	NaN
270	1.000000	0.146641	7.3677e+06	-52139.1	955.818	-29750.4	0.000000	0.000000	6.146807	-0.083279	NaN	0.000000	0.001771	0.001723	28.0804	0.032967	0.002028	16.2573	160.669	-164.117	-0.107439	0.145291	-0.906808	-0.908158	-0.083279	16.2573	-0.902966	-1.114670E+12	7.471152E-14	NaN
270	1.000000	0.154583	7.3677e+06	-52139.1	955.817	-29750.4	0.000000	0.000000	6.154755	0.037566	NaN	0.000000	0.001747	0.001683	28.08	0.022113	0.002057	10.7486	141.301	-167.895	-0.073294	0.153374	-0.898865	-0.900075	0.037566	10.7486	-0.901487	-1.064519E+12	-3.528938E-14	NaN
270	1.000000	0.162658	7.3677e+06	-52139.1	955.818	-29750.4	0.000000	0.000000	6.162826	-0.034255	NaN	0.000000	0.001768	0.001681	28.0801	0.082656	0.002082	39.6976	160.197	-165.337	0.027115	0.161291	-0.890791	-0.892158	-0.034255	39.6976	-0.890144	-7.479315E+11	4.579939E-14	NaN
270	1.000000	0.170621	7.3677e+06	-52139.1	955.818	-29750.4	0.000000	0.000000	6.170789	-0.040428	NaN	0.000000	0.001747	0.001728	28.0798	0.042302	0.002064	20.499	11.6294	-170.731	-0.046352	0.169317	-0.882828	-0.884132	-0.040428	20.499	-0.881349	-5.687852E+11	7.107760E-14	NaN
270	1.000000	0.178626	7.3677e+06	-52139.1	955.819	-29750.4	0.000000	0.000000	6.178793	-0.050100	NaN	0.000000	0.001779	0.001712	28.0785	0.067640	0.001963	34.4571	-86.6787	-166.949	-0.008620	0.177333	-0.874823	-0.876116	-0.050100	34.4571	-0.873733	-4.486864E+11	1.116591E-13	NaN
270	1.000000	0.186662	7.3677e+06	-52139.1	955.818	-29750.4	0.000000	0.000000	6.186830	-0.043789	NaN	0.000000	0.001790	0.001698	28.0788	0.089405	0.002058	43.4382	-124.539	-166.851	-0.074576	0.185330	-0.866787	-0.868119	-0.043789	43.4382	-0.866031	-3.529674E+11	1.240597E-13	NaN
270	1.000000	0.194676	7.3677e+06	-52139.1	955.819	-29750.4	0.000000	0.000000	6.194842	-0.077734	NaN	0.000000	0.001708	0.001739	28.0785	0.040404	0.001992	20.2796	155.838	-168.377	-0.069817	0.193359	-0.858773	-0.860090	-0.077734	20.2796	-0.855898	-2.573924E+11	3.020049E-13	NaN
270	1.000000	0.202622	7.3677e+06	-52139.1	955.818	-29750.4	0.000000	0.000000	6.202790	-0.056028	NaN	0.000000	0.001693	0.001739	28.0787	0.087889	0.002023	43.4537	-55.6369	-167.46	-0.070667	0.201319	-0.850827	-0.852130	-0.056028	43.4537	-0.849860	-2.132238E+11	2.627680E-13	NaN
270	1.000000	0.210625	7.3677e+06	-52139.1	955.818	-29750.4	0.000000	0.000000	6.210796	0.023980	NaN	0.000000	0.001700	0.001722	28.0787	0.157717	0.002035	77.5022	-171.633	-167.638	0.063251	0.209302	-0.842824	-0.844147	0.023980	77.5022	-0.843056	-1.724596E+11	-1.390455E-13	NaN
270	1.000000	0.218616	7.3677e+06	-52139.1	955.817	-29750.4	0.000000	0.000000	6.218782	-0.079706	NaN	0.000000	0.001780	0.001737	28.0786	0.065861	0.002084	31.607	-107.948	-165.323	-0.045273	0.217343	-0.834833	-0.836105	-0.079706	31.607	-0.832942	-1.257927E+11	6.336335E-13	NaN
270	1.000000	0.226630	7.3677e+06	-52139.1	955.819	-29750.4	0.000000	0.000000	6.226797	-0.075154	NaN	0.000000	0.001759	0.001740	28.0787	0.041335	0.002045	20.2089	119.333	-166.808	-0.058209	0.225384	-0.826819	-0.828065	-0.075154	20.2089	-0.824030	-9.524664E+10	7.890447E-13	NaN
270	1.000000	0.234682	7.3677e+06	-52139.1	955.819	-29750.4	0.000000	0.000000	6.234850	-0.042357	NaN	0.000000	0.001743	0.001759	28.0788	0.131778	0.002093	62.9715	111.184	-165.58	0.059546	0.233287	-0.818767	-0.820162	-0.042357	62.9715	-0.818263	-7.955198E+10	5.324466E-13	NaN
270	1.000000	0.242671	7.3677e+06	-52139.1	955.818	-29750.4	0.000000	0.000000	6.242838	-0.053134	NaN	0.000000	0.001739	0.001727	28.0784	0.104040	0.001881	55.3108	-131.432	-163.65	-0.027810	0.241319	-0.810778	-0.812130	-0.053134	55.3108	-0.810058	-6.156761E+10	8.630211E-13	NaN
270	1.000000	0.250651	7.3677e+06	-52139.1	955.818	-29750.4	0.000000	0.000000	6.250820	-0.025976	NaN	0.000000	0.001747	0.001752	28.0783	0.088444	0.001993	44.3753	-46.5264	-168.731	-0.002415	0.249347	-0.802798	-0.804102	-0.025976	44.3753	-0.802359	-4.840401E+10	5.366553E-13	NaN
270	1.000000	0.258696	7.3677e+06	-52139.1	955.818	-29750.4	0.000000	0.000000	6.258869	0.066162	NaN	0.000000	0.001740	0.001764	28.0786	0.130511	0.001955	66.7455	104.009	-168.912	0.044333	0.257343	-0.794752	-0.796106	0.066162	66.7455	-0.795496	-3.905848E+10	-1.693925E-12	NaN
270	1.000000	0.266669	7.3677e+06	-52139.1	955.819	-29750.4	0.000000	0.000000	6.266839	0.014559	NaN	0.000000	0.001780	0.001706	28.0784	0.026558	0.002081	12.7648	-103.475	-168.985	0.081073	0.265383	-0.786780	-0.788066	0.014559	12.7648	-0.787635	-3.054672E+10	-4.766296E-13	NaN
270	1.000000	0.274657	7.3677e+06	-52139.1	955.819	-29750.4	0.000000	0.000000	6.274825	-0.027102	NaN	0.000000	0.001723	0.001772	28.0782	0.112828	0.002062	54.7131	33.0758	-164.926	-0.028370	0.273397	-0.778792	-0.780052	-0.027102	54.7131	-0.778421	-2.289659E+10	1.183678E-12	NaN
270	1.000000	0.282663	7.3677e+06	-52139.1	955.818	-29750.4	0.000000	0.000000	6.282831	-0.046871	NaN	0.000000	0.001739	0.001740	28.0785	0.075467	0.001960	38.4994	-161.359	-167.882	-0.099631	0.281376	-0.770786	-0.772072	-0.046871	38.4994	-0.769872	-1.752151E+10	2.675082E-12	NaN
270	1.000000	0.290671	7.3677e+06	-52139.1	955.819	-29750.4	0.000000	0.000000	6.290839	-0.047589	NaN	0.000000	0.001720	0.001731	28.0785	0.064943	0.001828	35.5288	115.455	-166.017	-0.043433	0.289313	-0.762778	-0.764136	-0.047589	35.5288	-0.761773	-1.359639E+10	3.500151E-12	NaN
270	1.000000	0.298681	7.3677e+06	-52139.1	955.819	-29750.4	0.000000	0.000000	6.298846	-0.104433	NaN	0.000000	0.001748	0.001770	28.0788	0.078108	0.002074	37.6647	-11.5272	-165.869	-0.084969	0.297350	-0.754768	-0.756099	-0.104433	37.6647	-0.752688	-1.022852E+10	1.020994E-11	NaN
270	1.000000	0.306689	7.3677e+06	-52139.1	955.818	-29750.4	0.000000	0.000000	6.306856	-0.082291	NaN	0.000000	0.001749	0.001740	28.0783	0.124279	0.002016	61.6394	124.315	-163.551	0.000429	0.305330	-0.746759	-0.748119	-0.082291	61.6394	-0.745758	-8.231345E+9	9.997233E-12	NaN
270	1.000000	0.314682	7.3677e+06	-52139.1	955.818	-29750.4	0.000000	0.000000	6.314850	-0.059759	NaN	0.000000	0.001712	0.001705	28.0797	0.074144	0.002011	36.8675	-162.381	-168.156	-0.060820	0.313443	-0.738767	-0.740006	-0.059759	36.8675	-0.737551	-6.363494E+9	9.390915E-12	NaN
270	1.000000	0.322722	7.3677e+06	-52139.1	955.819	-29750.4	0.000000	0.000000	6.322889	-0.075339	NaN	0.000000	0.001676	0.001720	28.0796	0.078682	0.001982	39.6978	44.5924	-166.611	0.010752	0.321378	-0.730727	-0.732071	-0.075339	39.6978	-0.729304	-4.912657E+9	1.533577E-11	NaN
270	1.000000	0.330694	7.3677e+06	-52139.1	955.818	-29750.4	0.000000	0.000000	6.330862	-0.039520	NaN	0.000000	0.001654	0.001687	28.0797	0.056895	0.002077	27.3976	-169.005	-170.087	0.033429	0.329344	-0.722755	-0.724105	-0.039520	27.3976	-0.721673	-3.866278E+9	1.022181E-11	NaN
270	1.000000	0.338709	7.3677e+06	-52139.1	955.818	-29750.4	0.000000	0.000000	6.338875	-0.079476	NaN	0.000000	0.001702	0.001712	28.0797	0.110362	0.002042	54.0531	157.324	-167.71	-0.063869	0.337413	-0.714740	-0.716036	-0.079476	54.0531	-0.713637	-3.003848E+9	2.645793E-11	NaN
270	1.000000	0.346698	7.3677e+06	-52139.1	955.819	-29750.4	0.000000	0.000000	6.346866	-0.045496	NaN	0.000000	0.001686	0.001717	28.0796	0.144326	0.001991	72.4714	83.8421	-167.466	-0.101064	0.345425	-0.706751	-0.708023	-0.045496	72.4714	-0.706280	-2.383843E+9	1.908516E-11	NaN
270	1.000000	0.354704	7.3677e+06	-52139.1	955.818	-29750.4	0.000000	0.000000	6.354873	-0.033677	NaN	0.000000	0.001693	0.001755	28.0798	0.065933	0.002083	31.6516	175.577	-165.795	-0.124184	0.353416	-0.698744	-0.700033	-0.033677	31.6516	-0.697946	-1.834359E+9	1.835875E-11	NaN
270	1.000000	0.362693	7.3677e+06	-52139.1	955.819	-29750.4	0.000000	0.000000	6.362859	-0.089439	NaN	0.000000	0.001682	0.001733	28.0799	0.038380	0.001901	20.184	-56.7443	-166.439	-0.043934	0.361351	-0.690756	-0.692098	-0.089439	20.184	-0.687433	-1.317745E+9	6.787310E-11	NaN
270	1.000000	0.370708	7.3677e+06	-52139.1	955.818	-29750.4	0.000000	0.000000	6.370876	-0.048421	NaN	0.000000	0.001709	0.001697	28.0801	0.152701	0.001898	80.453	-85.527	-166.799	-0.067634	0.369409	-0.682741	-0.684040	-0.048421	80.453	-0.682289	-1.120753E+9	4.320405E-11	NaN
270	1.000000	0.378738	7.3677e+06	-52139.1	955.818	-29750.4	0.000000	0.000000	6.378905	-0.079780	NaN	0.000000	0.001697	0.001733	28.0799	0.065109	0.002005	32.4753	-168.351	-164.706	-0.157026	0.377399	-0.674711	-0.676050	-0.079780	32.4753	-0.672868	-8.329935E+8	9.577559E-11	NaN
270	1.000000	0.386723	7.3677e+06	-52139.1	955.818	-29750.4	0.000000	0.000000	6.386892	-0.006577	NaN	0.000000	0.001667	0.001700	28.0798	0.123417	0.001964	62.8353	163.046	-168.327	0.004403	0.385361	-0.666726	-0.668088	-0.006577	62.8353	-0.666648	-6.847036E+8	9.605718E-12	NaN
270	1.000000	0.394720	7.3677e+06	-52139.1	955.817	-29750.4	0.000000	0.000000	6.394887	-0.072604	NaN	0.000000	0.001693	0.001693	28.0801	0.087888	0.002022	43.4604	-153.228	-168.307	-0.072137	0.393395	-0.658729	-0.660054	-0.072604	43.4604	-0.657476	-5.127305E+8	1.416027E-10	NaN
270	1.000000	0.402739	7.3677e+06	-52139.1	955.818	-29750.4	0.000000	0.000000	6.402908	-0.028766	NaN	0.000000	0.001700	0.001661	28.0798	0.105307	0.002021	52.1095	-26.3022	-170.668	-0.108946	0.401433	-0.650709	-0.652016	-0.028766	52.1095	-0.650295	-4.087762E+8	7.037003E-11	NaN
270	1.000000	0.410719	7.3677e+06	-52139.1	955.819	-29750.4	0.000000	0.000000	6.410888	-0.028352	NaN	0.000000	0.001694	0.001711	28.0799	0.045800	0.001974	23.1986	-90.2863	-166.502	0.026890	0.409394	-0.642730	-0.644055	-0.028352	23.1986	-0.641813	-3.127279E+8	9.066134E-11	NaN
270	1.000000	0.418728	7.3677e+06	-52139.1	955.819	-29750.4	0.000000	0.000000	6.418895	-0.059425	NaN	0.000000	0.001714	0.001702	28.0798	0.092017	0.002116	43.4935	80.9349	-168.143	-0.023544	0.417402	-0.634721	-0.636046	-0.059425	43.4935	-0.633696	-2.419784E+8	2.455815E-10	NaN
270	1.000000	0.426727	7.3677e+06	-52139.1	955.818	-29750.4	0.000000	0.000000	6.426897	0.012427	NaN	0.000000	0.001695	0.001710	28.0797	0.061357	0.002048	29.9644	-113.324	-165.349	-0.037094	0.425388	-0.626722	-0.628061	0.012427	29.9644	-0.627033	-1.960075E+8	-6.340164E-11	NaN
270	1.000000	0.434749	7.3677e+06	-52139.1	955.818	-29750.4	0.000000	0.000000	6.434915	-0.105026	NaN	0.000000	0.001728	0.001699	28.0802	0.086938	0.001909	45.5356	-102.642	-164.203	-0.042706	0.433437	-0.618700	-0.620012	-0.105026	45.5356	-0.616970	-1.425528E+8	7.367541E-10	NaN
270	1.000000	0.442731	7.3677e+06	-52139.1	955.818	-29750.4	0.000000	0.000000	6.442897	-0.073131	NaN	0.000000	0.001713	0.001722	28.0798	0.037701	0.001954	19.2912	40.1237	-167.833	-0.073841	0.441396	-0.610718	-0.612053	-0.073131	19.2912	-0.607875	-1.068746E+8	6.842649E-10	NaN
270	1.000000	0.450737	7.3677e+06	-52139.1	955.817	-29750.4	0.000000	0.000000	6.450903	-0.097097	NaN	0.000000	0.001678	0.001676	28.0787	0.110107	0.002002	54.9883	-42.2943	-166.251	-0.076596	0.449380	-0.602712	-0.604069	-0.097097	54.9883	-0.601387	-8.700960E+7	1.115938E-9	NaN
270	1.000000	0.458767	7.3677e+06	-52139.1	955.819	-29750.4	0.000000	0.000000	6.458936	-0.003677	NaN	0.000000	0.001689	0.001699	28.0787	0.052412	0.002055	25.5088	166.041	-166.486	0.043641	0.457416	-0.594682	-0.596033	-0.003677	25.5088	-0.594574	-7.009919E+7	5.245991E-11	NaN
270	1.000000	0.466766	7.3677e+06	-52139.1	955.818	-29750.4	0.000000	0.000000	6.466931	-0.110732	NaN	0.000000	0.001652	0.001738	28.0786	0.091014	0.002057	44.2374	-121.293	-166.053	-0.099263	0.465439	-0.586683	-0.588009	-0.110732	44.2374	-0.584806	-5.140832E+7	2.153974E-9	NaN
270	1.000000	0.474757	7.3677e+06	-52139.1	955.818	-29750.4	0.000000	0.000000	6.474926	-0.015546	NaN	0.000000	0.001646	0.001728	28.0788	0.032435	0.002090	15.5209	23.1229	-164.217	-0.010110	0.473446	-0.578692	-0.580003	-0.015546	15.5209	-0.577941	-4.133346E+7	3.761212E-10	NaN
270	1.000000	0.482752	7.3677e+06	-52139.1	955.819	-29750.4	0.000000	0.000000	6.482920	-0.060542	NaN	0.000000	0.001681	0.001712	28.0784	0.059393	0.001955	30.3765	-47.3665	-165.514	-0.104614	0.481447	-0.570696	-0.572002	-0.060542	30.3765	-0.569202	-3.130399E+7	1.933996E-9	NaN
270	1.000000	0.490763	7.3677e+06	-52139.1	955.819	-29750.4	0.000000	0.000000	6.490934	0.040468	NaN	0.000000	0.001687	0.001713	28.0787	0.054892	0.002023	27.135	-169.3	-168.678	-0.005842	0.489442	-0.562686	-0.564006	0.040468	27.135	-0.563805	-2.636337E+7	-1.534993E-9	NaN
270	1.000000	0.498772	7.3677e+06	-52139.1	955.818	-29750.4	0.000000	0.000000	6.498940	-0.033471	NaN	0.000000	0.001678	0.001711	28.0784	0.060218	0.002045	29.4432	-81.5324	-167.725	-0.024345	0.497460	-0.554677	-0.555989	-0.033471	29.4432	-0.553825	-1.918310E+7	1.744827E-9	NaN
270	1.000000	0.506782	7.3677e+06	-52139.1	955.819	-29750.4	0.000000	0.000000	6.506948	-0.087721	NaN	0.000000	0.001662	0.001686	28.0784	0.015472	0.002048	7.556665	-159.717	-167.124	-0.057151	0.505424	-0.546667	-0.548025	-0.087721	7.556665	-0.537960	-1.156294E+7	7.586348E-9	NaN
270	1.000000	0.514753	7.3677e+06	-52139.1	955.818	-29750.4	0.000000	0.000000	6.514918	-0.109072	NaN	0.000000	0.001654	0.001686	28.0786	0.114276	0.001983	57.6174	-82.596	-166.698	-0.104184	0.513450	-0.538696	-0.539999	-0.109072	57.6174	-0.537276	-1.131286E+7	9.641438E-9	NaN
270	1.000000	0.522789	7.3677e+06	-52139.1	955.818	-29750.4	0.000000	0.000000	6.522957	-0.044846	NaN	0.000000	0.001673	0.001699	28.0784	0.088293	0.002005	44.0313	64.7877	-168.033	-0.066804	0.521513	-0.530659	-0.531936	-0.044846	44.0313	-0.529896	-8.93563e+06	5.018779E-9	NaN
270	1.000000	0.530774	7.3677e+06	-52139.1	955.818	-29750.4	0.000000	0.000000	6.530940	-0.110068	NaN	0.000000	0.001699	0.001691	28.0786	0.046363	0.002004	23.1399	-29.9369	-167.048	-0.086112	0.529480	-0.522675	-0.523969	-0.110068	23.1399	-0.519107	-6.3267e+06	1.739744E-8	NaN
270	1.000000	0.538810	7.3677e+06	-52139.1	955.819	-29750.4	0.000000	0.000000	6.538978	-0.042591	NaN	0.000000	0.001665	0.001687	28.0785	0.055014	0.002013	27.3273	108.329	-168.487	-0.143622	0.537452	-0.514639	-0.515996	-0.042591	27.3273	-0.513470	-5.28124e+06	8.064569E-9	NaN
270	1.000000	0.546785	7.3677e+06	-52139.1	955.819	-29750.4	0.000000	0.000000	6.546952	-0.062919	NaN	0.000000	0.001658	0.001708	28.0787	0.061773	0.001874	32.9658	-61.7041	-166.255	-0.066944	0.545470	-0.506664	-0.507979	-0.062919	32.9658	-0.505232	-4.05489e+06	1.551679E-8	NaN
270	1.000000	0.554805	7.3677e+06	-52139.1	955.819	-29750.4	0.000000	0.000000	6.554970	-0.107513	NaN	0.000000	0.001656	0.001668	28.0786	0.086728	0.001934	44.8441	128.853	-165.463	-0.052336	0.553526	-0.498644	-0.499923	-0.107513	44.8441	-0.496846	-3.09743e+06	3.471056E-8	NaN
270	1.000000	0.562789	7.3677e+06	-52139.1	955.819	-29750.4	0.000000	0.000000	6.562959	0.007513	NaN	0.000000	0.001681	0.001705	28.079	0.043429	0.002008	21.6233	-63.4832	-166.944	0.019941	0.561532	-0.490660	-0.491917	0.007513	21.6233	-0.490921	-2.56011e+06	-2.934746E-9	NaN
270	1.000000	0.570783	7.3677e+06	-52139.1	955.818	-29750.4	0.000000	0.000000	6.570951	-0.024849	NaN	0.000000	0.001635	0.001689	28.0787	0.026279	0.001970	13.3429	178.743	-164.234	-0.037618	0.569518	-0.482666	-0.483931	-0.024849	13.3429	-0.481269	-1.87627e+06	1.324405E-8	NaN
270	1.000000	0.578811	7.3677e+06	-52139.1	955.819	-29750.4	0.000000	0.000000	6.578979	-0.050356	NaN	0.000000	0.001646	0.001680	28.0786	0.074866	0.001958	38.2369	31.6918	-166.313	-0.162216	0.577526	-0.474637	-0.475923	-0.050356	38.2369	-0.473650	-1.4675e+06	3.431396E-8	NaN
270	1.000000	0.586795	7.3677e+06	-52139.1	955.819	-29750.4	0.000000	0.000000	6.586963	-0.035391	NaN	0.000000	0.001649	0.001684	28.0803	0.086896	0.001971	44.0779	-45.4071	-166.547	-0.077840	0.585515	-0.466654	-0.467934	-0.035391	44.0779	-0.466052	-1.14819e+06	3.082323E-8	NaN
270	1.000000	0.594782	7.3677e+06	-52139.1	955.818	-29750.4	0.000000	0.000000	6.594947	-0.098542	NaN	0.000000	0.001672	0.001696	28.0794	0.056135	0.001885	29.7737	-26.4398	-166.827	-0.090732	0.593540	-0.458667	-0.459909	-0.098542	29.7737	-0.456185	-834418	1.180966E-7	NaN
270	1.000000	0.602805	7.3677e+06	-52139.1	955.817	-29750.4	0.000000	0.000000	6.602973	-0.051806	NaN	0.000000	0.001679	0.001675	28.0798	0.053999	0.001934	27.9246	-122.401	-166.332	-0.117909	0.601524	-0.450643	-0.451925	-0.051806	27.9246	-0.449252	-666512	7.772780E-8	NaN
270	1.000000	0.610808	7.3677e+06	-52139.1	955.818	-29750.4	0.000000	0.000000	6.610973	-0.118624	NaN	0.000000	0.001684	0.001736	28.0798	0.043642	0.001981	22.033	136.582	-171.202	-0.112049	0.609488	-0.442641	-0.443961	-0.118624	22.033	-0.438603	-471678	2.514946E-7	NaN
270	1.000000	0.618811	7.3677e+06	-52139.1	955.818	-29750.4	0.000000	0.000000	6.618976	-0.112300	NaN	0.000000	0.001686	0.001687	28.0798	0.043017	0.001996	21.5525	13.1494	-168.259	-0.083683	0.617555	-0.434638	-0.435894	-0.112300	21.5525	-0.430730	-365082	3.076026E-7	NaN
270	1.000000	0.626847	7.3677e+06	-52139.1	955.818	-29750.4	0.000000	0.000000	6.627018	0.033386	NaN	0.000000	0.001664	0.001686	28.08	0.118067	0.001920	61.4998	-63.1671	-165.86	0.005072	0.625594	-0.426602	-0.427855	0.033386	61.4998	-0.427009	-323391	-1.032367E-7	NaN
270	1.000000	0.634850	7.3677e+06	-52139.1	955.819	-29750.4	0.000000	0.000000	6.635019	-0.016996	NaN	0.000000	0.001651	0.001742	28.0799	0.063644	0.002000	31.8233	169.03	-168.636	0.071825	0.633571	-0.418599	-0.419878	-0.016996	31.8233	-0.418198	-242582	7.006305E-8	NaN
270	1.000000	0.642842	7.3677e+06	-52139.1	955.818	-29750.4	0.000000	0.000000	6.643008	-0.073604	NaN	0.000000	0.001670	0.001695	28.0802	0.100897	0.001928	52.3203	-130.671	-169.101	-0.024749	0.641510	-0.410607	-0.411938	-0.073604	52.3203	-0.409552	-182824	4.025959E-7	NaN
270	1.000000	0.650824	7.3677e+06	-52139.1	955.818	-29750.4	0.000000	0.000000	6.650993	-0.022940	NaN	0.000000	0.001669	0.001662	28.0801	0.053187	0.002063	25.7766	169.324	-170.302	-0.041919	0.649511	-0.402625	-0.403938	-0.022940	25.7766	-0.401957	-142528	1.609529E-7	NaN
270	1.000000	0.658805	7.3677e+06	-52139.1	955.819	-29750.4	0.000000	0.000000	6.658972	-0.062858	NaN	0.000000	0.001678	0.001724	28.0799	0.073523	0.002012	36.5432	172.729	-168.055	-0.046022	0.657554	-0.394644	-0.395895	-0.062858	36.5432	-0.393354	-107428	5.851169E-7	NaN
270	1.000000	0.666859	7.3677e+06	-52139.1	955.818	-29750.4	0.000000	0.000000	6.667028	-0.018366	NaN	0.000000	0.001701	0.001736	28.0799	0.046644	0.002057	22.6795	170.075	-166.308	-0.009567	0.665495	-0.386590	-0.387953	-0.018366	22.6795	-0.385982	-84267.3	2.179492E-7	NaN
270	1.000000	0.674821	7.3677e+06	-52139.1	955.819	-29750.4	0.000000	0.000000	6.674989	-0.045531	NaN	0.000000	0.001707	0.001717	28.0798	0.046276	0.001946	23.7823	-55.2092	-167.066	0.067585	0.673509	-0.378627	-0.379939	-0.045531	23.7823	-0.377192	-63032.7	7.223348E-7	NaN
270	1.000000	0.682853	7.3677e+06	-52139.1	955.819	-29750.4	0.000000	0.000000	6.683021	-0.042911	NaN	0.000000	0.001669	0.001740	28.0803	0.083899	0.002066	40.6186	166.47	-169.003	-0.110858	0.681578	-0.370596	-0.371871	-0.042911	40.6186	-0.369804	-49351.3	8.695006E-7	NaN
270	1.000000	0.690848	7.3677e+06	-52139.1	955.818	-29750.4	0.000000	0.000000	6.691015	-0.085020	NaN	0.000000	0.001750	0.001674	28.0798	0.093879	0.002147	43.7267	-108.455	-167.545	-0.160829	0.689553	-0.362600	-0.363896	-0.085020	43.7267	-0.361142	-37012.8	2.297048E-6	NaN
270	1.000000	0.698819	7.3677e+06	-52139.1	955.818	-29750.4	0.000000	0.000000	6.698988	-0.012154	NaN	0.000000	0.001715	0.001652	28.0799	0.063962	0.002002	31.9499	13.9437	-165.548	-0.095564	0.697556	-0.354630	-0.355893	-0.012154	31.9499	-0.354345	-29512.5	4.118327E-7	NaN
270	1.000000	0.706879	7.3677e+06	-52139.1	955.818	-29750.4	0.000000	0.000000	6.707044	-0.096011	NaN	0.000000	0.001659	0.001679	28.0799	0.064142	0.002052	31.2592	23.414	-164.489	-0.088553	0.705516	-0.346570	-0.347933	-0.096011	31.2592	-0.344267	-21071.3	4.556477E-6	NaN
270	1.000000	0.714889	7.3677e+06	-52139.1	955.819	-29750.4	0.000000	0.000000	6.715058	-0.005255	NaN	0.000000	0.001683	0.001696	28.0798	0.122606	0.002028	60.4595	-163.409	-167.353	-0.059454	0.713554	-0.338560	-0.339895	-0.005255	60.4595	-0.338495	-17362.2	3.026831E-7	NaN
270	1.000000	0.722864	7.3677e+06	-52139.1	955.818	-29750.4	0.000000	0.000000	6.723030	-0.092211	NaN	0.000000	0.001678	0.001741	28.0788	0.090754	0.002076	43.726	-30.8803	-164.751	-0.081044	0.721553	-0.330585	-0.331896	-0.092211	43.726	-0.329003	-12614	7.310205E-6	NaN
270	1.000000	0.730876	7.3677e+06	-52139.1	955.819	-29750.4	0.000000	0.000000	6.731043	-0.068474	NaN	0.000000	0.001693	0.001722	28.0784	0.067143	0.001937	34.6701	147.486	-165.469	-0.093179	0.729568	-0.322572	-0.323881	-0.068474	34.6701	-0.321091	-9653.72	7.093041E-6	NaN
270	1.000000	0.738867	7.3677e+06	-52139.1	955.818	-29750.4	0.000000	0.000000	6.739033	-0.090302	NaN	0.000000	0.001649	0.001711	28.0785	0.087506	0.001994	43.8757	-150.474	-169.292	-0.130313	0.737567	-0.314582	-0.315882	-0.090302	43.8757	-0.313038	-7344.76	1.229476E-5	NaN
270	1.000000	0.746884	7.3677e+06	-52139.1	955.819	-29750.4	0.000000	0.000000	6.747052	-0.052241	NaN	0.000000	0.001661	0.001693	28.0784	0.039325	0.002000	19.6633	-79.9286	-166.443	-0.112505	0.745590	-0.306564	-0.307859	-0.052241	19.6633	-0.304572	-5502.99	9.493221E-6	NaN
270	1.000000	0.754868	7.3677e+06	-52139.1	955.818	-29750.4	0.000000	0.000000	6.755036	-0.033008	NaN	0.000000	0.001676	0.001714	28.0784	0.046737	0.001977	23.6432	36.498	-167.548	-0.020201	0.753547	-0.298581	-0.299902	-0.033008	23.6432	-0.297534	-4324.09	7.633474E-6	NaN
270	1.000000	0.762888	7.3677e+06	-52139.1	955.819	-29750.4	0.000000	0.000000	6.763052	-0.123598	NaN	0.000000	0.001698	0.001684	28.0787	0.053852	0.001989	27.0817	-29.5721	-166.05	-0.136812	0.761570	-0.290561	-0.291879	-0.123598	27.0817	-0.287138	-3022.64	4.089065E-5	NaN
270	1.000000	0.770873	7.3677e+06	-52139.1	955.82	-29750.4	0.000000	0.000000	6.771041	-0.025091	NaN	0.000000	0.001678	0.001686	28.0785	0.059520	0.002034	29.2626	-50.1608	-164.416	-0.066471	0.769547	-0.282576	-0.283902	-0.025091	29.2626	-0.281933	-2524.14	9.940582E-6	NaN
270	1.000000	0.778896	7.3677e+06	-52139.1	955.819	-29750.4	0.000000	0.000000	6.779066	0.013373	NaN	0.000000	0.001729	0.001702	28.0787	0.035331	0.001966	17.9741	52.9003	-164.218	-0.038224	0.777535	-0.274553	-0.275914	0.013373	17.9741	-0.275111	-1991.03	-6.716478E-6	NaN
270	1.000000	0.786885	7.3677e+06	-52139.1	955.819	-29750.4	0.000000	0.000000	6.787051	-0.088111	NaN	0.000000	0.001688	0.001697	28.0789	0.045498	0.002044	22.2557	-68.2713	-167.559	-0.142964	0.785586	-0.266564	-0.267863	-0.088111	22.2557	-0.263594	-1330.21	6.623802E-5	NaN
270	1.000000	0.794873	7.3677e+06	-52139.1	955.819	-29750.4	0.000000	0.000000	6.795037	-0.128516	NaN	0.000000	0.001680	0.001647	28.0789	0.099978	0.001999	50.0073	56.2918	-168.702	-0.181539	0.793599	-0.258576	-0.259850	-0.128516	50.0073	-0.256648	-1041.06	0.000123	NaN
270	1.000000	0.802893	7.3677e+06	-52139.1	955.818	-29750.4	0.000000	0.000000	6.803062	-0.013407	NaN	0.000000	0.001658	0.001710	28.0785	0.171490	0.001998	85.8162	-154.644	-168.793	0.003975	0.801613	-0.250556	-0.251836	-0.013407	85.8162	-0.250439	-835.125	1.605412E-5	NaN
270	1.000000	0.810911	7.3677e+06	-52139.1	955.818	-29750.4	0.000000	0.000000	6.811081	0.008101	NaN	0.000000	0.001704	0.001681	28.0784	0.138872	0.002145	64.7317	69.9681	-167.159	0.072315	0.809565	-0.242537	-0.243884	0.008101	64.7317	-0.242631	-631.826	-1.282145E-5	NaN
270	1.000000	0.818923	7.3677e+06	-52139.1	955.818	-29750.4	0.000000	0.000000	6.819090	-0.065548	NaN	0.000000	0.001706	0.001675	28.0786	0.061265	0.001954	31.3479	168.748	-168.153	-0.061971	0.817511	-0.234526	-0.235938	-0.065548	31.3479	-0.232958	-445.808	0.000147	NaN
270	1.000000	0.826908	7.3677e+06	-52139.1	955.818	-29750.4	0.000000	0.000000	6.827075	-0.066725	NaN	0.000000	0.001722	0.001733	28.0787	0.058726	0.002015	29.1422	119.105	-162.755	-0.120527	0.825598	-0.226541	-0.227851	-0.066725	29.1422	-0.224824	-331.543	0.000201	NaN
270	1.000000	0.834917	7.3677e+06	-52139.1	955.818	-29750.4	0.000000	0.000000	6.835084	-0.064673	NaN	0.000000	0.001705	0.001681	28.0787	0.060619	0.001964	30.8601	-71.337	-165.107	-0.005774	0.833594	-0.218532	-0.219855	-0.064673	30.8601	-0.216960	-248.315	0.000260	NaN
270	1.000000	0.842905	7.3677e+06	-52139.1	955.818	-29750.4	0.000000	0.000000	6.843076	0.018475	NaN	0.000000	0.001678	0.001673	28.0786	0.072138	0.002092	34.4788	-98.8587	-166.091	0.060072	0.841576	-0.210544	-0.211873	0.018475	34.4788	-0.210945	-198.664	-9.299712E-5	NaN
270	1.000000	0.850888	7.3677e+06	-52139.1	955.819	-29750.4	0.000000	0.000000	6.851052	-0.130062	NaN	0.000000	0.001659	0.001711	28.0786	0.074361	0.002106	35.3045	164.787	-164.691	-0.069743	0.849605	-0.202561	-0.203844	-0.130062	35.3045	-0.199798	-130.731	0.000995	NaN
270	1.000000	0.858908	7.3677e+06	-52139.1	955.818	-29750.4	0.000000	0.000000	6.859074	-0.103000	NaN	0.000000	0.001676	0.001723	28.0797	0.057768	0.001979	29.1873	67.1393	-167.607	-0.018555	0.857595	-0.194541	-0.195854	-0.103000	29.1873	-0.191894	-96.7418	0.001065	NaN
270	1.000000	0.866936	7.3677e+06	-52139.1	955.818	-29750.4	0.000000	0.000000	6.867103	-0.074455	NaN	0.000000	0.001654	0.001706	28.0797	0.051304	0.001935	26.517	-6.861508	-166.696	-0.069665	0.865607	-0.186513	-0.187842	-0.074455	26.517	-0.184407	-72.4652	0.001027	NaN
270	1.000000	0.874953	7.3677e+06	-52139.1	955.819	-29750.4	0.000000	0.000000	6.875120	-0.063212	NaN	0.000000	0.001725	0.001698	28.0796	0.052680	0.002021	26.0697	-142.466	-162.776	-0.082406	0.873620	-0.178496	-0.179829	-0.063212	26.0697	-0.176677	-53.5491	0.001180	NaN
270	1.000000	0.882913	7.3677e+06	-52139.1	955.819	-29750.4	0.000000	0.000000	6.883079	-0.086255	NaN	0.000000	0.001655	0.001722	28.0795	0.149177	0.002021	73.7995	7.709412	-165.774	-0.080083	0.881630	-0.170536	-0.171819	-0.086255	73.7995	-0.169659	-40.5223	0.002129	NaN
270	1.000000	0.890928	7.3677e+06	-52139.1	955.818	-29750.4	0.000000	0.000000	6.891097	-0.025383	NaN	0.000000	0.001658	0.001696	28.08	0.043260	0.002015	21.4638	-55.0645	-167.44	-0.021662	0.889650	-0.162520	-0.163799	-0.025383	21.4638	-0.161634	-29.3059	0.000866	NaN
270	1.000000	0.898915	7.3677e+06	-52139.1	955.819	-29750.4	0.000000	0.000000	6.899086	0.037369	NaN	0.000000	0.001685	0.001700	28.0797	0.144068	0.002032	70.9085	-160.209	-165.671	0.015089	0.897612	-0.154534	-0.155837	0.037369	70.9085	-0.154929	-22.2486	-0.001680	NaN
270	1.000000	0.906929	7.3677e+06	-52139.1	955.819	-29750.4	0.000000	0.000000	6.907098	0.000109	NaN	0.000000	0.001680	0.001689	28.0797	0.048483	0.001995	24.3014	81.6504	-165.831	-0.034825	0.905591	-0.146520	-0.147858	0.000109	24.3014	-0.146524	-15.6419	-6.989127E-6	NaN
270	1.000000	0.914932	7.3677e+06	-52139.1	955.819	-29750.4	0.000000	0.000000	6.915099	-0.052680	NaN	0.000000	0.001642	0.001677	28.0798	0.082395	0.002038	40.4374	-60.9875	-168.812	-0.084943	0.913629	-0.138517	-0.139820	-0.052680	40.4374	-0.137540	-10.631	0.004955	NaN
270	1.000000	0.922923	7.3677e+06	-52139.1	955.817	-29750.4	0.000000	0.000000	6.923091	-0.056926	NaN	0.000000	0.001648	0.001741	28.0796	0.032369	0.001970	16.4282	57.451	-165.582	-0.075464	0.921640	-0.130526	-0.131809	-0.056926	16.4282	-0.127927	-6.943679	0.008198	NaN
270	1.000000	0.930936	7.3677e+06	-52139.1	955.819	-29750.4	0.000000	0.000000	6.931105	-0.017893	NaN	0.000000	0.001688	0.001701	28.0799	0.113036	0.001786	63.2864	4.244561	-169.552	-0.034887	0.929629	-0.122513	-0.123820	-0.017893	63.2864	-0.122301	-5.374134	0.003329	NaN
270	1.000000	0.938942	7.3677e+06	-52139.1	955.819	-29750.4	0.000000	0.000000	6.939110	-0.043024	NaN	0.000000	0.001668	0.001681	28.0796	0.061243	0.002015	30.3981	-136.466	-165.117	-0.085128	0.937639	-0.114507	-0.115810	-0.043024	30.3981	-0.113445	-3.547724	0.012127	NaN
270	1.000000	0.946970	7.3677e+06	-52139.1	955.818	-29750.4	0.000000	0.000000	6.947139	-0.032116	NaN	0.000000	0.001589	0.001731	28.0796	0.032086	0.002001	16.0385	-142.728	-165.128	-0.024465	0.945632	-0.106479	-0.107817	-0.032116	16.0385	-0.104977	-2.347848	0.013679	NaN
270	1.000000	0.954955	7.3677e+06	-52139.1	955.817	-29750.4	0.000000	0.000000	6.955120	-0.094577	NaN	0.000000	0.001605	0.001735	28.0798	0.047213	0.001939	24.3499	79.9285	-169.459	-0.165419	0.953642	-0.098494	-0.099807	-0.094577	24.3499	-0.095581	-1.454241	0.065035	NaN
270	1.000000	0.962967	7.3677e+06	-52139.1	955.819	-29750.4	0.000000	0.000000	6.963134	-0.068980	NaN	0.000000	0.001612	0.001732	28.0799	0.049846	0.001913	26.0552	103.628	-166.849	-0.141331	0.961638	-0.090482	-0.091811	-0.068980	26.0552	-0.088496	-0.996271	0.069238	NaN
270	1.000000	0.970968	7.3677e+06	-52139.1	955.819	-29750.4	0.000000	0.000000	6.971136	-0.037379	NaN	0.000000	0.001665	0.001702	28.0799	0.041612	0.002053	20.2725	149.439	-165.291	0.026358	0.969613	-0.082481	-0.083836	-0.037379	20.2725	-0.081098	-0.659239	0.056700	NaN
270	1.000000	0.978984	7.3677e+06	-52139.1	955.818	-29750.4	0.000000	0.000000	6.979152	-0.035157	NaN	0.000000	0.001653	0.001716	28.0797	0.097565	0.001895	51.4818	35.6536	-166.177	-0.059691	0.977621	-0.074465	-0.075828	-0.035157	51.4818	-0.073953	-0.433847	0.081036	NaN
270	1.000000	0.986963	7.3677e+06	-52139.1	955.819	-29750.4	0.000000	0.000000	6.987127	-0.127804	NaN	0.000000	0.001659	0.001721	28.0797	0.084310	0.001878	44.8831	10.555	-166.032	-0.051309	0.985669	-0.066486	-0.067779	-0.127804	44.8831	-0.064351	-0.239070	0.534589	NaN
270	1.000000	0.994969	7.3677e+06	-52139.1	955.818	-29750.4	0.000000	0.000000	6.995136	-0.049849	NaN	0.000000	0.001680	0.001693	28.079	0.109038	0.001992	54.7288	169.011	-166.559	-0.080208	0.993664	-0.058480	-0.059785	-0.049849	54.7288	-0.057797	-0.155548	0.320474	NaN
270	1.000000	1.002972	7.3677e+06	-52139.1	955.819	-29750.4	0.000000	0.000000	7.003141	-0.006947	NaN	0.000000	0.001652	0.001710	28.0784	0.123473	0.001928	64.0369	-69.2374	-162.325	0.000312	1.001652	-0.050477	-0.051797	-0.006947	64.0369	-0.050396	-0.093797	0.074061	NaN
270	1.000000	1.011001	7.3677e+06	-52139.1	955.819	-29750.4	0.000000	0.000000	7.011168	-0.069527	NaN	0.000000	0.001675	0.001733	28.0786	0.130804	0.001951	67.0522	40.2989	-162.271	-0.055747	1.009641	-0.042448	-0.043808	-0.069527	67.0522	-0.041671	-0.050841	1.367540	NaN
270	1.000000	1.018970	7.3677e+06	-52139.1	955.819	-29750.4	0.000000	0.000000	7.019139	-0.003377	NaN	0.000000	0.001685	0.001728	28.0783	0.029897	0.002031	14.7204	-99.1351	-165.359	-0.026078	1.017668	-0.034479	-0.035781	-0.003377	14.7204	-0.034307	-0.030559	0.110510	NaN
270	1.000000	1.026997	7.3677e+06	-52139.1	955.818	-29750.4	0.000000	0.000000	7.027164	-0.085816	NaN	0.000000	0.001728	0.001715	28.0787	0.007772	0.001942	4.001339	145.824	-169.406	0.040744	1.025630	-0.026451	-0.027819	-0.085816	4.001339	-0.010366	-0.006597	13.009	NaN
270	1.000000	1.034999	7.3677e+06	-52139.1	955.818	-29750.4	0.000000	0.000000	7.035165	-0.086917	NaN	0.000000	0.001699	0.001726	28.0785	0.109100	0.001970	55.3908	80.511	-164.681	-0.112364	1.033700	-0.018450	-0.019749	-0.086917	55.3908	-0.017273	-0.010686	8.133865	NaN
270	1.000000	1.042996	7.3677e+06	-52139.1	955.819	-29750.4	0.000000	0.000000	7.043161	-0.093732	NaN	0.000000	0.001705	0.001719	28.0784	0.037947	0.001917	19.7977	10.4041	-163.863	-0.173048	1.041673	-0.010453	-0.011776	-0.093732	19.7977	-0.006902	-0.004582	20.4563	NaN
270	1.000000	1.050987	7.3677e+06	-52139.1	955.819	-29750.4	0.000000	0.000000	7.051154	-0.074049	NaN	0.000000	0.001677	0.001694	28.0786	0.034353	0.001906	18.0247	-141.315	-171.101	-0.004880	1.049678	-0.002462	-0.003771	-0.074049	18.0247	0.000619	0.000469	-158.034	760.777
270	1.000000	1.058982	7.3677e+06	-52139.1	955.819	-29750.4	0.000000	0.000000	7.059326	4.232107	NaN	0.000000	0.001704	0.001682	28.0785	5.015936	0.001830	2740.35	10.4735	-169.56	2.766296	1.057590	0.005533	0.004141	4.232107	2740.35	0.004375	0.003570	1185.47	41903.1
270	2.000000	1.063617	7.3677e+06	-52139.1	955.82	-29750.4	0.000000	0.000000	7.064164	9.182289	NaN	0.000000	0.001717	0.001722	28.0787	9.883212	0.001836	5383.01	11.4178	-174.09	9.379253	1.063309	0.010168	0.009860	9.182289	5383.01	0.008888	0.007972	1151.8	55082.2
270	2.000000	1.065589	7.3677e+06	-52139.1	955.82	-29750.4	0.000000	0.000000	7.066304	13.2577	NaN	0.000000	0.001684	0.001653	28.0788	11.8234	0.001539	7682.51	2.814428	-172.384	13.1512	1.065251	0.012140	0.011802	13.2577	7682.51	0.010846	0.010137	1307.9	69715.6
270	2.000000	1.067544	7.3677e+06	-52139.1	955.819	-29750.4	0.000000	0.000000	7.068385	16.3171	NaN	0.000000	0.001679	0.001686	28.0786	14.6199	0.001625	8998.28	4.797237	-176.429	15.2443	1.067293	0.014095	0.013844	16.3171	8998.28	0.012735	0.012383	1317.73	73879.6
270	2.000000	1.069521	7.3677e+06	-52139.1	955.819	-29750.4	0.000000	0.000000	7.070503	19.7585	NaN	0.000000	0.001697	0.001691	28.0785	16.3007	0.001718	9490.65	6.469757	-176.759	18.7981	1.069201	0.016072	0.015753	19.7585	9490.65	0.014511	0.014639	1349.75	71667
270	2.000000	1.071488	7.3677e+06	-52139.1	955.819	-29750.4	0.000000	0.000000	7.072659	24.3494	NaN	0.000000	0.001664	0.001745	28.0786	19.0236	0.001854	10260.4	5.538142	-176.593	22.1817	1.071183	0.018039	0.017734	24.3494	10260.4	0.016259	0.017001	1432.24	71895.1
270	2.000000	1.073543	7.3677e+06	-52139.1	955.818	-29750.4	0.000000	0.000000	7.074862	27.9492	NaN	0.000000	0.001738	0.001746	28.0793	21.0065	0.001767	11890	5.113738	-177.548	27.7502	1.073252	0.020094	0.019804	27.9492	11890	0.018331	0.019987	1398.38	76839
270	2.000000	1.075494	7.3677e+06	-52139.1	955.818	-29750.4	0.000000	0.000000	7.076927	30.713	NaN	0.000000	0.001765	0.001716	28.0787	22.0826	0.001729	12771.3	5.304868	-178.647	29.5426	1.075202	0.022045	0.021753	30.713	12771.3	0.020242	0.022924	1339.8	77066.8
270	2.000000	1.077511	7.3677e+06	-52139.1	955.82	-29750.4	0.000000	0.000000	7.079130	35.2429	NaN	0.000000	0.001777	0.001699	28.0787	24.7591	0.001819	13612.1	4.017919	-177.357	34.502	1.077177	0.024062	0.023728	35.2429	13612.1	0.022120	0.025984	1356.32	77151.5
270	2.000000	1.079493	7.3677e+06	-52139.1	955.819	-29750.4	0.000000	0.000000	7.081295	39.6834	NaN	0.000000	0.001765	0.001725	28.0791	25.7826	0.001673	15409.1	2.507943	-178.104	38.3808	1.079225	0.026044	0.025776	39.6834	15409.1	0.024113	0.029421	1348.8	82076.5
270	2.000000	1.081491	7.3677e+06	-52139.1	955.819	-29750.4	0.000000	0.000000	7.083568	46.3693	NaN	0.000000	0.001746	0.001649	28.0799	28.3218	0.001725	16415.5	1.007252	-176.212	45.286	1.081203	0.028042	0.027754	46.3693	16415.5	0.025924	0.032717	1417.27	82915.9
270	2.000000	1.083546	7.3677e+06	-52139.1	955.819	-29750.4	0.000000	0.000000	7.085918	53.5424	NaN	0.000000	0.001779	0.001698	28.0799	30.9361	0.001810	17095.6	9.008460	176.595	55.3134	1.083151	0.030097	0.029702	53.5424	17095.6	0.027748	0.036205	1478.86	82086.4
270	2.000000	1.085453	7.3677e+06	-52139.1	955.819	-29750.4	0.000000	0.000000	7.088102	60.2815	NaN	0.000000	0.001739	0.001681	28.0799	32.026	0.001662	19274	4.770232	179.059	58.0724	1.085107	0.032004	0.031658	60.2815	19274	0.029659	0.040039	1505.55	88003.7
270	2.000000	1.087478	7.3677e+06	-52139.1	955.819	-29750.4	0.000000	0.000000	7.090362	65.9939	NaN	0.000000	0.001760	0.001657	28.0802	35.2552	0.001897	18584.7	7.050171	176.439	64.5325	1.087258	0.034029	0.033809	65.9939	18584.7	0.031366	0.043622	1512.86	81297.5
270	2.000000	1.089544	7.3677e+06	-52139.1	955.818	-29750.4	0.000000	0.000000	7.092646	71.2853	NaN	0.000000	0.001714	0.001672	28.0797	35.3112	0.001662	21251.4	4.475370	177.546	72.8227	1.089129	0.036095	0.035680	71.2853	21251.4	0.033580	0.048490	1470.09	88172.5
270	2.000000	1.091533	7.3677e+06	-52139.1	955.819	-29750.4	0.000000	0.000000	7.094791	75.0805	NaN	0.000000	0.001772	0.001696	28.0799	38.4108	0.001842	20850.2	7.594400	175.643	76.7631	1.091204	0.038084	0.037755	75.0805	20850.2	0.035383	0.052643	1426.23	83026.2
270	2.000000	1.093519	7.3677e+06	-52139.1	955.818	-29750.4	0.000000	0.000000	7.097225	85.9944	NaN	0.000000	0.001773	0.001681	28.0798	41.2597	0.001875	22008	6.153662	176.647	87.1239	1.093141	0.040070	0.039692	85.9944	22008	0.037140	0.056845	1512.78	84334.7
270	2.000000	1.095486	7.3677e+06	-52139.1	955.819	-29750.4	0.000000	0.000000	7.099480	92.9829	NaN	0.000000	0.001735	0.001696	28.0797	43.0568	0.001832	23499.1	7.927600	175.16	93.6249	1.095159	0.042037	0.041711	92.9829	23499.1	0.039070	0.061646	1508.32	86470.9
270	2.000000	1.097474	7.3677e+06	-52139.1	955.819	-29750.4	0.000000	0.000000	7.101716	99.0155	NaN	0.000000	0.001724	0.001673	28.0799	45.4246	0.001813	25059.3	3.060300	178.137	98.9777	1.097101	0.044025	0.043652	99.0155	25059.3	0.041062	0.066801	1482.24	88582.7
270	2.000000	1.099432	7.3677e+06	-52139.1	955.819	-29750.4	0.000000	0.000000	7.103939	105.462	NaN	0.000000	0.001717	0.001672	28.0799	46.8898	0.001876	24998.7	6.630125	174.697	103.581	1.099178	0.045983	0.045729	105.462	24998.7	0.042819	0.071517	1474.64	85405.4
270	2.000000	1.101340	7.3677e+06	-52139.1	955.819	-29750.4	0.000000	0.000000	7.106282	116.061	NaN	0.000000	0.001758	0.001692	28.0801	50.1792	0.001918	26159.6	3.492466	177.259	110.708	1.101086	0.047891	0.047637	116.061	26159.6	0.044563	0.076352	1520.07	86495.6
270	2.000000	1.103409	7.3677e+06	-52139.1	955.818	-29750.4	0.000000	0.000000	7.108904	129.477	NaN	0.000000	0.001696	0.001708	28.08	51.9523	0.001881	27626.5	7.740442	172.757	126.465	1.103067	0.049960	0.049618	129.477	27626.5	0.046445	0.081743	1583.95	88282.2
270	2.000000	1.105506	7.3677e+06	-52139.1	955.818	-29750.4	0.000000	0.000000	7.111248	135.506	NaN	0.000000	0.001679	0.001724	28.0799	53.1811	0.001762	30177	8.799343	170.484	136.442	1.105101	0.052057	0.051652	135.506	30177	0.048689	0.088404	1532.81	92728.7
270	2.000000	1.107424	7.3677e+06	-52139.1	955.819	-29750.4	0.000000	0.000000	7.113609	146.274	NaN	0.000000	0.001677	0.001704	28.08	54.4336	0.001719	31673.7	3.558068	176.693	145.703	1.106983	0.053975	0.053534	146.274	31673.7	0.050511	0.094001	1556.1	94385.8
270	2.000000	1.109417	7.3677e+06	-52139.1	955.819	-29750.4	0.000000	0.000000	7.115865	152.659	NaN	0.000000	0.001682	0.001718	28.0798	56.0329	0.001779	31498.2	5.685471	173.22	149.13	1.109175	0.055968	0.055726	152.659	31498.2	0.052333	0.099761	1530.24	91112.7
270	2.000000	1.111466	7.3677e+06	-52139.1	955.819	-29750.4	0.000000	0.000000	7.118525	167.515	NaN	0.000000	0.001688	0.001720	28.0802	59.0712	0.001844	32033.9	5.772884	174.054	168.92	1.110978	0.058017	0.057529	167.515	32033.9	0.054095	0.105490	1587.96	90110.7
270	2.000000	1.113465	7.3677e+06	-52139.1	955.818	-29750.4	0.000000	0.000000	7.120875	176.047	NaN	0.000000	0.001685	0.001721	28.0804	60.8059	0.001811	33579.3	3.823797	175.201	174.262	1.113158	0.060016	0.059709	176.047	33579.3	0.056084	0.112142	1569.85	91613.7
270	2.000000	1.115562	7.3677e+06	-52139.1	955.82	-29750.4	0.000000	0.000000	7.123012	177.033	NaN	0.000000	0.001727	0.001725	28.0812	63.3561	0.001768	35843.5	9.463095	168.712	183.219	1.115228	0.062113	0.061779	177.033	35843.5	0.058409	0.120163	1473.27	94470.7
270	2.000000	1.117411	7.3677e+06	-52139.1	955.82	-29750.4	0.000000	0.000000	7.125678	196.887	NaN	0.000000	0.001767	0.001699	28.0791	63.9078	0.001798	35547.1	3.733331	174.918	192.259	1.117119	0.063962	0.063670	196.887	35547.1	0.059808	0.125122	1573.56	91814.5
270	2.000000	1.119406	7.3677e+06	-52139.1	955.819	-29750.4	0.000000	0.000000	7.128203	209.764	NaN	0.000000	0.001728	0.001714	28.079	66.4805	0.001823	36466.4	10.3679	167.943	208.398	1.119013	0.065957	0.065564	209.764	36466.4	0.061643	0.131766	1591.95	91783.7
270	2.000000	1.121475	7.3677e+06	-52139.1	955.819	-29750.4	0.000000	0.000000	7.130546	216.437	NaN	0.000000	0.001750	0.001692	28.0791	69.5914	0.001878	37053	9.490794	168.898	217.158	1.121133	0.068026	0.067684	216.437	37053	0.063645	0.139204	1554.82	90734
270	2.000000	1.123489	7.3677e+06	-52139.1	955.819	-29750.4	0.000000	0.000000	7.133424	237.439	NaN	0.000000	0.001772	0.001707	28.0786	70.174	0.001756	39962.4	5.388620	172.392	237.474	1.123052	0.070040	0.069603	237.439	39962.4	0.065584	0.146588	1619.77	95361.9
270	2.000000	1.125359	7.3677e+06	-52139.1	955.82	-29750.4	0.000000	0.000000	7.135802	249.794	NaN	0.000000	0.001758	0.001721	28.0786	70.994	0.001763	40264.1	5.736981	172.273	247.226	1.125048	0.071910	0.071599	249.794	40264.1	0.067257	0.153108	1631.49	94013.9
270	2.000000	1.127425	7.3677e+06	-52139.1	955.819	-29750.4	0.000000	0.000000	7.138131	256.191	NaN	0.000000	0.001728	0.001709	28.079	72.9826	0.001778	41051	0.023511	177.325	254.95	1.127161	0.073976	0.073712	256.191	41051	0.069295	0.161232	1588.96	93405.2
270	2.000000	1.129451	7.3677e+06	-52139.1	955.82	-29750.4	0.000000	0.000000	7.140574	266.339	NaN	0.000000	0.001726	0.001683	28.0787	74.8783	0.001810	41371.1	6.611696	170.835	268.416	1.129039	0.076002	0.075590	266.339	41371.1	0.071174	0.168895	1576.95	91973.3
270	2.000000	1.131440	7.3677e+06	-52139.1	955.82	-29750.4	0.000000	0.000000	7.142949	275.722	NaN	0.000000	0.001727	0.001707	28.0786	78.6724	0.001874	41990.1	7.115592	170.536	275.233	1.131127	0.077991	0.077678	275.722	41990.1	0.073067	0.176785	1559.64	91242.4
270	2.000000	1.133450	7.3677e+06	-52139.1	955.82	-29750.4	0.000000	0.000000	7.145876	298.013	NaN	0.000000	0.001678	0.001695	28.0785	79.7642	0.001824	43730.1	7.072338	171.094	297.29	1.132984	0.080002	0.079535	298.013	43730.1	0.074890	0.184549	1614.82	93003.2
270	2.000000	1.135357	7.3677e+06	-52139.1	955.819	-29750.4	0.000000	0.000000	7.148112	306.024	NaN	0.000000	0.001668	0.001712	28.0787	81.4237	0.001813	44908.8	5.884149	170.409	303.33	1.135145	0.081908	0.081696	306.024	44908.8	0.076797	0.192832	1587	93436.1
270	2.000000	1.137405	7.3677e+06	-52139.1	955.819	-29750.4	0.000000	0.000000	7.150825	322.193	NaN	0.000000	0.001641	0.001713	28.0793	83.1953	0.001789	46495.1	2.829550	173.661	321.246	1.137140	0.083956	0.083692	322.193	46495.1	0.078759	0.201530	1598.74	94626
270	2.000000	1.139476	7.3677e+06	-52139.1	955.819	-29750.4	0.000000	0.000000	7.153251	330.808	NaN	0.000000	0.001645	0.001690	28.0785	85.5074	0.001767	48400.5	6.542114	169.511	335.962	1.139120	0.086027	0.085671	330.808	48400.5	0.080901	0.211237	1566.05	96213.8
270	2.000000	1.141323	7.3677e+06	-52139.1	955.819	-29750.4	0.000000	0.000000	7.155934	351.151	NaN	0.000000	0.001649	0.001700	28.0786	87.259	0.001848	47210.9	2.860381	173.717	346.599	1.141074	0.087874	0.087625	351.151	47210.9	0.082295	0.217669	1613.24	92452.2
270	2.000000	1.143372	7.3677e+06	-52139.1	955.82	-29750.4	0.000000	0.000000	7.158525	364.322	NaN	0.000000	0.001638	0.001699	28.0785	90.0128	0.001847	48732.1	8.008427	168.963	360.643	1.142990	0.089923	0.089541	364.322	48732.1	0.084316	0.227150	1603.88	93418.2
270	2.000000	1.145458	7.3677e+06	-52139.1	955.82	-29750.4	0.000000	0.000000	7.161318	381.506	NaN	0.000000	0.001677	0.001693	28.0786	90.9463	0.001840	49433.7	4.683532	171.524	385.871	1.145048	0.092009	0.091600	381.506	49433.7	0.086221	0.236260	1614.77	92918.4
270	2.000000	1.147436	7.3677e+06	-52139.1	955.818	-29750.4	0.000000	0.000000	7.163948	397.359	NaN	0.000000	0.001783	0.001706	28.0792	93.516	0.001737	53829.2	6.807388	169.1	397.512	1.147017	0.093988	0.093568	397.359	53829.2	0.088451	0.247140	1607.83	98928.1
270	2.000000	1.149431	7.3677e+06	-52139.1	955.818	-29750.4	0.000000	0.000000	7.166410	408.718	NaN	0.000000	0.001722	0.001707	28.0797	93.792	0.001755	53439.3	6.448472	169.015	410.828	1.149098	0.095982	0.095650	408.718	53439.3	0.090246	0.256059	1596.19	96485.9
270	2.000000	1.151341	7.3677e+06	-52139.1	955.819	-29750.4	0.000000	0.000000	7.169273	431.898	NaN	0.000000	0.001735	0.001738	28.0797	96.9698	0.001742	55674.3	4.470223	171.425	427.854	1.150999	0.097892	0.097550	431.898	55674.3	0.092074	0.265297	1627.98	98755.7
270	2.000000	1.153505	7.3677e+06	-52139.1	955.819	-29750.4	0.000000	0.000000	7.171832	441.478	NaN	0.000000	0.001700	0.001752	28.0799	99.8612	0.001840	54284.7	11.5209	165.313	442.695	1.152908	0.100057	0.099459	441.478	54284.7	0.093957	0.274975	1605.52	94581.1
270	2.000000	1.155346	7.3677e+06	-52139.1	955.818	-29750.4	0.000000	0.000000	7.174511	461.873	NaN	0.000000	0.001720	0.001760	28.0799	100.782	0.001763	57168.4	6.365822	169.181	459.058	1.154861	0.101897	0.101413	461.873	57168.4	0.095837	0.284799	1621.75	97872.5
270	2.000000	1.157430	7.3677e+06	-52139.1	955.818	-29750.4	0.000000	0.000000	7.177197	476.513	NaN	0.000000	0.001698	0.001760	28.08	103.478	0.001831	56505.6	3.516024	171.892	478.112	1.157021	0.103981	0.103572	476.513	56505.6	0.097656	0.294456	1618.28	95138.1
270	2.000000	1.159355	7.3677e+06	-52139.1	955.819	-29750.4	0.000000	0.000000	7.180051	499.085	NaN	0.000000	0.001669	0.001684	28.08	104.837	0.001860	56367.6	3.971022	171.362	496.761	1.159080	0.105907	0.105631	499.085	56367.6	0.099266	0.303126	1646.46	93538.7
270	2.000000	1.160852	7.3677e+06	-52139.1	955.819	-29750.4	0.000000	0.000000	7.181996	509.996	NaN	0.000000	0.001699	0.001700	28.0797	107.466	0.001805	59536.5	3.748244	-9.350224	503.245	1.160510	0.107403	0.107061	509.996	59536.5	0.100978	0.312478	1632.1	97307.7