File: remote_trans/data/nanoindenter/0828-1/data/Data_2025-08-06,11h17m57s/2025-07-22_16-23-58_1_104.txt
2025-07-22, 16:23:58, 1
Index	Phase	Displacement	Time	Pos X	Pos Y	Pos Z	Rot A	Rot B	Piezo Z	Force A	Force B	Gripper	Voltage A	Voltage B	Temperature	Amplitude force	Amplitude pos	Stiffness	Phase shift	Phase excitation	Force A raw	Displacement raw	HMax	HMax raw	Real Force	Real Stiffness	Contact Depth	Area	Hardness	Reduced Mod.
[#]	[#]	[um]	[s]	[um]	[um]	[um]	[m°]	[m°]	[um]	[uN]	[uN]	[V]	[V]	[V]	[°C]	[uN]	[um]	[N/m]	[°]	[°]	[uN]	[um]	[um]	[um]	[uN]	[N/m]	[um]	[um^2]	[MPa]	[MPa]
104	1.000000	0.002442	7.36605e+06	-43839.1	955.818	-29778.2	0.000000	0.000000	6.002809	-0.071995	NaN	0.000000	0.001513	0.001576	28.1275	0.010848	0.001004	10.8098	-81.7338	-164.715	-0.148904	0.001181	-1.132306	-1.133567	-0.071995	10.8098	-1.127311	-1.165594E+15	6.176692E-17	NaN
104	1.000000	0.012508	7.36605e+06	-43839.1	955.819	-29778.2	0.000000	0.000000	6.012877	-0.032880	NaN	0.000000	0.001540	0.001574	28.089	0.008335	0.001351	6.171522	54.7757	14.8379	-0.046785	0.011011	-1.122240	-1.123736	-0.032880	6.171522	-1.118244	-8.808677E+14	3.732718E-17	NaN
104	1.000000	0.022399	7.36605e+06	-43839.1	955.818	-29778.2	0.000000	0.000000	6.022769	-0.008399	NaN	0.000000	0.001502	0.001658	28.0819	0.094414	0.001740	54.2678	-98.9133	-169.229	-0.053318	0.021088	-1.112349	-1.113660	-0.008399	54.2678	-1.112233	-7.315609E+14	1.148057E-17	NaN
104	1.000000	0.032374	7.36605e+06	-43839.1	955.818	-29778.2	0.000000	0.000000	6.032746	0.037607	NaN	0.000000	0.001534	0.001585	28.1089	0.050642	0.001941	26.086	168.716	15.6347	0.005212	0.031076	-1.102374	-1.103672	0.037607	26.086	-1.103455	-5.577589E+14	-6.742554E-17	NaN
104	1.000000	0.042371	7.36605e+06	-43839.1	955.817	-29778.2	0.000000	0.000000	6.042740	-0.039724	NaN	0.000000	0.001504	0.001578	28.1281	0.136542	0.001951	69.997	-89.6272	-169.657	0.011505	0.041077	-1.092376	-1.093670	-0.039724	69.997	-1.091951	-3.908452E+14	1.016354E-16	NaN
104	1.000000	0.052369	7.36605e+06	-43839.1	955.819	-29778.2	0.000000	0.000000	6.052737	-0.055034	NaN	0.000000	0.001510	0.001582	28.0895	0.052715	0.002017	26.1348	166.667	12.984	-0.009650	0.051006	-1.082378	-1.083742	-0.055034	26.1348	-1.080799	-2.768552E+14	1.987814E-16	NaN
104	1.000000	0.062382	7.36605e+06	-43839.1	955.819	-29778.2	0.000000	0.000000	6.062753	0.003077	NaN	0.000000	0.001482	0.001580	28.0795	0.020332	0.001978	10.2801	-24.6039	-166.799	0.011235	0.061045	-1.072365	-1.073702	0.003077	10.2801	-1.072589	-2.147717E+14	-1.432628E-17	NaN
104	1.000000	0.072395	7.36605e+06	-43839.1	955.818	-29778.2	0.000000	0.000000	6.072766	0.009539	NaN	0.000000	0.001496	0.001572	28.107	0.066540	0.002052	32.4273	-23.3255	14.1364	0.003029	0.071077	-1.062352	-1.063670	0.009539	32.4273	-1.062573	-1.575406E+14	-6.054998E-17	NaN
104	1.000000	0.082402	7.36605e+06	-43839.1	955.817	-29778.2	0.000000	0.000000	6.082772	-0.008503	NaN	0.000000	0.001523	0.001557	28.1263	0.195145	0.001987	98.2022	166.715	-161.965	-0.077620	0.081027	-1.052345	-1.053721	-0.008503	98.2022	-1.052280	-1.145694E+14	7.421735E-17	NaN
104	1.000000	0.092405	7.36605e+06	-43839.1	955.818	-29778.2	0.000000	0.000000	6.092774	-0.014130	NaN	0.000000	0.001481	0.001543	28.0864	0.116923	0.001895	61.7106	159.436	11.4127	-0.081182	0.091037	-1.042343	-1.043710	-0.014130	61.7106	-1.042171	-8.378396E+13	1.686423E-16	NaN
104	1.000000	0.102422	7.36605e+06	-43839.1	955.819	-29778.2	0.000000	0.000000	6.102795	0.062429	NaN	0.000000	0.001491	0.001587	28.0796	0.032821	0.001843	17.8048	-177.132	-163.172	-0.026687	0.101121	-1.032326	-1.033626	0.062429	17.8048	-1.034956	-6.700868E+13	-9.316567E-16	NaN
104	1.000000	0.112392	7.36605e+06	-43839.1	955.819	-29778.2	0.000000	0.000000	6.112763	0.001029	NaN	0.000000	0.001480	0.001630	28.1063	0.046379	0.001862	24.9132	-23.788	13.487	-0.064932	0.111068	-1.022355	-1.023679	0.001029	24.9132	-1.022386	-4.539983E+13	-2.266231E-17	NaN
104	1.000000	0.122410	7.36605e+06	-43839.1	955.818	-29778.2	0.000000	0.000000	6.122780	-0.030322	NaN	0.000000	0.001490	0.001630	28.1268	0.004108	0.002181	1.883319	42.2078	-164.008	-0.032570	0.121107	-1.012337	-1.013640	-0.030322	1.883319	-1.000262	-2.287143E+13	1.325761E-15	NaN
104	1.000000	0.132411	7.36605e+06	-43839.1	955.818	-29778.2	0.000000	0.000000	6.132782	0.000913	NaN	0.000000	0.001492	0.001619	28.0876	0.002690	0.002154	1.248991	92.724	15.3461	-0.066417	0.131056	-1.002336	-1.003692	0.000913	1.248991	-1.002885	-2.480889E+13	-3.681724E-17	NaN
104	1.000000	0.142402	7.36605e+06	-43839.1	955.818	-29778.2	0.000000	0.000000	6.142771	-0.029224	NaN	0.000000	0.001458	0.001597	28.079	0.090129	0.001961	45.9494	152.429	-167.015	-0.077027	0.141157	-0.992346	-0.993590	-0.029224	45.9494	-0.991869	-1.763099E+13	1.657550E-15	NaN
104	1.000000	0.152377	7.36605e+06	-43839.1	955.818	-29778.2	0.000000	0.000000	6.152749	0.020267	NaN	0.000000	0.001507	0.001660	28.1045	0.117184	0.002047	57.2589	104.248	15.3474	0.017787	0.151045	-0.982370	-0.983702	0.020267	57.2589	-0.982636	-1.324087E+13	-1.530623E-15	NaN
104	1.000000	0.162438	7.36605e+06	-43839.1	955.818	-29778.2	0.000000	0.000000	6.162808	-0.012557	NaN	0.000000	0.001494	0.001630	28.1255	0.077637	0.001989	39.0415	-14.2038	-164.409	0.037890	0.161064	-0.972309	-0.973684	-0.012557	39.0415	-0.972068	-9.539712E+12	1.316311E-15	NaN
104	1.000000	0.172467	7.36605e+06	-43839.1	955.818	-29778.2	0.000000	0.000000	6.172838	-0.006581	NaN	0.000000	0.001464	0.001596	28.0879	0.045828	0.001949	23.5121	-40.2132	14.1591	0.016273	0.171086	-0.962280	-0.963661	-0.006581	23.5121	-0.962070	-6.994830E+12	9.407810E-16	NaN
104	1.000000	0.182410	7.36605e+06	-43839.1	955.818	-29778.2	0.000000	0.000000	6.182778	-0.072764	NaN	0.000000	0.001508	0.001587	28.08	0.057455	0.001965	29.2377	149.227	-167.719	-0.060983	0.181158	-0.952337	-0.953589	-0.072764	29.2377	-0.950471	-4.879505E+12	1.491207E-14	NaN
104	1.000000	0.192454	7.36605e+06	-43839.1	955.818	-29778.2	0.000000	0.000000	6.192823	-0.037096	NaN	0.000000	0.001473	0.001588	28.1055	0.053709	0.002014	26.6618	-179.028	14.2765	-0.064057	0.191059	-0.942293	-0.943688	-0.037096	26.6618	-0.941250	-3.664335E+12	1.012346E-14	NaN
104	1.000000	0.202423	7.36605e+06	-43839.1	955.818	-29778.2	0.000000	0.000000	6.202792	-0.031552	NaN	0.000000	0.001505	0.001595	28.127	0.093614	0.001940	48.2539	-113.847	-166.118	0.016584	0.201185	-0.932325	-0.933562	-0.031552	48.2539	-0.931834	-2.734971E+12	1.153656E-14	NaN
104	1.000000	0.212468	7.36605e+06	-43839.1	955.818	-29778.2	0.000000	0.000000	6.212837	-0.030938	NaN	0.000000	0.001504	0.001588	28.088	0.122654	0.002001	61.3103	146.91	11.809	-0.058742	0.211125	-0.922280	-0.923622	-0.030938	61.3103	-0.921901	-2.008507E+12	1.540328E-14	NaN
104	1.000000	0.222447	7.36605e+06	-43839.1	955.817	-29778.2	0.000000	0.000000	6.222818	-0.004392	NaN	0.000000	0.001521	0.001541	28.0796	0.022309	0.002027	11.008	137.5	-165.285	0.039105	0.221141	-0.912300	-0.913607	-0.004392	11.008	-0.912001	-1.476345E+12	2.974945E-15	NaN
104	1.000000	0.232460	7.36605e+06	-43839.1	955.819	-29778.2	0.000000	0.000000	6.232834	0.064562	NaN	0.000000	0.001497	0.001559	28.1056	0.035094	0.002176	16.131	-122.288	11.6694	0.016418	0.231131	-0.902287	-0.903616	0.064562	16.131	-0.905289	-1.198181E+12	-5.388353E-14	NaN
104	1.000000	0.242432	7.36605e+06	-43839.1	955.818	-29778.2	0.000000	0.000000	6.242803	0.006774	NaN	0.000000	0.001488	0.001553	28.1272	0.144114	0.001931	74.6485	-12.647	-164.269	-0.020355	0.241188	-0.892315	-0.893559	0.006774	74.6485	-0.892383	-8.019195E+11	-8.447523E-15	NaN
104	1.000000	0.252476	7.36605e+06	-43839.1	955.818	-29778.2	0.000000	0.000000	6.252845	-0.025008	NaN	0.000000	0.001499	0.001560	28.089	0.023979	0.001980	12.1134	-156.08	14.1704	-0.074174	0.251103	-0.882272	-0.883644	-0.025008	12.1134	-0.880723	-5.578177E+11	4.483168E-14	NaN
104	1.000000	0.262474	7.36605e+06	-43839.1	955.818	-29778.2	0.000000	0.000000	6.262845	0.002347	NaN	0.000000	0.001476	0.001614	28.081	0.052578	0.002091	25.1475	12.658	-161.478	-0.045378	0.261158	-0.872273	-0.873589	0.002347	25.1475	-0.872343	-4.296768E+11	-5.463224E-15	NaN
104	1.000000	0.272494	7.36605e+06	-43839.1	955.818	-29778.2	0.000000	0.000000	6.272865	0.015565	NaN	0.000000	0.001483	0.001601	28.1066	0.088374	0.001982	44.5933	85.3795	14.3945	0.054245	0.271065	-0.862253	-0.863682	0.015565	44.5933	-0.862515	-3.163442E+11	-4.920370E-14	NaN
104	1.000000	0.282484	7.36605e+06	-43839.1	955.818	-29778.2	0.000000	0.000000	6.282853	-0.056213	NaN	0.000000	0.001546	0.001587	28.1281	0.044979	0.002034	22.108	125.672	-162.866	0.031435	0.281194	-0.852263	-0.853553	-0.056213	22.108	-0.850356	-2.165502E+11	2.595829E-13	NaN
104	1.000000	0.292487	7.36605e+06	-43839.1	955.819	-29778.2	0.000000	0.000000	6.292858	0.009121	NaN	0.000000	0.001531	0.001600	28.0891	0.039791	0.001970	20.1946	-172.842	14.4327	0.001028	0.291125	-0.842260	-0.843622	0.009121	20.1946	-0.842599	-1.700214E+11	-5.364424E-14	NaN
104	1.000000	0.302472	7.36605e+06	-43839.1	955.819	-29778.2	0.000000	0.000000	6.302840	-0.061314	NaN	0.000000	0.001538	0.001586	28.0786	0.074135	0.001935	38.317	-115.44	-168.382	-0.076029	0.301190	-0.832275	-0.833558	-0.061314	38.317	-0.831075	-1.186738E+11	5.166574E-13	NaN
104	1.000000	0.312497	7.36606e+06	-43839.1	955.818	-29778.2	0.000000	0.000000	6.312868	0.019449	NaN	0.000000	0.001541	0.001604	28.1049	0.021827	0.002002	10.901	-132.318	14.4551	-0.019632	0.311133	-0.822250	-0.823615	0.019449	10.901	-0.823588	-9.394388E+10	-2.070284E-13	NaN
104	1.000000	0.322495	7.36606e+06	-43839.1	955.819	-29778.2	0.000000	0.000000	6.322867	0.048009	NaN	0.000000	0.001488	0.001579	28.1273	0.055809	0.002032	27.4656	-5.108136	-164.725	-0.014474	0.321163	-0.812253	-0.813584	0.048009	27.4656	-0.813564	-6.869344E+10	-6.988919E-13	NaN
104	1.000000	0.332512	7.36606e+06	-43839.1	955.818	-29778.2	0.000000	0.000000	6.332883	0.008975	NaN	0.000000	0.001516	0.001514	28.0891	0.212444	0.002030	104.639	91.5358	13.1897	0.047448	0.331100	-0.802235	-0.803648	0.008975	104.639	-0.802299	-4.831405E+10	-1.857690E-13	NaN
104	1.000000	0.342508	7.36606e+06	-43839.1	955.818	-29778.2	0.000000	0.000000	6.342879	0.012116	NaN	0.000000	0.001530	0.001536	28.0807	0.081099	0.002011	40.3292	67.3724	-167.159	-0.035088	0.341228	-0.792240	-0.793519	0.012116	40.3292	-0.792465	-3.552708E+10	-3.410471E-13	NaN
104	1.000000	0.352507	7.36606e+06	-43839.1	955.818	-29778.2	0.000000	0.000000	6.352876	-0.025509	NaN	0.000000	0.001501	0.001575	28.1063	0.119403	0.002037	58.627	2.715142	13.4646	0.017571	0.351159	-0.782241	-0.783588	-0.025509	58.627	-0.781914	-2.554134E+10	9.987217E-13	NaN
104	1.000000	0.362504	7.36606e+06	-43839.1	955.818	-29778.2	0.000000	0.000000	6.362876	0.039928	NaN	0.000000	0.001507	0.001566	28.1274	0.020598	0.001928	10.6822	43.7899	-165.696	0.052086	0.361192	-0.772243	-0.773555	0.039928	10.6822	-0.775047	-2.060223E+10	-1.938038E-12	NaN
104	1.000000	0.372513	7.36606e+06	-43839.1	955.818	-29778.2	0.000000	0.000000	6.372885	0.034409	NaN	0.000000	0.001469	0.001567	28.0892	0.034064	0.001914	17.7963	-10.1765	12.1094	0.023724	0.371170	-0.762235	-0.763577	0.034409	17.7963	-0.763685	-1.443530E+10	-2.383676E-12	NaN
104	1.000000	0.382522	7.36606e+06	-43839.1	955.818	-29778.2	0.000000	0.000000	6.382890	-0.068525	NaN	0.000000	0.001502	0.001542	28.0785	0.051198	0.001968	26.0186	-168.209	-168.704	-0.061615	0.381193	-0.752225	-0.753555	-0.068525	26.0186	-0.750250	-9.475916E+9	7.231505E-12	NaN
104	1.000000	0.392537	7.36606e+06	-43839.1	955.818	-29778.2	0.000000	0.000000	6.392908	0.014833	NaN	0.000000	0.001535	0.001514	28.1038	0.083485	0.001923	43.4148	-36.6127	13.1934	0.063543	0.391166	-0.742211	-0.743581	0.014833	43.4148	-0.742467	-7.424327E+9	-1.997865E-12	NaN
104	1.000000	0.402534	7.36606e+06	-43839.1	955.818	-29778.2	0.000000	0.000000	6.402906	0.031230	NaN	0.000000	0.001490	0.001535	28.1266	0.049372	0.001894	26.0676	-164.638	-162.017	0.053981	0.401310	-0.732213	-0.733437	0.031230	26.0676	-0.733112	-5.536263E+9	-5.640912E-12	NaN
104	1.000000	0.412535	7.36606e+06	-43839.1	955.818	-29778.2	0.000000	0.000000	6.412906	0.024011	NaN	0.000000	0.001485	0.001565	28.0879	0.060761	0.002014	30.1714	-125.578	12.1703	-0.001132	0.411183	-0.722213	-0.723565	0.024011	30.1714	-0.722809	-4.006669E+9	-5.992678E-12	NaN
104	1.000000	0.422531	7.36606e+06	-43839.1	955.818	-29778.2	0.000000	0.000000	6.422901	-0.002519	NaN	0.000000	0.001526	0.001581	28.0797	0.045179	0.001859	24.3067	136.955	-168.493	-0.044372	0.421256	-0.712217	-0.713491	-0.002519	24.3067	-0.712139	-2.865744E+9	8.790826E-13	NaN
104	1.000000	0.432513	7.36606e+06	-43839.1	955.818	-29778.2	0.000000	0.000000	6.432882	-0.033262	NaN	0.000000	0.001515	0.001576	28.1045	0.061395	0.002018	30.4276	-57.0073	13.9547	-0.012867	0.431158	-0.702234	-0.703589	-0.033262	30.4276	-0.701414	-2.045721E+9	1.625953E-11	NaN
104	1.000000	0.442568	7.36606e+06	-43839.1	955.819	-29778.2	0.000000	0.000000	6.442940	0.023700	NaN	0.000000	0.001524	0.001583	28.1276	0.108045	0.002130	50.714	-81.9775	-165.184	0.041957	0.441213	-0.692179	-0.693534	0.023700	50.714	-0.692530	-1.546987E+9	-1.531992E-11	NaN
104	1.000000	0.452505	7.36606e+06	-43839.1	955.818	-29778.2	0.000000	0.000000	6.452876	0.012982	NaN	0.000000	0.001535	0.001583	28.0887	0.091306	0.002108	43.3223	125.039	14.0014	0.018883	0.451174	-0.682243	-0.683574	0.012982	43.3223	-0.682468	-1.127067E+9	-1.151882E-11	NaN
104	1.000000	0.462537	7.36606e+06	-43839.1	955.819	-29778.2	0.000000	0.000000	6.462905	-0.062628	NaN	0.000000	0.001536	0.001592	28.0778	0.123396	0.002202	56.0467	154.54	-166.082	-0.085912	0.461263	-0.672211	-0.673484	-0.062628	56.0467	-0.671373	-7.946521E+8	7.881171E-11	NaN
104	1.000000	0.472564	7.36606e+06	-43839.1	955.818	-29778.2	0.000000	0.000000	6.472937	0.059038	NaN	0.000000	0.001501	0.001542	28.1026	0.126745	0.001909	66.4043	178.368	14.2378	-0.040111	0.471223	-0.662183	-0.663525	0.059038	66.4043	-0.662850	-6.074419E+8	-9.719138E-11	NaN
104	1.000000	0.482540	7.36606e+06	-43839.1	955.818	-29778.2	0.000000	0.000000	6.482910	-0.005041	NaN	0.000000	0.001524	0.001562	28.1268	0.066327	0.001993	33.2755	-51.3831	-167.336	0.008694	0.481271	-0.652208	-0.653476	-0.005041	33.2755	-0.652094	-4.326558E+8	1.165123E-11	NaN
104	1.000000	0.492598	7.36606e+06	-43839.1	955.819	-29778.2	0.000000	0.000000	6.492966	-0.059509	NaN	0.000000	0.001501	0.001573	28.0886	0.002011	0.002009	1.001058	44.4058	10.195	0.011483	0.491214	-0.642149	-0.643533	-0.059509	1.001058	-0.597565	-7.707558E+7	7.720825E-10	NaN
104	1.000000	0.502589	7.36606e+06	-43839.1	955.818	-29778.2	0.000000	0.000000	6.502959	-0.006076	NaN	0.000000	0.001518	0.001569	28.0809	0.098053	0.002113	46.3996	140.531	-166.405	-0.020219	0.501313	-0.632158	-0.633434	-0.006076	46.3996	-0.632060	-2.297807E+8	2.644053E-11	NaN
104	1.000000	0.512575	7.36606e+06	-43839.1	955.817	-29778.2	0.000000	0.000000	6.512944	-0.030591	NaN	0.000000	0.001528	0.001569	28.1054	0.054454	0.001811	30.0664	-144.518	13.2634	0.031952	0.511179	-0.622172	-0.623569	-0.030591	30.0664	-0.621409	-1.640592E+8	1.864627E-10	NaN
104	1.000000	0.522590	7.36606e+06	-43839.1	955.818	-29778.2	0.000000	0.000000	6.522961	0.015057	NaN	0.000000	0.001505	0.001602	28.1298	0.059717	0.002144	27.8535	71.1465	-168.06	0.008929	0.521225	-0.612158	-0.613522	0.015057	27.8535	-0.612563	-1.239863E+8	-1.214443E-10	NaN
104	1.000000	0.532572	7.36606e+06	-43839.1	955.818	-29778.2	0.000000	0.000000	6.532944	0.017392	NaN	0.000000	0.001543	0.001583	28.0917	0.072201	0.002047	35.2727	-35.3718	14.4337	0.007728	0.531268	-0.602175	-0.603480	0.017392	35.2727	-0.602545	-9.026170E+7	-1.926811E-10	NaN
104	1.000000	0.542588	7.36606e+06	-43839.1	955.818	-29778.2	0.000000	0.000000	6.542961	0.058269	NaN	0.000000	0.001591	0.001615	28.0805	0.015867	0.002029	7.820342	42.4193	-161.731	0.036402	0.541321	-0.592159	-0.593426	0.058269	7.820342	-0.597747	-7.752370E+7	-7.516244E-10	NaN
104	1.000000	0.552612	7.36606e+06	-43839.1	955.819	-29778.2	0.000000	0.000000	6.552980	-0.047741	NaN	0.000000	0.001580	0.001606	28.1043	0.009675	0.002008	4.816996	-176.273	12.4157	-0.046552	0.551199	-0.582135	-0.583548	-0.047741	4.816996	-0.574702	-3.728950E+7	1.280286E-9	NaN
104	1.000000	0.562593	7.36606e+06	-43839.1	955.818	-29778.2	0.000000	0.000000	6.562962	-0.028299	NaN	0.000000	0.001601	0.001613	28.1279	0.029145	0.001912	15.246	-145.738	-164.493	-0.050721	0.561310	-0.572154	-0.573438	-0.028299	15.246	-0.570762	-3.289751E+7	8.602112E-10	NaN
104	1.000000	0.572572	7.36606e+06	-43839.1	955.819	-29778.2	0.000000	0.000000	6.572944	0.029552	NaN	0.000000	0.001617	0.001636	28.0901	0.079881	0.002007	39.793	-100.342	11.8256	-0.067300	0.571279	-0.562175	-0.563469	0.029552	39.793	-0.562732	-2.547793E+7	-1.159891E-9	NaN
104	1.000000	0.582601	7.36606e+06	-43839.1	955.818	-29778.2	0.000000	0.000000	6.582971	-0.012622	NaN	0.000000	0.001594	0.001599	28.08	0.044566	0.002001	22.2716	-55.9358	-164.352	0.012936	0.581273	-0.552146	-0.553474	-0.012622	22.2716	-0.551721	-1.793867E+7	7.036240E-10	NaN
104	1.000000	0.592605	7.36606e+06	-43839.1	955.818	-29778.2	0.000000	0.000000	6.592976	0.011542	NaN	0.000000	0.001608	0.001595	28.1045	0.031730	0.002008	15.7995	-128.882	14.9796	0.043699	0.591220	-0.542142	-0.543528	0.011542	15.7995	-0.542690	-1.344804E+7	-8.582362E-10	NaN
104	1.000000	0.602629	7.36606e+06	-43839.1	955.818	-29778.2	0.000000	0.000000	6.603000	0.028326	NaN	0.000000	0.001539	0.001577	28.1291	0.084124	0.001936	43.4613	-110.35	-167.853	0.017845	0.601288	-0.532119	-0.533459	0.028326	43.4613	-0.532608	-9.74504e+06	-2.906677E-9	NaN
104	1.000000	0.612616	7.36606e+06	-43839.1	955.818	-29778.2	0.000000	0.000000	6.612987	0.015019	NaN	0.000000	0.001527	0.001541	28.0917	0.100140	0.001934	51.7803	122.916	13.9521	0.019804	0.611291	-0.522132	-0.523457	0.015019	51.7803	-0.522349	-7.01885e+06	-2.139786E-9	NaN
104	1.000000	0.622586	7.36606e+06	-43839.1	955.819	-29778.2	0.000000	0.000000	6.622959	0.058533	NaN	0.000000	0.001540	0.001581	28.0805	0.112659	0.002023	55.6861	-127.305	-167.802	0.000422	0.621320	-0.512161	-0.513427	0.058533	55.6861	-0.512950	-5.19389e+06	-1.126957E-8	NaN
104	1.000000	0.632592	7.36606e+06	-43839.1	955.819	-29778.2	0.000000	0.000000	6.632962	-0.008216	NaN	0.000000	0.001519	0.001583	28.1021	0.038740	0.001868	20.7362	-178.369	16.3914	0.008188	0.631261	-0.502156	-0.503486	-0.008216	20.7362	-0.501858	-3.63866e+06	2.257955E-9	NaN
104	1.000000	0.642648	7.36606e+06	-43839.1	955.818	-29778.2	0.000000	0.000000	6.643019	0.005841	NaN	0.000000	0.001560	0.001575	28.127	0.039228	0.002119	18.5141	52.9781	-165.003	-0.056564	0.641324	-0.492099	-0.493423	0.005841	18.5141	-0.492336	-2.67935e+06	-2.180104E-9	NaN
104	1.000000	0.652622	7.36606e+06	-43839.1	955.818	-29778.2	0.000000	0.000000	6.652993	-0.000946	NaN	0.000000	0.001550	0.001594	28.0893	0.071809	0.002066	34.7627	104.675	16.2483	0.037291	0.651315	-0.482125	-0.483432	-0.000946	34.7627	-0.482105	-1.92747e+06	4.908997E-10	NaN
104	1.000000	0.662632	7.36606e+06	-43839.1	955.818	-29778.2	0.000000	0.000000	6.663004	0.036783	NaN	0.000000	0.001528	0.001608	28.0785	0.082007	0.001865	43.9735	-162.678	-167.106	-0.015366	0.661303	-0.472115	-0.473444	0.036783	43.9735	-0.472743	-1.42516e+06	-2.580997E-8	NaN
104	1.000000	0.672617	7.36606e+06	-43839.1	955.819	-29778.2	0.000000	0.000000	6.672993	0.124243	NaN	0.000000	0.001502	0.001569	28.1032	0.072453	0.002078	34.8672	169.323	15.4588	0.113748	0.671261	-0.462130	-0.463486	0.124243	34.8672	-0.464803	-1.10276e+06	-1.126658E-7	NaN
104	1.000000	0.682658	7.36606e+06	-43839.1	955.818	-29778.2	0.000000	0.000000	6.683028	-0.007484	NaN	0.000000	0.001535	0.001580	28.1281	0.056130	0.001967	28.5308	120.804	-164.023	0.021661	0.681317	-0.452090	-0.453430	-0.007484	28.5308	-0.451893	-726094	1.030689E-8	NaN
104	1.000000	0.692665	7.36606e+06	-43839.1	955.818	-29778.2	0.000000	0.000000	6.693037	0.045528	NaN	0.000000	0.001524	0.001576	28.0911	0.178042	0.002076	85.7637	172.877	13.7714	0.007752	0.691332	-0.442082	-0.443415	0.045528	85.7637	-0.442481	-535012	-8.509663E-8	NaN
104	1.000000	0.702671	7.36606e+06	-43839.1	955.819	-29778.2	0.000000	0.000000	6.703043	0.030478	NaN	0.000000	0.001532	0.001524	28.0784	0.067426	0.002128	31.6804	-4.109601	-164.272	0.046141	0.701331	-0.432076	-0.433416	0.030478	31.6804	-0.432798	-390508	-7.804816E-8	NaN
104	1.000000	0.712655	7.36606e+06	-43839.1	955.818	-29778.2	0.000000	0.000000	6.713025	-0.005941	NaN	0.000000	0.001551	0.001539	28.1021	0.047259	0.002077	22.7537	19.0713	13.495	0.021555	0.711391	-0.422093	-0.423356	-0.005941	22.7537	-0.421897	-273724	2.170357E-8	NaN
104	1.000000	0.722669	7.36606e+06	-43839.1	955.817	-29778.2	0.000000	0.000000	6.723037	-0.046762	NaN	0.000000	0.001495	0.001552	28.1271	0.003534	0.002035	1.736259	111.828	-169.969	-0.107509	0.721342	-0.412079	-0.413406	-0.046762	1.736259	-0.391879	-102340	4.569253E-7	NaN
104	1.000000	0.732652	7.36606e+06	-43839.1	955.819	-29778.2	0.000000	0.000000	6.733025	0.073765	NaN	0.000000	0.001514	0.001571	28.0899	0.084006	0.001922	43.706	-68.85	12.8336	0.035487	0.731287	-0.402096	-0.403461	0.073765	43.706	-0.403361	-149248	-4.942412E-7	NaN
104	1.000000	0.742678	7.36606e+06	-43839.1	955.818	-29778.2	0.000000	0.000000	6.743048	-0.008107	NaN	0.000000	0.001513	0.001573	28.0794	0.073309	0.001984	36.9442	135.274	-167.649	-0.006342	0.741351	-0.392069	-0.393397	-0.008107	36.9442	-0.391905	-102424	7.915343E-8	NaN
104	1.000000	0.752701	7.36606e+06	-43839.1	955.818	-29778.2	0.000000	0.000000	6.753072	0.015923	NaN	0.000000	0.001508	0.001584	28.1024	0.092674	0.002074	44.6803	133.68	12.552	-0.074142	0.751333	-0.382047	-0.383415	0.015923	44.6803	-0.382314	-74659.4	-2.132715E-7	NaN
104	1.000000	0.762691	7.36606e+06	-43839.1	955.819	-29778.2	0.000000	0.000000	6.763060	-0.040845	NaN	0.000000	0.001509	0.001546	28.1283	0.051906	0.001963	26.4409	12.6447	-163.888	0.005052	0.761378	-0.372056	-0.373369	-0.040845	26.4409	-0.370898	-51174.2	7.981555E-7	NaN
104	1.000000	0.772685	7.36606e+06	-43839.1	955.818	-29778.2	0.000000	0.000000	6.773057	0.038839	NaN	0.000000	0.001494	0.001559	28.0925	0.052266	0.001930	27.0851	-103.979	15.9223	-0.012581	0.771304	-0.362062	-0.363443	0.038839	27.0851	-0.363138	-39552.4	-9.819693E-7	NaN
104	1.000000	0.782685	7.36606e+06	-43839.1	955.819	-29778.2	0.000000	0.000000	6.783054	-0.045241	NaN	0.000000	0.001503	0.001581	28.0797	0.069362	0.002109	32.8831	35.1245	-166.531	-3.122482E-5	0.781336	-0.352062	-0.353412	-0.045241	32.8831	-0.351030	-26421	1.712321E-6	NaN
104	1.000000	0.792695	7.36606e+06	-43839.1	955.818	-29778.2	0.000000	0.000000	6.793065	-0.002460	NaN	0.000000	0.001531	0.001537	28.1021	0.101478	0.002063	49.1904	-144.833	12.4322	-0.108297	0.791303	-0.342052	-0.343444	-0.002460	49.1904	-0.342015	-19539.4	1.259004E-7	NaN
104	1.000000	0.802736	7.36606e+06	-43839.1	955.819	-29778.2	0.000000	0.000000	6.803106	-0.003993	NaN	0.000000	0.001495	0.001554	28.1292	0.140313	0.002073	67.675	117.607	-167.455	-0.008869	0.801425	-0.332012	-0.333323	-0.003993	67.675	-0.331968	-13939.6	2.864538E-7	NaN
104	1.000000	0.812695	7.36606e+06	-43839.1	955.818	-29778.2	0.000000	0.000000	6.813063	-0.064387	NaN	0.000000	0.001508	0.001551	28.0916	0.054268	0.002053	26.432	-64.2799	11.5225	-0.008283	0.811293	-0.322053	-0.323455	-0.064387	26.432	-0.320226	-9374.75	6.868140E-6	NaN
104	1.000000	0.822690	7.36606e+06	-43839.1	955.818	-29778.2	0.000000	0.000000	6.823062	0.023873	NaN	0.000000	0.001532	0.001563	28.0809	0.059725	0.001946	30.6982	-36.1409	-165.215	0.140860	0.821365	-0.312057	-0.313382	0.023873	30.6982	-0.312641	-7246.09	-3.294605E-6	NaN
104	1.000000	0.832673	7.36606e+06	-43839.1	955.819	-29778.2	0.000000	0.000000	6.833042	-0.032589	NaN	0.000000	0.001545	0.001604	28.1042	0.107449	0.001976	54.3714	7.949559	14.0555	0.047997	0.831318	-0.302075	-0.303430	-0.032589	54.3714	-0.301625	-4975.24	6.550264E-6	NaN
104	1.000000	0.842740	7.36606e+06	-43839.1	955.818	-29778.2	0.000000	0.000000	6.843114	0.074111	NaN	0.000000	0.001537	0.001635	28.1298	0.053172	0.002136	24.8965	60.0292	-168.166	0.031227	0.841394	-0.292007	-0.293353	0.074111	24.8965	-0.294240	-3861.29	-1.919323E-5	NaN
104	1.000000	0.852742	7.36606e+06	-43839.1	955.819	-29778.2	0.000000	0.000000	6.853117	0.111093	NaN	0.000000	0.001507	0.001609	28.0913	0.028129	0.002051	13.714	10.1344	15.1698	0.117023	0.851383	-0.282005	-0.283364	0.111093	13.714	-0.288081	-3122.67	-3.557636E-5	NaN
104	1.000000	0.862728	7.36606e+06	-43839.1	955.819	-29778.2	0.000000	0.000000	6.863099	0.001287	NaN	0.000000	0.001510	0.001597	28.0795	0.082166	0.002091	39.2947	125.936	-166.577	0.007384	0.861418	-0.272019	-0.273329	0.001287	39.2947	-0.272044	-1788.91	-7.196821E-7	NaN
104	1.000000	0.872713	7.36606e+06	-43839.1	955.818	-29778.2	0.000000	0.000000	6.873083	-0.018880	NaN	0.000000	0.001513	0.001572	28.1033	0.033730	0.001841	18.3217	63.0158	14.7983	0.069359	0.871387	-0.262034	-0.263360	-0.018880	18.3217	-0.261261	-1225.28	1.540870E-5	NaN
104	1.000000	0.882737	7.36606e+06	-43839.1	955.819	-29778.2	0.000000	0.000000	6.883107	-0.003213	NaN	0.000000	0.001506	0.001574	28.1286	0.078871	0.001991	39.6104	35.0206	-169.081	-0.036411	0.881422	-0.252011	-0.253326	-0.003213	39.6104	-0.251950	-881.246	3.645750E-6	NaN
104	1.000000	0.892736	7.36606e+06	-43839.1	955.818	-29778.2	0.000000	0.000000	6.893109	0.042901	NaN	0.000000	0.001556	0.001571	28.0909	0.050152	0.001908	26.2852	-7.007225	14.508	-0.043719	0.891357	-0.242011	-0.243390	0.042901	26.2852	-0.243235	-645.654	-6.644550E-5	NaN
104	1.000000	0.902727	7.36606e+06	-43839.1	955.819	-29778.2	0.000000	0.000000	6.903098	0.007568	NaN	0.000000	0.001546	0.001606	28.08	0.087902	0.002189	40.1593	157.129	-162.707	0.003327	0.901388	-0.232020	-0.233360	0.007568	40.1593	-0.232161	-433.117	-1.747243E-5	NaN
104	1.000000	0.912739	7.36606e+06	-43839.1	955.818	-29778.2	0.000000	0.000000	6.913106	-0.070243	NaN	0.000000	0.001534	0.001583	28.1031	0.009604	0.001847	5.199581	103.769	15.503	-0.059114	0.911432	-0.222008	-0.223315	-0.070243	5.199581	-0.211877	-205.669	0.000342	NaN
104	1.000000	0.922741	7.36606e+06	-43839.1	955.817	-29778.2	0.000000	0.000000	6.923115	0.084830	NaN	0.000000	0.001553	0.001603	28.1285	0.133444	0.002172	61.4317	-38.8093	-164.364	0.096670	0.921407	-0.212006	-0.213340	0.084830	61.4317	-0.213042	-214.773	-0.000395	NaN
104	1.000000	0.932748	7.36606e+06	-43839.1	955.818	-29778.2	0.000000	0.000000	6.933119	0.016783	NaN	0.000000	0.001535	0.001587	28.0912	0.068199	0.002035	33.5108	162.968	16.5806	0.031531	0.931365	-0.202000	-0.203382	0.016783	33.5108	-0.202375	-144.1	-0.000116	NaN
104	1.000000	0.942782	7.36606e+06	-43839.1	955.818	-29778.2	0.000000	0.000000	6.943156	0.074324	NaN	0.000000	0.001571	0.001577	28.0774	0.154261	0.001945	79.309	58.3034	-164.657	0.082029	0.941479	-0.191965	-0.193268	0.074324	79.309	-0.192668	-99.654	-0.000746	NaN
104	1.000000	0.952767	7.36606e+06	-43839.1	955.818	-29778.2	0.000000	0.000000	6.953136	-0.033935	NaN	0.000000	0.001502	0.001553	28.1008	0.042809	0.001847	23.1796	-131.112	13.442	0.021122	0.951454	-0.181981	-0.183294	-0.033935	23.1796	-0.180883	-63.1643	0.000537	NaN
104	1.000000	0.962757	7.36606e+06	-43839.1	955.818	-29778.2	0.000000	0.000000	6.963126	-0.030011	NaN	0.000000	0.001567	0.001555	28.1277	0.075222	0.002156	34.8844	121.143	-167.495	0.071526	0.961440	-0.171990	-0.173307	-0.030011	34.8844	-0.171345	-43.3447	0.000692	NaN
104	1.000000	0.972758	7.36606e+06	-43839.1	955.818	-29778.2	0.000000	0.000000	6.973127	-0.029376	NaN	0.000000	0.001565	0.001569	28.0903	0.093215	0.002010	46.3787	102.174	13.5137	-0.050030	0.971437	-0.161990	-0.163310	-0.029376	46.3787	-0.161515	-29.1644	0.001007	NaN
104	1.000000	0.982783	7.36606e+06	-43839.1	955.818	-29778.2	0.000000	0.000000	6.983154	0.020204	NaN	0.000000	0.001583	0.001572	28.0788	0.072384	0.002020	35.8279	2.551829	-166.837	0.028981	0.981490	-0.151964	-0.153258	0.020204	35.8279	-0.152387	-20.0172	-0.001009	NaN
104	1.000000	0.992763	7.36606e+06	-43839.1	955.819	-29778.2	0.000000	0.000000	6.993137	0.097312	NaN	0.000000	0.001546	0.001544	28.1022	0.073435	0.001931	38.0309	97.0041	13.3733	0.027670	0.991427	-0.141985	-0.143320	0.097312	38.0309	-0.143904	-13.9911	-0.006955	NaN
104	1.000000	1.002753	7.36606e+06	-43839.1	955.819	-29778.2	0.000000	0.000000	7.003121	-0.057640	NaN	0.000000	0.001579	0.001541	28.129	0.102413	0.002050	49.9576	161.087	-162.751	0.035656	1.001477	-0.131994	-0.133270	-0.057640	49.9576	-0.131129	-8.014834	0.007192	NaN
104	1.000000	1.012761	7.36606e+06	-43839.1	955.819	-29778.2	0.000000	0.000000	7.013130	-0.044762	NaN	0.000000	0.001575	0.001560	28.0912	0.056683	0.002079	27.2694	91.6541	14.0157	-0.069253	1.011389	-0.121986	-0.123358	-0.044762	27.2694	-0.120755	-5.003778	0.008946	NaN
104	1.000000	1.022772	7.36606e+06	-43839.1	955.819	-29778.2	0.000000	0.000000	7.023140	-0.045792	NaN	0.000000	0.001550	0.001535	28.0779	0.030860	0.001986	15.5365	169.93	-164.862	-0.071985	1.021411	-0.111976	-0.113336	-0.045792	15.5365	-0.109765	-2.971116	0.015412	NaN
104	1.000000	1.032784	7.36606e+06	-43839.1	955.819	-29778.2	0.000000	0.000000	7.033156	0.045896	NaN	0.000000	0.001564	0.001579	28.1002	0.065672	0.001973	33.284	14.2383	11.0416	0.046487	1.031415	-0.101963	-0.103333	0.045896	33.284	-0.102997	-2.126652	-0.021581	NaN
104	1.000000	1.042797	7.36606e+06	-43839.1	955.82	-29778.2	0.000000	0.000000	7.043166	-0.048918	NaN	0.000000	0.001561	0.001525	28.1289	0.062207	0.001858	33.4783	143.016	-164.427	-0.044102	1.041478	-0.091950	-0.093269	-0.048918	33.4783	-0.090854	-1.131911	0.043217	NaN
104	1.000000	1.052813	7.36606e+06	-43839.1	955.82	-29778.2	0.000000	0.000000	7.053181	-0.053937	NaN	0.000000	0.001553	0.001568	28.0925	0.077765	0.002044	38.048	38.551	17.8975	-0.012150	1.051455	-0.081935	-0.083293	-0.053937	38.048	-0.080872	-0.650756	0.082884	NaN
104	1.000000	1.062790	7.36606e+06	-43839.1	955.819	-29778.2	0.000000	0.000000	7.063160	-0.005844	NaN	0.000000	0.001557	0.001593	28.0797	0.152347	0.001948	78.1948	-165.799	-166.777	-0.040492	1.061472	-0.071957	-0.073276	-0.005844	78.1948	-0.071901	-0.383251	0.015249	NaN
104	1.000000	1.072780	7.36606e+06	-43839.1	955.819	-29778.2	0.000000	0.000000	7.073150	0.007213	NaN	0.000000	0.001519	0.001555	28.1028	0.063117	0.002099	30.0697	153.642	16.2677	0.050573	1.071428	-0.061968	-0.063319	0.007213	30.0697	-0.062148	-0.207336	-0.034787	NaN
104	1.000000	1.082812	7.36606e+06	-43839.1	955.82	-29778.2	0.000000	0.000000	7.083181	-0.029493	NaN	0.000000	0.001515	0.001614	28.1302	0.033241	0.001955	17.0035	53.1203	-167.902	-0.069364	1.081485	-0.051936	-0.053262	-0.029493	17.0035	-0.050635	-0.095369	0.309249	NaN
104	1.000000	1.092802	7.36606e+06	-43839.1	955.819	-29778.2	0.000000	0.000000	7.093170	-0.046293	NaN	0.000000	0.001530	0.001586	28.0937	0.095522	0.001973	48.403	-50.9145	12.6744	-0.085363	1.091455	-0.041945	-0.043292	-0.046293	48.403	-0.041228	-0.049286	0.939265	NaN
104	1.000000	1.102825	7.36606e+06	-43839.1	955.819	-29778.2	0.000000	0.000000	7.103195	-0.010661	NaN	0.000000	0.001524	0.001593	28.0794	0.156215	0.002013	77.5919	-35.886	-164.03	0.063765	1.101530	-0.031923	-0.033218	-0.010661	77.5919	-0.031820	-0.025898	0.411669	NaN
104	1.000000	1.112822	7.36606e+06	-43839.1	955.819	-29778.2	0.000000	0.000000	7.113194	0.053725	NaN	0.000000	0.001525	0.001584	28.1012	0.104342	0.002075	50.2921	172.774	13.7658	-0.001195	1.111458	-0.021926	-0.023289	0.053725	50.2921	-0.022727	-0.014738	-3.645493	NaN
104	1.000000	1.122821	7.36606e+06	-43839.1	955.818	-29778.2	0.000000	0.000000	7.123190	-0.016737	NaN	0.000000	0.001533	0.001608	28.1289	0.068207	0.002019	33.7899	-41.6424	-163.095	0.031091	1.121519	-0.011927	-0.013229	-0.016737	33.7899	-0.011555	-0.007275	2.300675	NaN
104	1.000000	1.132833	7.36606e+06	-43839.1	955.82	-29778.2	0.000000	0.000000	7.133203	-0.027960	NaN	0.000000	0.001504	0.001569	28.0918	0.068775	0.002103	32.7001	34.2344	14.2348	-0.085949	1.131479	-0.001914	-0.003268	-0.027960	32.7001	-0.001273	-0.000928	30.1199	NaN
104	1.000000	1.142718	7.36606e+06	-43839.1	955.819	-29778.2	0.000000	0.000000	7.143393	7.422341	NaN	0.000000	0.001518	0.001556	28.0804	7.146456	0.001727	4137.58	9.575287	-171.391	5.896295	1.141473	0.007970	0.006725	7.422341	4137.58	0.006625	0.005666	1310.01	50221.2
104	2.000000	1.145947	7.36606e+06	-43839.1	955.819	-29778.2	0.000000	0.000000	7.146786	11.4086	NaN	0.000000	0.001517	0.001581	28.1017	10.6678	0.001545	6906.66	5.304150	6.290319	9.957632	1.145558	0.011199	0.010811	11.4086	6906.66	0.009960	0.009137	1248.57	66013.3
104	2.000000	1.148379	7.36606e+06	-43839.1	955.82	-29778.2	0.000000	0.000000	7.149343	14.4255	NaN	0.000000	0.001555	0.001563	28.1303	14.1136	0.001900	7427.88	8.426788	-175.332	13.2575	1.148149	0.013632	0.013402	14.4255	7427.88	0.012175	0.011701	1232.87	62738
104	2.000000	1.150968	7.36606e+06	-43839.1	955.82	-29778.2	0.000000	0.000000	7.152057	17.4714	NaN	0.000000	0.001521	0.001600	28.0946	16.3892	0.001753	9347.95	5.791515	3.938918	17.3411	1.150587	0.016221	0.015840	17.4714	9347.95	0.014819	0.015045	1161.29	69629.9
104	2.000000	1.153395	7.36606e+06	-43839.1	955.82	-29778.2	0.000000	0.000000	7.154701	22.7557	NaN	0.000000	0.001522	0.001570	28.0786	18.3085	0.001695	10801.8	7.946328	-178.416	22.0761	1.153044	0.018648	0.018297	22.7557	10801.8	0.017068	0.018142	1254.29	73269.7
104	2.000000	1.155873	7.36606e+06	-43839.1	955.82	-29778.2	0.000000	0.000000	7.157382	27.6884	NaN	0.000000	0.001538	0.001594	28.0995	20.86	0.001868	11164	4.147707	5.037450	27.6591	1.155644	0.021126	0.020897	27.6884	11164	0.019266	0.021402	1293.74	69721.9
104	2.000000	1.158369	7.36606e+06	-43839.1	955.82	-29778.2	0.000000	0.000000	7.160185	35.1613	NaN	0.000000	0.001529	0.001581	28.1287	23.8464	0.001843	12937.9	5.576514	-178.617	34.3891	1.158153	0.023622	0.023405	35.1613	12937.9	0.021583	0.025092	1401.3	74622.8
104	2.000000	1.160929	7.36606e+06	-43839.1	955.82	-29778.2	0.000000	0.000000	7.162997	41.2861	NaN	0.000000	0.001528	0.001572	28.0909	25.2019	0.001681	14992.5	7.036945	-0.321436	40.6658	1.160496	0.026182	0.025749	41.2861	14992.5	0.024116	0.029428	1402.96	79848.7
104	2.000000	1.163401	7.36606e+06	-43839.1	955.819	-29778.2	0.000000	0.000000	7.165522	42.5837	NaN	0.000000	0.001556	0.001558	28.0799	27.7534	0.001746	15896.1	4.774675	179.729	44.4943	1.163153	0.028654	0.028406	42.5837	15896.1	0.026645	0.034076	1249.69	78676
104	2.000000	1.165835	7.36606e+06	-43839.1	955.819	-29778.2	0.000000	0.000000	7.168190	48.291	NaN	0.000000	0.001538	0.001521	28.1002	31.0806	0.001814	17135.7	5.339015	-1.099201	46.15	1.165491	0.031088	0.030743	48.291	17135.7	0.028974	0.038644	1249.63	79640.3
104	2.000000	1.168328	7.36606e+06	-43839.1	955.819	-29778.2	0.000000	0.000000	7.171025	56.6022	NaN	0.000000	0.001561	0.001565	28.1301	32.9756	0.001876	17582.2	2.061984	-177.592	54.5114	1.168119	0.033580	0.033371	56.6022	17582.2	0.031166	0.043195	1310.4	77291.4
104	2.000000	1.170845	7.36606e+06	-43839.1	955.819	-29778.2	0.000000	0.000000	7.173927	65.9709	NaN	0.000000	0.001491	0.001595	28.0929	35.0657	0.001716	20429.9	5.428043	-3.070573	62.7258	1.170558	0.036097	0.035810	65.9709	20429.9	0.033676	0.048707	1354.44	84575.3
104	2.000000	1.173369	7.36606e+06	-43839.1	955.819	-29778.2	0.000000	0.000000	7.176833	75.2591	NaN	0.000000	0.001532	0.001585	28.0784	37.3132	0.001794	20793.9	6.084725	177.611	74.1366	1.173052	0.038622	0.038305	75.2591	20793.9	0.035907	0.053880	1396.8	81845.8
104	2.000000	1.175851	7.36606e+06	-43839.1	955.819	-29778.2	0.000000	0.000000	7.179656	83.5784	NaN	0.000000	0.001511	0.001586	28.0995	39.9474	0.001829	21836.3	4.786975	-1.785853	82.8291	1.175423	0.041103	0.040676	83.5784	21836.3	0.038233	0.059541	1403.72	81760.9
104	2.000000	1.178311	7.36606e+06	-43839.1	955.819	-29778.2	0.000000	0.000000	7.182521	93.3962	NaN	0.000000	0.001541	0.001575	28.1285	42.5163	0.001776	23938.8	4.916562	175.968	90.9047	1.178031	0.043564	0.043284	93.3962	23938.8	0.040638	0.065687	1421.84	85336.8
104	2.000000	1.180858	7.36606e+06	-43839.1	955.819	-29778.2	0.000000	0.000000	7.185553	105.195	NaN	0.000000	0.001513	0.001586	28.0905	44.2615	0.001810	24455.9	5.878398	-3.517547	103.202	1.180518	0.046111	0.045771	105.195	24455.9	0.042885	0.071697	1467.23	83446.3
104	2.000000	1.183380	7.36606e+06	-43839.1	955.82	-29778.2	0.000000	0.000000	7.188428	113.806	NaN	0.000000	0.001521	0.001614	28.0784	46.7511	0.001757	26604.6	6.002200	174.525	114.966	1.183047	0.048632	0.048299	113.806	26604.6	0.045424	0.078795	1444.32	86592.3
104	2.000000	1.185817	7.36606e+06	-43839.1	955.819	-29778.2	0.000000	0.000000	7.191405	126.94	NaN	0.000000	0.001500	0.001584	28.101	49.853	0.001862	26769	3.634736	-1.399942	124.173	1.185365	0.051070	0.050618	126.94	26769	0.047513	0.084882	1495.48	83945.4
104	2.000000	1.188343	7.36606e+06	-43839.1	955.82	-29778.2	0.000000	0.000000	7.194193	133.317	NaN	0.000000	0.001531	0.001580	28.1307	52.8837	0.001863	28383.6	4.916977	175.39	132.204	1.188110	0.053596	0.053363	133.317	28383.6	0.050073	0.092639	1439.09	85200.7
104	2.000000	1.190895	7.36606e+06	-43839.1	955.821	-29778.2	0.000000	0.000000	7.197366	148.408	NaN	0.000000	0.001513	0.001638	28.0937	53.1715	0.001661	32020.4	2.475130	-3.235440	148.158	1.190460	0.056148	0.055712	148.408	32020.4	0.052672	0.100850	1471.56	92121.4
104	2.000000	1.193330	7.36606e+06	-43839.1	955.821	-29778.2	0.000000	0.000000	7.200357	161.94	NaN	0.000000	0.001505	0.001641	28.0794	55.8757	0.001656	33740.3	2.946301	175.604	160.823	1.193006	0.058582	0.058258	161.94	33740.3	0.054983	0.108434	1493.44	93613.7
104	2.000000	1.195837	7.36606e+06	-43839.1	955.82	-29778.2	0.000000	0.000000	7.203501	177.447	NaN	0.000000	0.001559	0.001653	28.0998	58.6719	0.001730	33912.8	7.276745	-8.629699	175.419	1.195469	0.061090	0.060722	177.447	33912.8	0.057166	0.115841	1531.81	91034.3
104	2.000000	1.198256	7.36606e+06	-43839.1	955.82	-29778.2	0.000000	0.000000	7.206343	187.749	NaN	0.000000	0.001553	0.001675	28.1294	61.8472	0.001875	32977.2	5.217825	173.78	183.966	1.198017	0.063508	0.063270	187.749	32977.2	0.059238	0.123092	1525.28	85876.1
104	2.000000	1.200776	7.36606e+06	-43839.1	955.82	-29778.2	0.000000	0.000000	7.209539	204.166	NaN	0.000000	0.001556	0.001669	28.0938	62.9757	0.001804	34910.8	5.272372	-6.378550	200.024	1.200439	0.066029	0.065691	204.166	34910.8	0.061643	0.131765	1549.47	87868.3
104	2.000000	1.203273	7.36606e+06	-43839.1	955.82	-29778.2	0.000000	0.000000	7.212542	216.492	NaN	0.000000	0.001519	0.001612	28.0799	63.9534	0.001911	33458.9	2.076856	177.394	213.169	1.203000	0.068525	0.068252	216.492	33458.9	0.063673	0.139306	1554.07	81903
104	2.000000	1.205793	7.36606e+06	-43839.1	955.82	-29778.2	0.000000	0.000000	7.215768	233.66	NaN	0.000000	0.001500	0.001670	28.1005	67.0145	0.001870	35837.3	1.783395	-3.673918	231.161	1.205562	0.071046	0.070814	233.66	35837.3	0.066156	0.148803	1570.26	84879.4
104	2.000000	1.208369	7.36606e+06	-43839.1	955.82	-29778.2	0.000000	0.000000	7.219043	250.668	NaN	0.000000	0.001536	0.001642	28.1304	68.3205	0.001788	38200.4	4.083747	174.378	255.118	1.208030	0.073622	0.073283	250.668	38200.4	0.068700	0.158841	1578.11	87571
104	2.000000	1.210765	7.36606e+06	-43839.1	955.821	-29778.2	0.000000	0.000000	7.222175	268.564	NaN	0.000000	0.001521	0.001663	28.094	69.6458	0.001772	39296.9	1.659341	-3.866845	262.062	1.210377	0.076018	0.075630	268.564	39296.9	0.070892	0.167736	1601.11	87663.3
104	2.000000	1.213312	7.36606e+06	-43839.1	955.819	-29778.2	0.000000	0.000000	7.225198	280.167	NaN	0.000000	0.001591	0.001618	28.0803	73.6837	0.001849	39840.2	8.782123	169.191	278.928	1.212786	0.078564	0.078038	280.167	39840.2	0.073290	0.177729	1576.37	86340.6
104	2.000000	1.215773	7.36606e+06	-43839.1	955.82	-29778.2	0.000000	0.000000	7.228248	294.483	NaN	0.000000	0.001592	0.001675	28.1004	76.1274	0.001772	42970.7	6.895871	-9.789804	291.418	1.215423	0.081026	0.080676	294.483	42970.7	0.075886	0.188853	1559.32	90340.8
104	2.000000	1.218336	7.36606e+06	-43839.1	955.82	-29778.2	0.000000	0.000000	7.231699	316.095	NaN	0.000000	0.001587	0.001663	28.1292	78.7733	0.001819	43299.8	3.403125	173.613	317.443	1.217955	0.083588	0.083208	316.095	43299.8	0.078113	0.198649	1591.23	88759.8
104	2.000000	1.220789	7.36606e+06	-43839.1	955.82	-29778.2	0.000000	0.000000	7.234781	331.412	NaN	0.000000	0.001588	0.001660	28.0921	79.6285	0.001735	45884.4	1.392233	-3.890066	328.81	1.220394	0.086041	0.085647	331.412	45884.4	0.080624	0.209971	1578.37	91486.8
104	2.000000	1.223303	7.36606e+06	-43839.1	955.82	-29778.2	0.000000	0.000000	7.238098	350.935	NaN	0.000000	0.001550	0.001662	28.0797	82.1402	0.001826	44989.5	4.545593	172.577	350.101	1.222975	0.088556	0.088228	350.935	44989.5	0.082706	0.219578	1598.23	87718.2
104	2.000000	1.225749	7.36606e+06	-43839.1	955.821	-29778.2	0.000000	0.000000	7.241485	373.827	NaN	0.000000	0.001584	0.001652	28.0998	84.7911	0.001763	48102	5.071897	-8.782326	369.938	1.225372	0.091002	0.090624	373.827	48102	0.085173	0.231228	1616.7	91393.7
104	2.000000	1.228275	7.36606e+06	-43839.1	955.821	-29778.2	0.000000	0.000000	7.244446	384.406	NaN	0.000000	0.001575	0.001683	28.129	88.3198	0.001800	49075.6	2.835677	172.951	381.569	1.228098	0.093528	0.093351	384.406	49075.6	0.087653	0.243220	1580.49	90915.7
104	2.000000	1.230798	7.36606e+06	-43839.1	955.821	-29778.2	0.000000	0.000000	7.248163	413.453	NaN	0.000000	0.001595	0.001647	28.0938	90.9095	0.001817	50037.1	7.609407	-10.6757	410.917	1.230339	0.096051	0.095591	413.453	50037.1	0.089854	0.254099	1627.14	90691
104	2.000000	1.233372	7.36606e+06	-43839.1	955.82	-29778.2	0.000000	0.000000	7.251201	424.746	NaN	0.000000	0.001571	0.001657	28.0774	93.3441	0.001766	52857.5	6.289877	169.634	430.248	1.233026	0.098625	0.098278	424.746	52857.5	0.092598	0.267976	1585.02	93289.3
104	2.000000	1.235761	7.36606e+06	-43839.1	955.821	-29778.2	0.000000	0.000000	7.254393	444.281	NaN	0.000000	0.001585	0.001616	28.0979	96.2987	0.001777	54195.5	4.657098	-9.347977	441.792	1.235445	0.101014	0.100698	444.281	54195.5	0.094865	0.279700	1588.42	93624.6
104	2.000000	1.238298	7.36606e+06	-43839.1	955.82	-29778.2	0.000000	0.000000	7.257736	463.88	NaN	0.000000	0.001485	0.001646	28.1281	99.0829	0.001722	57538.6	2.663834	172.259	465.92	1.237979	0.103551	0.103231	463.88	57538.6	0.097504	0.293642	1579.74	97011.4
104	2.000000	1.240677	7.36606e+06	-43839.1	955.82	-29778.2	0.000000	0.000000	7.261581	499.565	NaN	0.000000	0.001517	0.001633	28.0929	100.033	0.001705	58679.4	2.096512	-7.078331	490.946	1.240347	0.105929	0.105599	499.565	58679.4	0.099544	0.304636	1639.87	97133.2
104	2.000000	1.242169	7.36606e+06	-43839.1	955.819	-29778.2	0.000000	0.000000	7.263515	510.302	NaN	0.000000	0.001523	0.001654	28.1292	102.72	0.001797	57168	4.145314	171.115	503.996	1.241868	0.107422	0.107120	510.302	57168	0.100727	0.311098	1640.33	93643.5