File: remote_trans/data/nanoindenter/0828-1/data/Data_2025-08-06,11h17m57s/2025-07-22_16-23-58_1_155.txt
2025-07-22, 16:23:58, 1
Index	Phase	Displacement	Time	Pos X	Pos Y	Pos Z	Rot A	Rot B	Piezo Z	Force A	Force B	Gripper	Voltage A	Voltage B	Temperature	Amplitude force	Amplitude pos	Stiffness	Phase shift	Phase excitation	Force A raw	Displacement raw	HMax	HMax raw	Real Force	Real Stiffness	Contact Depth	Area	Hardness	Reduced Mod.
[#]	[#]	[um]	[s]	[um]	[um]	[um]	[m°]	[m°]	[um]	[uN]	[uN]	[V]	[V]	[V]	[°C]	[uN]	[um]	[N/m]	[°]	[°]	[uN]	[um]	[um]	[um]	[uN]	[N/m]	[um]	[um^2]	[MPa]	[MPa]
155	1.000000	0.002308	7.36656e+06	-46389.1	955.818	-29769.8	0.000000	0.000000	6.002811	-0.026888	NaN	0.000000	0.001648	0.001681	28.1192	0.044298	0.000863	51.3223	137.877	-162.305	-0.031026	0.001020	-1.093739	-1.095028	-0.026888	51.3223	-1.093346	-4.080767E+14	6.589005E-17	NaN
155	1.000000	0.012352	7.36656e+06	-46389.1	955.819	-29769.8	0.000000	0.000000	6.012856	-0.001676	NaN	0.000000	0.001647	0.001648	28.1236	0.028286	0.001229	23.0243	-166.893	22.5681	-0.038006	0.010903	-1.083695	-1.085145	-0.001676	23.0243	-1.083641	-3.022849E+14	5.545974E-18	NaN
155	1.000000	0.022253	7.36656e+06	-46389.1	955.818	-29769.8	0.000000	0.000000	6.022757	0.002194	NaN	0.000000	0.001618	0.001657	28.0858	0.206000	0.001683	122.421	49.5351	-165.077	-0.020099	0.020960	-1.073795	-1.075087	0.002194	122.421	-1.073808	-2.230230E+14	-9.837117E-18	NaN
155	1.000000	0.032275	7.36656e+06	-46389.1	955.819	-29769.8	0.000000	0.000000	6.032781	0.039393	NaN	0.000000	0.001630	0.001665	28.0829	0.049503	0.001973	25.086	135.747	15.9189	0.023184	0.030911	-1.063773	-1.065136	0.039393	25.086	-1.064950	-1.695682E+14	-2.323107E-16	NaN
155	1.000000	0.042272	7.36656e+06	-46389.1	955.818	-29769.8	0.000000	0.000000	6.042777	0.015737	NaN	0.000000	0.001658	0.001628	28.1203	0.142555	0.001938	73.5462	-42.987	-164.953	0.005739	0.040915	-1.053775	-1.055133	0.015737	73.5462	-1.053936	-1.205921E+14	-1.305018E-16	NaN
155	1.000000	0.052286	7.36656e+06	-46389.1	955.82	-29769.8	0.000000	0.000000	6.052791	0.022770	NaN	0.000000	0.001627	0.001677	28.1247	0.089436	0.001924	46.475	-75.4457	18.6487	0.059012	0.050857	-1.043762	-1.045190	0.022770	46.475	-1.044129	-8.902053E+13	-2.557893E-16	NaN
155	1.000000	0.062260	7.36656e+06	-46389.1	955.818	-29769.8	0.000000	0.000000	6.062760	-0.099031	NaN	0.000000	0.001636	0.001650	28.086	0.038373	0.001915	20.0374	141.847	-165.103	-0.025657	0.060906	-1.033787	-1.035141	-0.099031	20.0374	-1.030081	-5.761888E+13	1.718721E-15	NaN
155	1.000000	0.072272	7.36656e+06	-46389.1	955.819	-29769.8	0.000000	0.000000	6.072773	-0.082645	NaN	0.000000	0.001663	0.001674	28.0856	0.082853	0.002036	40.6933	139.095	18.4889	-0.034327	0.070874	-1.023776	-1.025174	-0.082645	40.6933	-1.022252	-4.521246E+13	1.827924E-15	NaN
155	1.000000	0.082256	7.36656e+06	-46389.1	955.819	-29769.8	0.000000	0.000000	6.082759	-0.040391	NaN	0.000000	0.001635	0.001655	28.1186	0.057968	0.002078	27.8973	130.462	-165.896	-0.041511	0.080946	-1.013791	-1.015102	-0.040391	27.8973	-1.012705	-3.363514E+13	1.200860E-15	NaN
155	1.000000	0.092278	7.36656e+06	-46389.1	955.819	-29769.8	0.000000	0.000000	6.092781	-0.035943	NaN	0.000000	0.001621	0.001689	28.1249	0.033915	0.001995	17.0027	-136.341	15.0903	-0.045365	0.090912	-1.003769	-1.005135	-0.035943	17.0027	-1.002184	-2.427545E+13	1.480640E-15	NaN
155	1.000000	0.102272	7.36656e+06	-46389.1	955.818	-29769.8	0.000000	0.000000	6.102775	-0.022871	NaN	0.000000	0.001598	0.001663	28.0858	0.047374	0.002099	22.571	103.434	-166.95	-0.009091	0.100976	-0.993775	-0.995072	-0.022871	22.571	-0.993015	-1.826925E+13	1.251907E-15	NaN
155	1.000000	0.112252	7.36656e+06	-46389.1	955.818	-29769.8	0.000000	0.000000	6.112757	0.009938	NaN	0.000000	0.001655	0.001701	28.0829	0.091994	0.002015	45.6572	-90.3933	17.3384	0.089129	0.110889	-0.983795	-0.985158	0.009938	45.6572	-0.983958	-1.379540E+13	-7.203578E-16	NaN
155	1.000000	0.122277	7.36656e+06	-46389.1	955.819	-29769.8	0.000000	0.000000	6.122783	0.044654	NaN	0.000000	0.001637	0.001676	28.1179	0.037698	0.002008	18.7767	-161.079	-163.895	0.040218	0.121009	-0.973770	-0.975039	0.044654	18.7767	-0.975554	-1.062930E+13	-4.201038E-15	NaN
155	1.000000	0.132318	7.36656e+06	-46389.1	955.818	-29769.8	0.000000	0.000000	6.132821	-0.033243	NaN	0.000000	0.001664	0.001679	28.1242	0.094695	0.002035	46.5269	84.0698	15.7101	-0.029731	0.130887	-0.963730	-0.965161	-0.033243	46.5269	-0.963194	-7.243100E+12	4.589573E-15	NaN
155	1.000000	0.142284	7.36656e+06	-46389.1	955.818	-29769.8	0.000000	0.000000	6.142788	0.001502	NaN	0.000000	0.001623	0.001695	28.0863	0.010049	0.002120	4.739997	-92.1301	-162.646	0.067369	0.141003	-0.953764	-0.955045	0.001502	4.739997	-0.954002	-5.444908E+12	-2.758204E-16	NaN
155	1.000000	0.152311	7.36656e+06	-46389.1	955.819	-29769.8	0.000000	0.000000	6.152812	-0.070481	NaN	0.000000	0.001635	0.001682	28.0829	0.055709	0.001976	28.1876	102.286	16.2737	-0.119680	0.150911	-0.943736	-0.945137	-0.070481	28.1876	-0.941861	-3.734619E+12	1.887246E-14	NaN
155	1.000000	0.162291	7.36656e+06	-46389.1	955.819	-29769.8	0.000000	0.000000	6.162797	0.049137	NaN	0.000000	0.001659	0.001658	28.1171	0.159798	0.001861	85.8589	47.7776	-168.85	0.011676	0.160998	-0.933757	-0.935050	0.049137	85.8589	-0.934186	-2.942299E+12	-1.670008E-14	NaN
155	1.000000	0.172307	7.36656e+06	-46389.1	955.818	-29769.8	0.000000	0.000000	6.172810	-0.025686	NaN	0.000000	0.001646	0.001676	28.1228	0.047889	0.001951	24.5496	-139.907	17.1772	-0.036065	0.170956	-0.923741	-0.925092	-0.025686	24.5496	-0.922956	-2.075474E+12	1.237578E-14	NaN
155	1.000000	0.182286	7.36656e+06	-46389.1	955.819	-29769.8	0.000000	0.000000	6.182791	0.015351	NaN	0.000000	0.001660	0.001645	28.0847	0.084915	0.002147	39.5536	-149.772	-164.138	-0.025124	0.181032	-0.913762	-0.915015	0.015351	39.5536	-0.914053	-1.573613E+12	-9.754968E-15	NaN
155	1.000000	0.192304	7.36656e+06	-46389.1	955.819	-29769.8	0.000000	0.000000	6.192808	-0.014029	NaN	0.000000	0.001656	0.001654	28.0817	0.081936	0.001906	42.9941	61.2853	14.2591	-0.022654	0.190977	-0.903743	-0.905071	-0.014029	42.9941	-0.903499	-1.133282E+12	1.237952E-14	NaN
155	1.000000	0.202277	7.36656e+06	-46389.1	955.819	-29769.8	0.000000	0.000000	6.202782	0.019019	NaN	0.000000	0.001623	0.001629	28.1179	0.088993	0.002062	43.1519	-64.3988	-166.289	-0.027374	0.201024	-0.893771	-0.895024	0.019019	43.1519	-0.894101	-8.459644E+11	-2.248174E-14	NaN
155	1.000000	0.212311	7.36656e+06	-46389.1	955.818	-29769.8	0.000000	0.000000	6.212814	-0.034242	NaN	0.000000	0.001653	0.001636	28.124	0.016337	0.001947	8.391649	23.2825	11.8149	-0.051246	0.210952	-0.883737	-0.885095	-0.034242	8.391649	-0.880676	-5.570004E+11	6.147659E-14	NaN
155	1.000000	0.222332	7.36656e+06	-46389.1	955.818	-29769.8	0.000000	0.000000	6.222839	0.051653	NaN	0.000000	0.001622	0.001646	28.0865	0.026636	0.001878	14.1843	-75.354	-164.518	0.085097	0.221006	-0.873715	-0.875042	0.051653	14.1843	-0.876446	-4.882527E+11	-1.057925E-13	NaN
155	1.000000	0.232328	7.36656e+06	-46389.1	955.818	-29769.8	0.000000	0.000000	6.232834	0.027119	NaN	0.000000	0.001600	0.001674	28.0839	0.027037	0.001865	14.4986	162.259	13.5056	0.014333	0.230983	-0.863719	-0.865064	0.027119	14.4986	-0.865122	-3.431164E+11	-7.903673E-14	NaN
155	1.000000	0.242356	7.36656e+06	-46389.1	955.819	-29769.8	0.000000	0.000000	6.242862	0.036922	NaN	0.000000	0.001619	0.001645	28.1161	0.033660	0.002045	16.4592	-151.242	-165.774	0.027398	0.240998	-0.853691	-0.855049	0.036922	16.4592	-0.855374	-2.532197E+11	-1.458117E-13	NaN
155	1.000000	0.252359	7.36656e+06	-46389.1	955.819	-29769.8	0.000000	0.000000	6.252863	-0.004789	NaN	0.000000	0.001589	0.001660	28.1247	0.064020	0.002123	30.1523	138.34	15.2924	-0.103344	0.250959	-0.843688	-0.845089	-0.004789	30.1523	-0.843569	-1.752438E+11	2.732942E-14	NaN
155	1.000000	0.262353	7.36656e+06	-46389.1	955.818	-29769.8	0.000000	0.000000	6.262856	-0.035029	NaN	0.000000	0.001610	0.001652	28.0859	0.126315	0.002121	59.5407	107.015	-167.964	-0.082766	0.261002	-0.833694	-0.835045	-0.035029	59.5407	-0.833253	-1.270207E+11	2.757762E-13	NaN
155	1.000000	0.272318	7.36656e+06	-46389.1	955.818	-29769.8	0.000000	0.000000	6.272821	-0.028598	NaN	0.000000	0.001638	0.001662	28.0837	0.068349	0.001924	35.5293	-171.625	15.9546	-0.004994	0.270975	-0.823730	-0.825073	-0.028598	35.5293	-0.823126	-9.259741E+10	3.088462E-13	NaN
155	1.000000	0.282338	7.36656e+06	-46389.1	955.819	-29769.8	0.000000	0.000000	6.282842	-0.000924	NaN	0.000000	0.001583	0.001651	28.1184	0.069561	0.002097	33.1746	53.498	-166.314	-0.013308	0.281024	-0.813710	-0.815023	-0.000924	33.1746	-0.813689	-6.896295E+10	1.339539E-14	NaN
155	1.000000	0.292354	7.36656e+06	-46389.1	955.819	-29769.8	0.000000	0.000000	6.292858	-0.004501	NaN	0.000000	0.001560	0.001643	28.1256	0.054060	0.002010	26.899	8.747274	13.2669	0.040736	0.291013	-0.803693	-0.805035	-0.004501	26.899	-0.803568	-5.026765E+10	8.954097E-14	NaN
155	1.000000	0.302357	7.36656e+06	-46389.1	955.819	-29769.8	0.000000	0.000000	6.302860	-0.038089	NaN	0.000000	0.001627	0.001614	28.0869	0.099908	0.002063	48.4341	17.0601	-164.69	0.010002	0.301006	-0.793690	-0.795041	-0.038089	48.4341	-0.793100	-3.623986E+10	1.051038E-12	NaN
155	1.000000	0.312345	7.36656e+06	-46389.1	955.818	-29769.8	0.000000	0.000000	6.312851	0.050708	NaN	0.000000	0.001695	0.001658	28.0836	0.070416	0.002172	32.4217	174.903	14.6075	0.003939	0.311006	-0.783703	-0.785042	0.050708	32.4217	-0.784876	-2.802059E+10	-1.809670E-12	NaN
155	1.000000	0.322354	7.36656e+06	-46389.1	955.819	-29769.8	0.000000	0.000000	6.322861	0.047823	NaN	0.000000	0.001619	0.001629	28.1178	0.068225	0.001869	36.5044	125.852	-160.242	-0.021995	0.321028	-0.773693	-0.775019	0.047823	36.5044	-0.774676	-2.036424E+10	-2.348376E-12	NaN
155	1.000000	0.332347	7.36656e+06	-46389.1	955.819	-29769.8	0.000000	0.000000	6.332850	-0.036738	NaN	0.000000	0.001658	0.001629	28.1249	0.057074	0.001999	28.5464	-145.976	14.7503	-0.080645	0.331039	-0.763700	-0.765008	-0.036738	28.5464	-0.762735	-1.401233E+10	2.621866E-12	NaN
155	1.000000	0.342376	7.36656e+06	-46389.1	955.818	-29769.8	0.000000	0.000000	6.342879	-0.023975	NaN	0.000000	0.001679	0.001582	28.0851	0.076956	0.002031	37.8938	131.897	-166.637	0.034617	0.341116	-0.753671	-0.754931	-0.023975	37.8938	-0.753197	-1.039277E+10	2.306939E-12	NaN
155	1.000000	0.352378	7.36656e+06	-46389.1	955.819	-29769.8	0.000000	0.000000	6.352880	-0.077373	NaN	0.000000	0.001691	0.001639	28.0825	0.082849	0.002017	41.0831	-174.185	9.943666	-0.011473	0.351040	-0.743669	-0.745008	-0.077373	41.0831	-0.742257	-7.375466E+9	1.049060E-11	NaN
155	1.000000	0.362364	7.36656e+06	-46389.1	955.819	-29769.8	0.000000	0.000000	6.362867	-0.013133	NaN	0.000000	0.001690	0.001661	28.1184	0.056779	0.001947	29.1688	-96.5536	-164.588	-0.007593	0.361058	-0.733684	-0.734989	-0.013133	29.1688	-0.733346	-5.577107E+9	2.354889E-12	NaN
155	1.000000	0.372382	7.36656e+06	-46389.1	955.818	-29769.8	0.000000	0.000000	6.372886	-0.003367	NaN	0.000000	0.001686	0.001625	28.1258	0.112788	0.001837	61.3842	131.066	14.5056	0.066065	0.371037	-0.723666	-0.725010	-0.003367	61.3842	-0.723625	-4.110536E+9	8.190752E-13	NaN
155	1.000000	0.382367	7.36656e+06	-46389.1	955.818	-29769.8	0.000000	0.000000	6.382870	-0.025192	NaN	0.000000	0.001675	0.001662	28.0861	0.034518	0.001970	17.5221	-117.045	-168.598	-0.007482	0.381042	-0.713681	-0.715005	-0.025192	17.5221	-0.712603	-2.907785E+9	8.663651E-12	NaN
155	1.000000	0.392384	7.36656e+06	-46389.1	955.818	-29769.8	0.000000	0.000000	6.392888	-0.009515	NaN	0.000000	0.001648	0.001634	28.0833	0.091571	0.001993	45.9571	157.905	11.1488	-0.035714	0.391032	-0.703663	-0.705016	-0.009515	45.9571	-0.703508	-2.184901E+9	4.354719E-12	NaN
155	1.000000	0.402379	7.36656e+06	-46389.1	955.819	-29769.8	0.000000	0.000000	6.402884	0.009469	NaN	0.000000	0.001617	0.001644	28.1158	0.049529	0.001957	25.3096	-31.7438	-167.02	-0.046691	0.401102	-0.693668	-0.694946	0.009469	25.3096	-0.693949	-1.617624E+9	-5.853442E-12	NaN
155	1.000000	0.412396	7.36656e+06	-46389.1	955.817	-29769.8	0.000000	0.000000	6.412902	0.035770	NaN	0.000000	0.001636	0.001680	28.1231	0.147196	0.002012	73.1528	120.746	14.2036	-0.024593	0.410981	-0.683651	-0.685067	0.035770	73.1528	-0.684018	-1.183445E+9	-3.022504E-11	NaN
155	1.000000	0.422395	7.36656e+06	-46389.1	955.818	-29769.8	0.000000	0.000000	6.422900	0.021074	NaN	0.000000	0.001608	0.001668	28.0846	0.029377	0.001940	15.1444	-41.0795	-164.479	0.011371	0.421119	-0.673652	-0.674928	0.021074	15.1444	-0.674696	-8.823752E+8	-2.388377E-11	NaN
155	1.000000	0.432410	7.36656e+06	-46389.1	955.818	-29769.8	0.000000	0.000000	6.432914	-0.005513	NaN	0.000000	0.001619	0.001662	28.0818	0.158264	0.002112	74.9373	-70.9654	14.8684	-0.030383	0.431019	-0.663637	-0.665028	-0.005513	74.9373	-0.663582	-6.216268E+8	8.867882E-12	NaN
155	1.000000	0.442389	7.36656e+06	-46389.1	955.819	-29769.8	0.000000	0.000000	6.442892	-0.040037	NaN	0.000000	0.001590	0.001648	28.1168	0.037489	0.002016	18.5965	13.2791	-167.062	-0.002667	0.441085	-0.653659	-0.654962	-0.040037	18.5965	-0.652044	-4.319704E+8	9.268351E-11	NaN
155	1.000000	0.452409	7.36656e+06	-46389.1	955.819	-29769.8	0.000000	0.000000	6.452911	-0.074698	NaN	0.000000	0.001610	0.001674	28.125	0.061961	0.002094	29.5871	-92.2553	11.6859	-0.041002	0.451062	-0.643638	-0.644986	-0.074698	29.5871	-0.641745	-3.120499E+8	2.393797E-10	NaN
155	1.000000	0.462416	7.36656e+06	-46389.1	955.818	-29769.8	0.000000	0.000000	6.462917	-0.066489	NaN	0.000000	0.001597	0.001664	28.0865	0.068986	0.001908	36.1609	123.665	-166.212	-0.099932	0.461124	-0.633632	-0.634924	-0.066489	36.1609	-0.632253	-2.311818E+8	2.876053E-10	NaN
155	1.000000	0.472435	7.36656e+06	-46389.1	955.818	-29769.8	0.000000	0.000000	6.472939	-0.003044	NaN	0.000000	0.001619	0.001653	28.0817	0.087015	0.002058	42.2899	-56.5141	13.9531	-0.007131	0.471037	-0.623613	-0.625010	-0.003044	42.2899	-0.623559	-1.756067E+8	1.733546E-11	NaN
155	1.000000	0.482388	7.36656e+06	-46389.1	955.818	-29769.8	0.000000	0.000000	6.482894	0.051835	NaN	0.000000	0.001603	0.001685	28.1158	0.097930	0.001934	50.6484	-169.455	-163.062	0.070336	0.481071	-0.613660	-0.614977	0.051835	50.6484	-0.614427	-1.315262E+8	-3.941077E-10	NaN
155	1.000000	0.492454	7.36656e+06	-46389.1	955.819	-29769.8	0.000000	0.000000	6.492958	-0.006055	NaN	0.000000	0.001624	0.001661	28.1246	0.088968	0.001924	46.2511	32.8747	13.2866	-0.051360	0.491104	-0.603593	-0.604944	-0.006055	46.2511	-0.603495	-9.302254E+7	6.509706E-11	NaN
155	1.000000	0.502451	7.36656e+06	-46389.1	955.818	-29769.8	0.000000	0.000000	6.502957	0.034403	NaN	0.000000	0.001598	0.001670	28.0857	0.111980	0.001989	56.2961	96.6781	-169.699	0.065577	0.501153	-0.593596	-0.594894	0.034403	56.2961	-0.594054	-6.895283E+7	-4.989384E-10	NaN
155	1.000000	0.512436	7.36656e+06	-46389.1	955.818	-29769.8	0.000000	0.000000	6.512944	0.100452	NaN	0.000000	0.001640	0.001694	28.0835	0.080700	0.002044	39.4728	-138.995	17.4193	0.138290	0.511156	-0.583612	-0.584891	0.100452	39.4728	-0.585520	-5.258892E+7	-1.910144E-9	NaN
155	1.000000	0.522471	7.36656e+06	-46389.1	955.819	-29769.8	0.000000	0.000000	6.522974	-0.035460	NaN	0.000000	0.001606	0.001680	28.1172	0.029176	0.002108	13.8414	-117.295	-164.14	-0.017571	0.521134	-0.573576	-0.574914	-0.035460	13.8414	-0.571655	-3.384492E+7	1.047705E-9	NaN
155	1.000000	0.532450	7.36656e+06	-46389.1	955.819	-29769.8	0.000000	0.000000	6.532955	0.017782	NaN	0.000000	0.001621	0.001703	28.1265	0.110393	0.002002	55.144	156.427	11.84	-0.070844	0.531081	-0.563598	-0.564966	0.017782	55.144	-0.563840	-2.639258E+7	-6.737355E-10	NaN
155	1.000000	0.542445	7.36656e+06	-46389.1	955.819	-29769.8	0.000000	0.000000	6.542949	0.007716	NaN	0.000000	0.001596	0.001697	28.0867	0.078853	0.001969	40.055	119.888	-168.48	0.068503	0.541102	-0.553603	-0.554945	0.007716	40.055	-0.553747	-1.913586E+7	-4.032024E-10	NaN
155	1.000000	0.552488	7.36656e+06	-46389.1	955.818	-29769.8	0.000000	0.000000	6.552993	0.025038	NaN	0.000000	0.001603	0.001707	28.0831	0.065072	0.001969	33.0529	53.4896	10.019	-0.041765	0.551072	-0.543560	-0.544976	0.025038	33.0529	-0.544128	-1.407969E+7	-1.778321E-9	NaN
155	1.000000	0.562493	7.36656e+06	-46389.1	955.818	-29769.8	0.000000	0.000000	6.562998	0.016665	NaN	0.000000	0.001638	0.001667	28.116	0.040754	0.002087	19.5255	-72.2857	-169.737	0.062100	0.561149	-0.533554	-0.534899	0.016665	19.5255	-0.534194	-1.025200E+7	-1.625578E-9	NaN
155	1.000000	0.572470	7.36656e+06	-46389.1	955.819	-29769.8	0.000000	0.000000	6.572972	-0.040797	NaN	0.000000	0.001653	0.001674	28.1256	0.059435	0.001938	30.6607	161.596	11.6812	0.018311	0.571062	-0.523578	-0.524985	-0.040797	30.6607	-0.522580	-7.07086e+06	5.769666E-9	NaN
155	1.000000	0.582465	7.36656e+06	-46389.1	955.819	-29769.8	0.000000	0.000000	6.582966	-0.059784	NaN	0.000000	0.001672	0.001711	28.0856	0.037013	0.001952	18.9639	-89.8019	-166.949	-0.122111	0.581158	-0.513583	-0.514889	-0.059784	18.9639	-0.511218	-4.91344e+06	1.216735E-8	NaN
155	1.000000	0.592479	7.36656e+06	-46389.1	955.818	-29769.8	0.000000	0.000000	6.592981	-0.050937	NaN	0.000000	0.001633	0.001665	28.0821	0.104398	0.002087	50.0279	-109.88	16.0728	0.040404	0.591116	-0.503569	-0.504932	-0.050937	50.0279	-0.502805	-3.75099e+06	1.357964E-8	NaN
155	1.000000	0.602503	7.36656e+06	-46389.1	955.818	-29769.8	0.000000	0.000000	6.603007	0.013931	NaN	0.000000	0.001649	0.001693	28.1167	0.154055	0.001975	78.0086	-60.666	-169.033	0.001159	0.601176	-0.493545	-0.494872	0.013931	78.0086	-0.493679	-2.79761e+06	-4.979658E-9	NaN
155	1.000000	0.612487	7.36656e+06	-46389.1	955.818	-29769.8	0.000000	0.000000	6.612991	-0.011820	NaN	0.000000	0.001645	0.001662	28.1265	0.087073	0.002100	41.4713	171.265	11.829	0.063089	0.611165	-0.483561	-0.484882	-0.011820	41.4713	-0.483347	-2.00617e+06	5.891640E-9	NaN
155	1.000000	0.622489	7.36656e+06	-46389.1	955.818	-29769.8	0.000000	0.000000	6.622992	-0.028716	NaN	0.000000	0.001640	0.001688	28.0874	0.018217	0.002031	8.970636	-20.8865	-163.713	0.105061	0.621124	-0.473559	-0.474924	-0.028716	8.970636	-0.471158	-1.35408e+06	2.120689E-8	NaN
155	1.000000	0.632514	7.36656e+06	-46389.1	955.819	-29769.8	0.000000	0.000000	6.633016	-0.054755	NaN	0.000000	0.001653	0.001666	28.0829	0.062740	0.001994	31.463	65.231	12.3532	-0.045187	0.631157	-0.463533	-0.464890	-0.054755	31.463	-0.462228	-1.01466e+06	5.396400E-8	NaN
155	1.000000	0.642509	7.36656e+06	-46389.1	955.819	-29769.8	0.000000	0.000000	6.643014	-0.001112	NaN	0.000000	0.001664	0.001693	28.1158	0.101302	0.002005	50.5289	-101.03	-163.466	0.021538	0.641180	-0.453538	-0.454867	-0.001112	50.5289	-0.453522	-765450	1.453168E-9	NaN
155	1.000000	0.652512	7.36656e+06	-46389.1	955.818	-29769.8	0.000000	0.000000	6.653018	0.042253	NaN	0.000000	0.001664	0.001701	28.1255	0.096163	0.001954	49.2194	42.8175	12.8359	-0.002706	0.651179	-0.443535	-0.444868	0.042253	49.2194	-0.444179	-565354	-7.473717E-8	NaN
155	1.000000	0.662504	7.36656e+06	-46389.1	955.818	-29769.8	0.000000	0.000000	6.663006	-0.055538	NaN	0.000000	0.001658	0.001684	28.0847	0.085420	0.001941	44.0001	-108.708	-165.178	-0.020640	0.661211	-0.433544	-0.434837	-0.055538	44.0001	-0.432597	-387961	1.431538E-7	NaN
155	1.000000	0.672509	7.36656e+06	-46389.1	955.819	-29769.8	0.000000	0.000000	6.673013	0.004801	NaN	0.000000	0.001595	0.001665	28.0806	0.083813	0.002082	40.2564	-73.4441	14.2367	-0.093765	0.671160	-0.423538	-0.424888	0.004801	40.2564	-0.423628	-289631	-1.657686E-8	NaN
155	1.000000	0.682497	7.36656e+06	-46389.1	955.818	-29769.8	0.000000	0.000000	6.683003	0.030609	NaN	0.000000	0.001619	0.001706	28.1157	0.028799	0.002113	13.6287	91.3112	-165.803	-0.067577	0.681189	-0.413550	-0.414859	0.030609	13.6287	-0.415235	-220186	-1.390146E-7	NaN
155	1.000000	0.692493	7.36656e+06	-46389.1	955.818	-29769.8	0.000000	0.000000	6.692999	0.050297	NaN	0.000000	0.001661	0.001715	28.1257	0.080406	0.002057	39.0986	121.456	9.676851	0.026772	0.691124	-0.403555	-0.404923	0.050297	39.0986	-0.404520	-155027	-3.244391E-7	NaN
155	1.000000	0.702516	7.36656e+06	-46389.1	955.818	-29769.8	0.000000	0.000000	6.703022	0.039372	NaN	0.000000	0.001639	0.001702	28.0855	0.104218	0.002059	50.6041	140.011	-167.898	0.038761	0.701230	-0.393531	-0.394817	0.039372	50.6041	-0.394115	-110151	-3.574348E-7	NaN
155	1.000000	0.712506	7.36656e+06	-46389.1	955.818	-29769.8	0.000000	0.000000	6.713011	-0.002056	NaN	0.000000	0.001721	0.001699	28.0828	0.077628	0.001984	39.13	99.7257	14.7343	-0.062152	0.711169	-0.383541	-0.384879	-0.002056	39.13	-0.383502	-77645.3	2.648566E-8	NaN
155	1.000000	0.722520	7.36656e+06	-46389.1	955.817	-29769.8	0.000000	0.000000	6.723024	-0.013146	NaN	0.000000	0.001723	0.001712	28.114	0.202109	0.001908	105.911	-36.495	-168.275	-0.001638	0.721251	-0.373528	-0.374797	-0.013146	105.911	-0.373435	-55662.2	2.361697E-7	NaN
155	1.000000	0.732528	7.36656e+06	-46389.1	955.818	-29769.8	0.000000	0.000000	6.733030	-0.049060	NaN	0.000000	0.001742	0.001724	28.1253	0.063844	0.001980	32.2455	14.135	14.1411	0.012066	0.731166	-0.363520	-0.364881	-0.049060	32.2455	-0.362379	-38567.1	1.272074E-6	NaN
155	1.000000	0.742535	7.36656e+06	-46389.1	955.819	-29769.8	0.000000	0.000000	6.743037	-0.050306	NaN	0.000000	0.001724	0.001689	28.0844	0.124798	0.001949	64.03	-32.1607	-166.957	-0.034078	0.741260	-0.353512	-0.354788	-0.050306	64.03	-0.352923	-28145	1.787394E-6	NaN
155	1.000000	0.752538	7.36656e+06	-46389.1	955.819	-29769.8	0.000000	0.000000	6.753039	-0.066208	NaN	0.000000	0.001722	0.001671	28.0806	0.061275	0.001904	32.1786	29.9593	9.672471	-0.057236	0.751170	-0.343510	-0.344878	-0.066208	32.1786	-0.341966	-19507.7	3.393963E-6	NaN
155	1.000000	0.762544	7.36656e+06	-46389.1	955.817	-29769.8	0.000000	0.000000	6.763047	-0.036154	NaN	0.000000	0.001731	0.001694	28.1143	0.062334	0.001990	31.3214	-162.682	-164.579	0.044534	0.761251	-0.333503	-0.334796	-0.036154	31.3214	-0.332637	-14257.8	2.535761E-6	NaN
155	1.000000	0.772530	7.36656e+06	-46389.1	955.818	-29769.8	0.000000	0.000000	6.773035	0.027186	NaN	0.000000	0.001628	0.001670	28.1262	0.073355	0.002130	34.4361	25.305	10.3143	0.037159	0.771214	-0.323518	-0.324833	0.027186	34.4361	-0.324110	-10692.2	-2.542582E-6	NaN
155	1.000000	0.782530	7.36656e+06	-46389.1	955.818	-29769.8	0.000000	0.000000	6.783034	-0.014526	NaN	0.000000	0.001632	0.001697	28.0859	0.095426	0.001940	49.1984	-70.6084	-165.376	0.006473	0.781205	-0.313518	-0.314843	-0.014526	49.1984	-0.313296	-7409.53	1.960393E-6	NaN
155	1.000000	0.792566	7.36656e+06	-46389.1	955.817	-29769.8	0.000000	0.000000	6.793069	-0.034481	NaN	0.000000	0.001650	0.001671	28.0825	0.058011	0.002043	28.3892	-155.487	16.5244	-0.072224	0.791194	-0.303481	-0.304853	-0.034481	28.3892	-0.302570	-5138.88	6.709878E-6	NaN
155	1.000000	0.802579	7.36656e+06	-46389.1	955.819	-29769.8	0.000000	0.000000	6.803083	-0.011225	NaN	0.000000	0.001673	0.001650	28.1146	0.073423	0.001988	36.9402	70.4486	-166.714	0.058276	0.801296	-0.293469	-0.294751	-0.011225	36.9402	-0.293241	-3730.79	3.008777E-6	NaN
155	1.000000	0.812546	7.36656e+06	-46389.1	955.818	-29769.8	0.000000	0.000000	6.813049	-0.044415	NaN	0.000000	0.001639	0.001668	28.1264	0.125227	0.001846	67.8215	-25.044	15.2306	-0.033774	0.811249	-0.283501	-0.284798	-0.044415	67.8215	-0.283010	-2620.19	1.695105E-5	NaN
155	1.000000	0.822568	7.36656e+06	-46389.1	955.818	-29769.8	0.000000	0.000000	6.823071	-0.023117	NaN	0.000000	0.001645	0.001649	28.0862	0.087260	0.001940	44.99	47.9442	-166.524	-0.023190	0.821287	-0.273479	-0.274761	-0.023117	44.99	-0.273094	-1855.75	1.245713E-5	NaN
155	1.000000	0.832569	7.36656e+06	-46389.1	955.819	-29769.8	0.000000	0.000000	6.833070	-0.075917	NaN	0.000000	0.001634	0.001662	28.0818	0.102648	0.001986	51.6877	-160.774	9.415921	-0.081663	0.831183	-0.263478	-0.264865	-0.075917	51.6877	-0.262377	-1274.4	5.957109E-5	NaN
155	1.000000	0.842604	7.36656e+06	-46389.1	955.817	-29769.8	0.000000	0.000000	6.843107	-0.021492	NaN	0.000000	0.001646	0.001658	28.1158	0.100568	0.002046	49.1478	168.143	-168.04	-0.035805	0.841277	-0.253444	-0.254771	-0.021492	49.1478	-0.253116	-918.509	2.339855E-5	NaN
155	1.000000	0.852591	7.36656e+06	-46389.1	955.819	-29769.8	0.000000	0.000000	6.853093	-0.046377	NaN	0.000000	0.001641	0.001662	28.1279	0.045410	0.001978	22.9598	-111.109	13.0665	-0.054799	0.851180	-0.243457	-0.244867	-0.046377	22.9598	-0.241942	-616.389	7.523919E-5	NaN
155	1.000000	0.862581	7.36656e+06	-46389.1	955.818	-29769.8	0.000000	0.000000	6.863083	-0.073050	NaN	0.000000	0.001656	0.001657	28.0879	0.051788	0.001965	26.3592	101.05	-170.741	-0.047181	0.861283	-0.233466	-0.234765	-0.073050	26.3592	-0.231388	-421.126	0.000173	NaN
155	1.000000	0.872603	7.36656e+06	-46389.1	955.819	-29769.8	0.000000	0.000000	6.873110	0.054334	NaN	0.000000	0.001670	0.001629	28.0814	0.041489	0.001958	21.1935	86.8417	17.7435	0.078398	0.871224	-0.223444	-0.224823	0.054334	21.1935	-0.225367	-338.193	-0.000161	NaN
155	1.000000	0.882586	7.36656e+06	-46389.1	955.819	-29769.8	0.000000	0.000000	6.883089	-0.021356	NaN	0.000000	0.001624	0.001658	28.1144	0.096162	0.002093	45.9436	-116.058	-169.566	-0.072069	0.881310	-0.213462	-0.214738	-0.021356	45.9436	-0.213113	-215.342	9.917124E-5	NaN
155	1.000000	0.892595	7.36656e+06	-46389.1	955.818	-29769.8	0.000000	0.000000	6.893100	0.023830	NaN	0.000000	0.001630	0.001647	28.1263	0.084633	0.001970	42.9615	66.3972	12.3846	-0.019255	0.891213	-0.203453	-0.204835	0.023830	42.9615	-0.203869	-152.439	-0.000156	NaN
155	1.000000	0.902618	7.36656e+06	-46389.1	955.819	-29769.8	0.000000	0.000000	6.903118	-0.092200	NaN	0.000000	0.001606	0.001652	28.0873	0.102210	0.001995	51.2301	158.82	-166.856	-0.068203	0.901302	-0.193430	-0.194745	-0.092200	51.2301	-0.192080	-97.4339	0.000946	NaN
155	1.000000	0.912641	7.36656e+06	-46389.1	955.818	-29769.8	0.000000	0.000000	6.913143	-0.047724	NaN	0.000000	0.001618	0.001662	28.0824	0.064507	0.002000	32.254	170.353	13.1906	-0.009206	0.911267	-0.183407	-0.184781	-0.047724	32.254	-0.182297	-66.7514	0.000715	NaN
155	1.000000	0.922622	7.36656e+06	-46389.1	955.819	-29769.8	0.000000	0.000000	6.923123	-0.073793	NaN	0.000000	0.001633	0.001630	28.1152	0.067302	0.002030	33.1531	105.399	-166.355	-0.117074	0.921310	-0.173425	-0.174737	-0.073793	33.1531	-0.171756	-44.0606	0.001675	NaN
155	1.000000	0.932588	7.36656e+06	-46389.1	955.818	-29769.8	0.000000	0.000000	6.933090	-0.057242	NaN	0.000000	0.001596	0.001663	28.1267	0.012274	0.002053	5.978381	-117.519	14.8975	-0.084343	0.931263	-0.163459	-0.164785	-0.057242	5.978381	-0.156278	-23.5258	0.002433	NaN
155	1.000000	0.942596	7.36656e+06	-46389.1	955.818	-29769.8	0.000000	0.000000	6.943100	-0.006047	NaN	0.000000	0.001590	0.001652	28.0858	0.055324	0.001990	27.803	-145.87	-166.001	-0.064576	0.941306	-0.153451	-0.154742	-0.006047	27.803	-0.153288	-20.7831	0.000291	NaN
155	1.000000	0.952649	7.36656e+06	-46389.1	955.818	-29769.8	0.000000	0.000000	6.953150	-0.076507	NaN	0.000000	0.001610	0.001653	28.081	0.078436	0.001933	40.5775	-34.4085	11.9325	-0.049816	0.951334	-0.143399	-0.144713	-0.076507	40.5775	-0.141985	-12.8865	0.005937	NaN
155	1.000000	0.962628	7.36656e+06	-46389.1	955.818	-29769.8	0.000000	0.000000	6.963130	-0.054239	NaN	0.000000	0.001610	0.001671	28.1125	0.043882	0.001986	22.0924	16.2294	-166.754	-0.046083	0.961307	-0.133419	-0.134741	-0.054239	22.0924	-0.131578	-8.176760	0.006633	NaN
155	1.000000	0.972627	7.36656e+06	-46389.1	955.818	-29769.8	0.000000	0.000000	6.973132	0.023987	NaN	0.000000	0.001609	0.001661	28.1254	0.094803	0.002024	46.835	50.2012	12.2297	-0.050475	0.971252	-0.123421	-0.124795	0.023987	46.835	-0.123805	-5.758202	-0.004166	NaN
155	1.000000	0.982666	7.36656e+06	-46389.1	955.818	-29769.8	0.000000	0.000000	6.983168	-0.035840	NaN	0.000000	0.001613	0.001666	28.0865	0.010831	0.002037	5.317990	-10.1548	-164.531	-0.130834	0.981325	-0.113382	-0.114722	-0.035840	5.317990	-0.108327	-2.769899	0.012939	NaN
155	1.000000	0.992624	7.36656e+06	-46389.1	955.818	-29769.8	0.000000	0.000000	6.993126	-0.054503	NaN	0.000000	0.001640	0.001622	28.0793	0.053626	0.001917	27.9734	-29.796	14.7121	-0.095204	0.991301	-0.103423	-0.104746	-0.054503	27.9734	-0.101962	-2.018554	0.027001	NaN
155	1.000000	1.002630	7.36656e+06	-46389.1	955.818	-29769.8	0.000000	0.000000	7.003135	0.017812	NaN	0.000000	0.001602	0.001623	28.1133	0.103658	0.001995	51.9511	155.758	-163.387	-0.011418	1.001360	-0.093417	-0.094687	0.017812	51.9511	-0.093675	-1.315520	-0.013540	NaN
155	1.000000	1.012649	7.36656e+06	-46389.1	955.819	-29769.8	0.000000	0.000000	7.013154	0.014357	NaN	0.000000	0.001621	0.001641	28.1265	0.078661	0.002035	38.661	147.862	13.643	-0.073135	1.011272	-0.083398	-0.084776	0.014357	38.661	-0.083677	-0.762994	-0.018816	NaN
155	1.000000	1.022627	7.36656e+06	-46389.1	955.819	-29769.8	0.000000	0.000000	7.023129	-0.072426	NaN	0.000000	0.001621	0.001650	28.0874	0.050154	0.001985	25.2664	-133.976	-163.654	-0.001845	1.021357	-0.073420	-0.074691	-0.072426	25.2664	-0.071270	-0.368778	0.196396	NaN
155	1.000000	1.032640	7.36656e+06	-46389.1	955.818	-29769.8	0.000000	0.000000	7.033143	-0.044021	NaN	0.000000	0.001625	0.001591	28.0811	0.072611	0.001960	37.0478	-131.11	12.6801	-0.087672	1.031313	-0.063407	-0.064734	-0.044021	37.0478	-0.062516	-0.212362	0.207294	NaN
155	1.000000	1.042647	7.36656e+06	-46389.1	955.818	-29769.8	0.000000	0.000000	7.043152	0.013952	NaN	0.000000	0.001651	0.001611	28.1116	0.029566	0.001976	14.9622	36.7158	-166.124	0.067393	1.041324	-0.053400	-0.054724	0.013952	14.9622	-0.054100	-0.121106	-0.115203	NaN
155	1.000000	1.052657	7.36656e+06	-46389.1	955.817	-29769.8	0.000000	0.000000	7.053158	-0.091003	NaN	0.000000	0.001628	0.001613	28.1257	0.158612	0.002026	78.301	-129.817	13.5392	-0.104288	1.051272	-0.043390	-0.044775	-0.091003	78.301	-0.042518	-0.053964	1.686354	NaN
155	1.000000	1.062684	7.36656e+06	-46389.1	955.818	-29769.8	0.000000	0.000000	7.063186	-0.064031	NaN	0.000000	0.001621	0.001643	28.0856	0.133251	0.002051	64.9639	69.3628	-167.5	0.028534	1.061424	-0.033364	-0.034623	-0.064031	64.9639	-0.032624	-0.027309	2.344690	NaN
155	1.000000	1.072700	7.36656e+06	-46389.1	955.818	-29769.8	0.000000	0.000000	7.073205	0.018891	NaN	0.000000	0.001612	0.001607	28.083	0.086796	0.001974	43.9601	-96.2153	16.5419	-0.001740	1.071317	-0.023348	-0.024730	0.018891	43.9601	-0.023670	-0.015582	-1.212380	NaN
155	1.000000	1.082664	7.36656e+06	-46389.1	955.818	-29769.8	0.000000	0.000000	7.083167	-0.035535	NaN	0.000000	0.001658	0.001618	28.1142	0.008247	0.001971	4.184669	62.5143	-165.375	-0.030386	1.081375	-0.013383	-0.014673	-0.035535	4.184669	-0.007014	-0.004649	7.643778	NaN
155	1.000000	1.092665	7.36656e+06	-46389.1	955.818	-29769.8	0.000000	0.000000	7.093167	-0.066500	NaN	0.000000	0.001625	0.001639	28.1281	0.060592	0.001918	31.5894	53.3702	15.8914	-0.056632	1.091317	-0.003382	-0.004731	-0.066500	31.5894	-0.001803	-0.001303	51.0524	NaN
155	1.000000	1.102628	7.36656e+06	-46389.1	955.818	-29769.8	0.000000	0.000000	7.103344	5.147335	NaN	0.000000	0.001667	0.001652	28.0889	5.670744	0.001950	2907.58	8.361022	-166.779	3.711307	1.101368	0.006580	0.005320	5.147335	2907.58	0.005253	0.004365	1179.21	40207.8
155	2.000000	1.107712	7.36656e+06	-46389.1	955.817	-29769.8	0.000000	0.000000	7.108697	11.7089	NaN	0.000000	0.001692	0.001601	28.0822	10.3487	0.001730	5982.22	2.756789	9.520142	10.5483	1.107349	0.011664	0.011302	11.7089	5982.22	0.010196	0.009400	1245.6	56372.5
155	2.000000	1.110194	7.36656e+06	-46389.1	955.818	-29769.8	0.000000	0.000000	7.111309	14.8526	NaN	0.000000	0.001648	0.001630	28.1126	13.4649	0.001868	7208.66	9.533769	-177.378	14.6953	1.109889	0.014146	0.013841	14.8526	7208.66	0.012601	0.012218	1215.63	59583.6
155	2.000000	1.112699	7.36656e+06	-46389.1	955.819	-29769.8	0.000000	0.000000	7.114070	21.0832	NaN	0.000000	0.001663	0.001642	28.1275	15.2771	0.001703	8969.19	6.833276	3.166075	20.3989	1.112301	0.016652	0.016253	21.0832	8969.19	0.014889	0.015138	1392.77	66603.5
155	2.000000	1.115158	7.36656e+06	-46389.1	955.819	-29769.8	0.000000	0.000000	7.116718	25.6703	NaN	0.000000	0.001628	0.001611	28.0874	17.9339	0.001807	9926.54	4.806931	-175.866	24.9808	1.114883	0.019111	0.018835	25.6703	9926.54	0.017171	0.018291	1403.44	67058.3
155	2.000000	1.117642	7.36656e+06	-46389.1	955.818	-29769.8	0.000000	0.000000	7.119441	31.5013	NaN	0.000000	0.001651	0.001626	28.0815	20.4605	0.001760	11624.9	3.076283	4.906092	30.348	1.117321	0.021594	0.021273	31.5013	11624.9	0.019562	0.021858	1441.14	71837.4
155	2.000000	1.120145	7.36656e+06	-46389.1	955.818	-29769.8	0.000000	0.000000	7.122146	36.4085	NaN	0.000000	0.001646	0.001608	28.1137	24.352	0.001944	12526.2	8.884234	178.828	36.9996	1.119879	0.024097	0.023831	36.4085	12526.2	0.021917	0.025645	1419.71	71464.3
155	2.000000	1.122666	7.36656e+06	-46389.1	955.819	-29769.8	0.000000	0.000000	7.124929	42.763	NaN	0.000000	0.001629	0.001638	28.1284	25.1124	0.001719	14608.2	4.330321	1.853553	43.237	1.122313	0.026619	0.026266	42.763	14608.2	0.024423	0.029975	1426.63	77088.7
155	2.000000	1.125112	7.36656e+06	-46389.1	955.818	-29769.8	0.000000	0.000000	7.127676	50.098	NaN	0.000000	0.001641	0.001629	28.0884	27.3294	0.001723	15859	1.349926	-176.705	50.2503	1.124852	0.029065	0.028804	50.098	15859	0.026695	0.034172	1466.04	78381.3
155	2.000000	1.127605	7.36656e+06	-46389.1	955.818	-29769.8	0.000000	0.000000	7.130459	57.1645	NaN	0.000000	0.001690	0.001628	28.0825	30.3678	0.001760	17256.3	7.201858	-3.467939	55.9757	1.127353	0.031557	0.031306	57.1645	17256.3	0.029073	0.038844	1471.64	79994.4
155	2.000000	1.130076	7.36656e+06	-46389.1	955.818	-29769.8	0.000000	0.000000	7.133334	66.9945	NaN	0.000000	0.001645	0.001598	28.1116	32.8235	0.001874	17519.1	4.007707	-179.316	65.0881	1.129808	0.034029	0.033761	66.9945	17519.1	0.031161	0.043183	1551.39	77024.1
155	2.000000	1.132554	7.36656e+06	-46389.1	955.818	-29769.8	0.000000	0.000000	7.136069	73.2401	NaN	0.000000	0.001650	0.001586	28.1259	34.027	0.001636	20794.6	3.088097	-0.856653	70.2783	1.132260	0.036506	0.036213	73.2401	20794.6	0.033865	0.049136	1490.56	85708.8
155	2.000000	1.135123	7.36656e+06	-46389.1	955.817	-29769.8	0.000000	0.000000	7.139085	84.105	NaN	0.000000	0.001667	0.001634	28.0869	36.0887	0.001710	21100.1	4.828619	178.082	84.4656	1.134758	0.039075	0.038711	84.105	21100.1	0.036086	0.054305	1548.76	82725.2
155	2.000000	1.137590	7.36656e+06	-46389.1	955.818	-29769.8	0.000000	0.000000	7.141901	92.6019	NaN	0.000000	0.001710	0.001613	28.0812	39.7953	0.001801	22091.7	7.001403	-4.877089	90.0603	1.137166	0.041542	0.041119	92.6019	22091.7	0.038399	0.059956	1544.51	82430.4
155	2.000000	1.140163	7.36656e+06	-46389.1	955.818	-29769.8	0.000000	0.000000	7.144598	95.6272	NaN	0.000000	0.001682	0.001614	28.1118	42.4989	0.001796	23656.7	5.605128	175.569	95.7015	1.139887	0.044115	0.043840	95.6272	23656.7	0.041084	0.066859	1430.28	83588.7
155	2.000000	1.142574	7.36656e+06	-46389.1	955.818	-29769.8	0.000000	0.000000	7.147588	109.705	NaN	0.000000	0.001736	0.001618	28.1273	43.396	0.001743	24897.8	3.692616	-2.175194	106.306	1.142248	0.046527	0.046201	109.705	24897.8	0.043222	0.072620	1510.67	84412.4
155	2.000000	1.145055	7.36656e+06	-46389.1	955.818	-29769.8	0.000000	0.000000	7.150465	119.335	NaN	0.000000	0.001712	0.001631	28.0877	46.5089	0.001788	26011.3	5.363669	175.828	118.61	1.144788	0.049008	0.048740	119.335	26011.3	0.045567	0.079204	1506.67	84442.6
155	2.000000	1.147498	7.36656e+06	-46389.1	955.818	-29769.8	0.000000	0.000000	7.153253	127.735	NaN	0.000000	0.001697	0.001644	28.0813	49.5669	0.001886	26284.4	3.447953	-1.878367	122.241	1.147233	0.051450	0.051186	127.735	26284.4	0.047805	0.085751	1489.61	82007.5
155	2.000000	1.150074	7.36656e+06	-46389.1	955.817	-29769.8	0.000000	0.000000	7.156433	142.428	NaN	0.000000	0.001734	0.001631	28.1109	52.3925	0.001847	28365	5.991931	173.954	140.573	1.149778	0.054026	0.053730	142.428	28365	0.050260	0.093220	1527.87	84879.4
155	2.000000	1.152585	7.36656e+06	-46389.1	955.818	-29769.8	0.000000	0.000000	7.159484	155.568	NaN	0.000000	0.001682	0.001598	28.1262	53.2393	0.001668	31911.1	3.316427	-4.745719	152.612	1.152246	0.056537	0.056198	155.568	31911.1	0.052881	0.101525	1532.31	91501.7
155	2.000000	1.155053	7.36656e+06	-46389.1	955.818	-29769.8	0.000000	0.000000	7.162445	167.556	NaN	0.000000	0.001713	0.001633	28.0865	54.8893	0.001816	30230.6	5.571364	174.914	166.286	1.154735	0.059005	0.058687	167.556	30230.6	0.054848	0.107985	1551.66	84050.1
155	2.000000	1.157483	7.36656e+06	-46389.1	955.819	-29769.8	0.000000	0.000000	7.165206	175.604	NaN	0.000000	0.001666	0.001634	28.0796	57.5031	0.001791	32104.9	1.541873	-2.385260	169.365	1.157276	0.061435	0.061228	175.604	32104.9	0.057333	0.116419	1508.38	85967.3
155	2.000000	1.160109	7.36656e+06	-46389.1	955.818	-29769.8	0.000000	0.000000	7.168375	188.818	NaN	0.000000	0.001661	0.001664	28.1119	62.0282	0.001901	32624.9	8.163093	171	189.564	1.159861	0.064061	0.063814	188.818	32624.9	0.059721	0.124809	1512.85	84372.2
155	2.000000	1.162599	7.36656e+06	-46389.1	955.819	-29769.8	0.000000	0.000000	7.171555	205.591	NaN	0.000000	0.001637	0.001652	28.1277	62.6906	0.001817	34505	3.261610	-4.406433	203.482	1.162234	0.066552	0.066187	205.591	34505	0.062083	0.133383	1541.35	86318.6
155	2.000000	1.165055	7.36656e+06	-46389.1	955.82	-29769.8	0.000000	0.000000	7.174813	225.094	NaN	0.000000	0.001623	0.001651	28.0888	65.0438	0.001850	35167.3	7.038703	171.424	223.798	1.164688	0.069008	0.068640	225.094	35167.3	0.064207	0.141326	1592.74	85467.6
155	2.000000	1.167540	7.36656e+06	-46389.1	955.819	-29769.8	0.000000	0.000000	7.177795	237.189	NaN	0.000000	0.001699	0.001651	28.082	68.4232	0.001818	37644.3	6.406941	-8.395175	232.811	1.167162	0.071493	0.071115	237.189	37644.3	0.066767	0.151186	1568.86	88454
155	2.000000	1.170028	7.36656e+06	-46389.1	955.819	-29769.8	0.000000	0.000000	7.180778	249.243	NaN	0.000000	0.001700	0.001649	28.112	71.0126	0.001904	37289.2	5.940780	172.201	246.341	1.169701	0.073980	0.073654	249.243	37289.2	0.068967	0.159913	1558.62	85195.2
155	2.000000	1.172419	7.36656e+06	-46389.1	955.819	-29769.8	0.000000	0.000000	7.183601	259.728	NaN	0.000000	0.001646	0.001673	28.1278	71.0774	0.001687	42137.3	2.018890	-5.470857	250.819	1.172223	0.076372	0.076176	259.728	42137.3	0.071749	0.171276	1516.43	93023.3
155	2.000000	1.175051	7.36656e+06	-46389.1	955.819	-29769.8	0.000000	0.000000	7.187027	279.053	NaN	0.000000	0.001647	0.001652	28.0882	72.1905	0.001768	40832.4	0.455331	177.495	277.671	1.174742	0.079003	0.078694	279.053	40832.4	0.073877	0.180218	1548.42	87877.7
155	2.000000	1.177534	7.36656e+06	-46389.1	955.818	-29769.8	0.000000	0.000000	7.190044	292.048	NaN	0.000000	0.001650	0.001667	28.0812	76.6189	0.001757	43596.1	9.613614	-13.1493	288.934	1.177185	0.081486	0.081137	292.048	43596.1	0.076462	0.191364	1526.14	91052.3
155	2.000000	1.180033	7.36656e+06	-46389.1	955.818	-29769.8	0.000000	0.000000	7.193418	313.316	NaN	0.000000	0.001621	0.001688	28.1129	78.9955	0.001861	42438.3	3.390956	173.642	311.257	1.179735	0.083985	0.083687	313.316	42438.3	0.078448	0.200142	1565.47	86668.6
155	2.000000	1.182572	7.36656e+06	-46389.1	955.818	-29769.8	0.000000	0.000000	7.196554	327.864	NaN	0.000000	0.001624	0.001643	28.1293	79.6908	0.001657	48098.9	0.583403	-4.190775	325.467	1.182301	0.086524	0.086253	327.864	48098.9	0.081412	0.213583	1535.07	95087.8
155	2.000000	1.185000	7.36656e+06	-46389.1	955.818	-29769.8	0.000000	0.000000	7.199658	344.287	NaN	0.000000	0.001647	0.001632	28.0887	82.296	0.001722	47787.2	2.622999	173.484	341.501	1.184708	0.088952	0.088661	344.287	47787.2	0.083549	0.223529	1540.24	92346
155	2.000000	1.187486	7.36656e+06	-46389.1	955.819	-29769.8	0.000000	0.000000	7.203086	367.198	NaN	0.000000	0.001616	0.001617	28.0838	85.9037	0.001695	50680.8	5.892114	-9.802937	361.954	1.187145	0.091439	0.091098	367.198	50680.8	0.086005	0.235218	1561.09	95473.1
155	2.000000	1.189974	7.36656e+06	-46389.1	955.818	-29769.8	0.000000	0.000000	7.206244	383.504	NaN	0.000000	0.001642	0.001650	28.1114	89.2132	0.001829	48777.1	5.126852	171.402	378.406	1.189723	0.093927	0.093675	383.504	48777.1	0.088030	0.245067	1564.9	90021.7
155	2.000000	1.192546	7.36656e+06	-46389.1	955.818	-29769.8	0.000000	0.000000	7.209442	398.736	NaN	0.000000	0.001636	0.001578	28.1286	91.2915	0.001792	50934.1	7.405054	-11.4925	396.61	1.192148	0.096499	0.096100	398.736	50934.1	0.090627	0.257975	1545.64	91620.7
155	2.000000	1.195067	7.36656e+06	-46389.1	955.817	-29769.8	0.000000	0.000000	7.212687	416.326	NaN	0.000000	0.001658	0.001609	28.0878	92.8421	0.001802	51515.9	4.156639	171.914	417.908	1.194685	0.099020	0.098637	416.326	51515.9	0.092959	0.269824	1542.95	90609.5
155	2.000000	1.197439	7.36656e+06	-46389.1	955.818	-29769.8	0.000000	0.000000	7.215882	436.371	NaN	0.000000	0.001626	0.001626	28.0819	94.0115	0.001808	51998.3	3.583748	-7.373691	430.674	1.197175	0.101391	0.101128	436.371	51998.3	0.095097	0.280913	1553.4	89634.7
155	2.000000	1.199997	7.36656e+06	-46389.1	955.818	-29769.8	0.000000	0.000000	7.219356	458.656	NaN	0.000000	0.001647	0.001627	28.1107	97.8133	0.001820	53729.4	5.938529	169.507	455.748	1.199689	0.103949	0.103641	458.656	53729.4	0.097547	0.293870	1560.75	90554.1
155	2.000000	1.202468	7.36656e+06	-46389.1	955.818	-29769.8	0.000000	0.000000	7.222627	478.125	NaN	0.000000	0.001649	0.001642	28.1288	98.5147	0.001631	60393.8	6.288918	-11.1135	472.167	1.202082	0.106420	0.106035	478.125	60393.8	0.100482	0.309757	1543.55	99141.4
155	2.000000	1.204485	7.36656e+06	-46389.1	955.819	-29769.8	0.000000	0.000000	7.225073	488.533	NaN	0.000000	0.001659	0.001684	28.1285	100.64	0.001862	54046.9	2.604221	-7.482268	482.14	1.204210	0.108438	0.108163	488.533	54046.9	0.101658	0.316231	1544.86	87809.4