File: remote_trans/data/nanoindenter/0828-1/data/Data_2025-08-06,11h17m57s/2025-07-22_16-23-58_1_57.txt
2025-07-22, 16:23:58, 1
Index	Phase	Displacement	Time	Pos X	Pos Y	Pos Z	Rot A	Rot B	Piezo Z	Force A	Force B	Gripper	Voltage A	Voltage B	Temperature	Amplitude force	Amplitude pos	Stiffness	Phase shift	Phase excitation	Force A raw	Displacement raw	HMax	HMax raw	Real Force	Real Stiffness	Contact Depth	Area	Hardness	Reduced Mod.
[#]	[#]	[um]	[s]	[um]	[um]	[um]	[m°]	[m°]	[um]	[uN]	[uN]	[V]	[V]	[V]	[°C]	[uN]	[um]	[N/m]	[°]	[°]	[uN]	[um]	[um]	[um]	[uN]	[N/m]	[um]	[um^2]	[MPa]	[MPa]
57	1.000000	0.002747	7.3656e+06	-41489.1	955.819	-29786.7	0.000000	0.000000	6.002814	-0.056536	NaN	0.000000	0.001658	0.001722	28.1008	0.026000	0.001012	25.7013	-75.7485	-168.615	-0.033866	0.001448	-1.086790	-1.088089	-0.056536	25.7013	-1.085140	-3.166332E+14	1.785522E-16	NaN
57	1.000000	0.012798	7.3656e+06	-41489.1	955.818	-29786.7	0.000000	0.000000	6.012867	-0.005118	NaN	0.000000	0.001617	0.001734	28.0799	0.017967	0.001191	15.0897	117.866	11.7486	-0.057858	0.011366	-1.076740	-1.078171	-0.005118	15.0897	-1.076486	-2.422800E+14	2.112283E-17	NaN
57	1.000000	0.022708	7.3656e+06	-41489.1	955.818	-29786.7	0.000000	0.000000	6.022776	-0.031932	NaN	0.000000	0.001643	0.001718	28.0944	0.074871	0.001597	46.8845	-165.138	-163.434	-0.011902	0.021403	-1.066829	-1.068135	-0.031932	46.8845	-1.066319	-1.768998E+14	1.805107E-16	NaN
57	1.000000	0.032683	7.3656e+06	-41489.1	955.818	-29786.7	0.000000	0.000000	6.032752	-0.006978	NaN	0.000000	0.001610	0.001757	28.1298	0.096001	0.001895	50.6502	-173.412	12.5994	-0.035928	0.031344	-1.056855	-1.058194	-0.006978	50.6502	-1.056751	-1.315709E+14	5.303356E-17	NaN
57	1.000000	0.042700	7.3656e+06	-41489.1	955.818	-29786.7	0.000000	0.000000	6.042769	-0.012177	NaN	0.000000	0.001639	0.001755	28.0998	0.074521	0.002056	36.2414	-107.246	-162.271	-0.027987	0.041372	-1.046837	-1.048166	-0.012177	36.2414	-1.046585	-9.605251E+13	1.267751E-16	NaN
57	1.000000	0.052707	7.3656e+06	-41489.1	955.819	-29786.7	0.000000	0.000000	6.052774	-0.063419	NaN	0.000000	0.001638	0.001759	28.0789	0.016257	0.001924	8.451594	160.99	12.5715	-0.099429	0.051360	-1.036830	-1.038177	-0.063419	8.451594	-1.031202	-5.965601E+13	1.063078E-15	NaN
57	1.000000	0.062681	7.3656e+06	-41489.1	955.818	-29786.7	0.000000	0.000000	6.062752	0.036044	NaN	0.000000	0.001637	0.001780	28.0923	0.022961	0.001983	11.5797	124.066	-166.211	0.029033	0.061325	-1.026857	-1.028212	0.036044	11.5797	-1.029191	-5.605330E+13	-6.430346E-16	NaN
57	1.000000	0.072694	7.3656e+06	-41489.1	955.819	-29786.7	0.000000	0.000000	6.072761	-0.051610	NaN	0.000000	0.001609	0.001754	28.1305	0.024924	0.002095	11.8954	-5.151520	15.4837	-0.100064	0.071335	-1.016844	-1.018203	-0.051610	11.8954	-1.013590	-3.456973E+13	1.492914E-15	NaN
57	1.000000	0.082694	7.3656e+06	-41489.1	955.818	-29786.7	0.000000	0.000000	6.082761	-0.061629	NaN	0.000000	0.001591	0.001760	28.1006	0.068575	0.001947	35.2209	155.397	-161.535	-0.106527	0.081409	-1.006844	-1.008129	-0.061629	35.2209	-1.005531	-2.692976E+13	2.288498E-15	NaN
57	1.000000	0.092697	7.3656e+06	-41489.1	955.818	-29786.7	0.000000	0.000000	6.092766	-0.009760	NaN	0.000000	0.001644	0.001747	28.0796	0.076103	0.001963	38.7677	-113.522	15.2819	-0.057225	0.091367	-0.996840	-0.998171	-0.009760	38.7677	-0.996651	-2.044948E+13	4.772783E-16	NaN
57	1.000000	0.102707	7.3656e+06	-41489.1	955.819	-29786.7	0.000000	0.000000	6.102776	-0.006842	NaN	0.000000	0.001579	0.001714	28.0938	0.039680	0.002020	19.6479	142.972	-159.859	0.025737	0.101402	-0.986830	-0.988136	-0.006842	19.6479	-0.986569	-1.495908E+13	4.573889E-16	NaN
57	1.000000	0.112747	7.3656e+06	-41489.1	955.818	-29786.7	0.000000	0.000000	6.112815	-0.024351	NaN	0.000000	0.001578	0.001714	28.1287	0.017977	0.001887	9.525277	172.425	13.8569	-0.072406	0.111357	-0.976791	-0.978181	-0.024351	9.525277	-0.974874	-1.040735E+13	2.339821E-15	NaN
57	1.000000	0.122727	7.3656e+06	-41489.1	955.818	-29786.7	0.000000	0.000000	6.122796	-0.010453	NaN	0.000000	0.001566	0.001777	28.0999	0.017116	0.001949	8.783584	-91.2886	-168.315	-0.087049	0.121435	-0.966810	-0.968103	-0.010453	8.783584	-0.965918	-7.882129E+12	1.326136E-15	NaN
57	1.000000	0.132711	7.3656e+06	-41489.1	955.819	-29786.7	0.000000	0.000000	6.132780	-0.023697	NaN	0.000000	0.001573	0.001787	28.0788	0.059628	0.002098	28.4189	-177.538	17.4385	0.009199	0.131346	-0.956826	-0.958192	-0.023697	28.4189	-0.956201	-5.829702E+12	4.064901E-15	NaN
57	1.000000	0.142757	7.3656e+06	-41489.1	955.818	-29786.7	0.000000	0.000000	6.142826	-0.017335	NaN	0.000000	0.001626	0.001777	28.092	0.102374	0.002066	49.5618	-175.455	-165.802	-0.038618	0.141423	-0.946780	-0.948115	-0.017335	49.5618	-0.946518	-4.315820E+12	4.016623E-15	NaN
57	1.000000	0.152738	7.3656e+06	-41489.1	955.819	-29786.7	0.000000	0.000000	6.152804	-0.082193	NaN	0.000000	0.001584	0.001799	28.1296	0.072767	0.002013	36.1468	151.94	14.9152	-0.024308	0.151388	-0.936799	-0.938149	-0.082193	36.1468	-0.935094	-3.026498E+12	2.715779E-14	NaN
57	1.000000	0.162722	7.3656e+06	-41489.1	955.819	-29786.7	0.000000	0.000000	6.162787	-0.092385	NaN	0.000000	0.001588	0.001808	28.1014	0.064528	0.002170	29.7411	-123.237	-162.905	-0.067105	0.161417	-0.926816	-0.928120	-0.092385	29.7411	-0.924486	-2.176570E+12	4.244502E-14	NaN
57	1.000000	0.172702	7.3656e+06	-41489.1	955.819	-29786.7	0.000000	0.000000	6.172769	-0.066694	NaN	0.000000	0.001611	0.001792	28.081	0.112717	0.002109	53.4475	107.744	14.3962	-0.105028	0.171380	-0.916836	-0.918157	-0.066694	53.4475	-0.915900	-1.666646E+12	4.001696E-14	NaN
57	1.000000	0.182752	7.3656e+06	-41489.1	955.818	-29786.7	0.000000	0.000000	6.182822	0.010735	NaN	0.000000	0.001602	0.001762	28.0941	0.079003	0.001973	40.052	-54.6165	-164.808	-0.025853	0.181412	-0.906786	-0.908125	0.010735	40.052	-0.906987	-1.263165E+12	-8.498769E-15	NaN
57	1.000000	0.192721	7.3656e+06	-41489.1	955.819	-29786.7	0.000000	0.000000	6.192788	-0.063645	NaN	0.000000	0.001563	0.001770	28.1303	0.155645	0.002036	76.4612	44.2866	13.0247	-0.101763	0.191337	-0.896816	-0.898201	-0.063645	76.4612	-0.896192	-9.028311E+11	7.049520E-14	NaN
57	1.000000	0.202734	7.3656e+06	-41489.1	955.818	-29786.7	0.000000	0.000000	6.202804	0.008320	NaN	0.000000	0.001549	0.001728	28.1014	0.090652	0.001889	47.9993	57.0105	-164.749	0.036357	0.201465	-0.886804	-0.888073	0.008320	47.9993	-0.886934	-6.768071E+11	-1.229355E-14	NaN
57	1.000000	0.212751	7.3656e+06	-41489.1	955.818	-29786.7	0.000000	0.000000	6.212819	-0.026454	NaN	0.000000	0.001581	0.001699	28.08	0.021450	0.001991	10.7747	99.4867	13.3966	-0.020051	0.211378	-0.876787	-0.878160	-0.026454	10.7747	-0.874946	-4.659599E+11	5.677323E-14	NaN
57	1.000000	0.222726	7.3656e+06	-41489.1	955.819	-29786.7	0.000000	0.000000	6.222791	-0.099244	NaN	0.000000	0.001539	0.001773	28.0934	0.019400	0.002016	9.621165	58.3989	-169.317	-0.119354	0.221481	-0.866812	-0.868057	-0.099244	9.621165	-0.859075	-2.841881E+11	3.492184E-13	NaN
57	1.000000	0.232804	7.3656e+06	-41489.1	955.817	-29786.7	0.000000	0.000000	6.232871	-0.067820	NaN	0.000000	0.001564	0.001744	28.1308	0.059804	0.001944	30.7608	-179.096	15.4727	-0.044786	0.231451	-0.856733	-0.858086	-0.067820	30.7608	-0.855080	-2.509096E+11	2.702963E-13	NaN
57	1.000000	0.242771	7.3656e+06	-41489.1	955.817	-29786.7	0.000000	0.000000	6.242840	-0.013672	NaN	0.000000	0.001571	0.001727	28.1034	0.058993	0.002026	29.1179	-86.478	-163.485	-0.032586	0.241511	-0.846766	-0.848027	-0.013672	29.1179	-0.846414	-1.915035E+11	7.139429E-14	NaN
57	1.000000	0.252769	7.3656e+06	-41489.1	955.819	-29786.7	0.000000	0.000000	6.252837	-0.050720	NaN	0.000000	0.001500	0.001746	28.0802	0.140954	0.002110	66.8093	93.8224	12.6605	-0.066644	0.251381	-0.836768	-0.838157	-0.050720	66.8093	-0.836199	-1.392494E+11	3.642372E-13	NaN
57	1.000000	0.262778	7.3656e+06	-41489.1	955.818	-29786.7	0.000000	0.000000	6.262844	-0.078214	NaN	0.000000	0.001620	0.001761	28.0943	0.095922	0.002086	45.9934	-121.517	-165.435	-0.086444	0.261467	-0.826760	-0.828070	-0.078214	45.9934	-0.825485	-9.967250E+10	7.847069E-13	NaN
57	1.000000	0.272784	7.3656e+06	-41489.1	955.817	-29786.7	0.000000	0.000000	6.272849	-0.099274	NaN	0.000000	0.001574	0.001797	28.1298	0.057584	0.001852	31.0927	-69.2895	18.4044	-0.031192	0.271434	-0.816754	-0.818104	-0.099274	31.0927	-0.814359	-7.042249E+10	1.409693E-12	NaN
57	1.000000	0.282791	7.3656e+06	-41489.1	955.818	-29786.7	0.000000	0.000000	6.282861	0.017134	NaN	0.000000	0.001573	0.001802	28.1019	0.095146	0.002094	45.4277	15.6044	-166.136	0.003848	0.281437	-0.806747	-0.808101	0.017134	45.4277	-0.807030	-5.601061E+10	-3.058977E-13	NaN
57	1.000000	0.292813	7.3656e+06	-41489.1	955.819	-29786.7	0.000000	0.000000	6.292884	0.029945	NaN	0.000000	0.001582	0.001792	28.0809	0.084111	0.002083	40.3883	176.011	14.8151	-0.037539	0.291417	-0.796725	-0.798120	0.029945	40.3883	-0.797281	-4.129988E+10	-7.250537E-13	NaN
57	1.000000	0.302769	7.3656e+06	-41489.1	955.818	-29786.7	0.000000	0.000000	6.302837	-0.024447	NaN	0.000000	0.001624	0.001744	28.0926	0.058670	0.001876	31.2717	65.5173	-164.555	-0.061634	0.301499	-0.786769	-0.788039	-0.024447	31.2717	-0.786183	-2.919000E+10	8.375113E-13	NaN
57	1.000000	0.312797	7.3656e+06	-41489.1	955.818	-29786.7	0.000000	0.000000	6.312868	0.045461	NaN	0.000000	0.001612	0.001741	28.1296	0.053113	0.001978	26.8525	-135.583	14.1593	-0.069859	0.311443	-0.776740	-0.778094	0.045461	26.8525	-0.778010	-2.260429E+10	-2.011151E-12	NaN
57	1.000000	0.322802	7.3656e+06	-41489.1	955.819	-29786.7	0.000000	0.000000	6.322869	-0.075292	NaN	0.000000	0.001629	0.001711	28.1023	0.043942	0.001919	22.8994	94.8168	-165.356	-0.013132	0.321483	-0.766735	-0.768055	-0.075292	22.8994	-0.764269	-1.470198E+10	5.121197E-12	NaN
57	1.000000	0.332815	7.3656e+06	-41489.1	955.818	-29786.7	0.000000	0.000000	6.332883	-0.037978	NaN	0.000000	0.001638	0.001750	28.0799	0.047332	0.001958	24.174	177.243	17.7859	-0.101537	0.331518	-0.756722	-0.758020	-0.037978	24.174	-0.755544	-1.118602E+10	3.395116E-12	NaN
57	1.000000	0.342808	7.3656e+06	-41489.1	955.818	-29786.7	0.000000	0.000000	6.342874	-0.094502	NaN	0.000000	0.001618	0.001758	28.0918	0.075501	0.002084	36.2257	-128.521	-164.891	-0.089824	0.341503	-0.746730	-0.748035	-0.094502	36.2257	-0.744773	-7.981031E+9	1.184077E-11	NaN
57	1.000000	0.352829	7.3656e+06	-41489.1	955.819	-29786.7	0.000000	0.000000	6.352897	-0.048318	NaN	0.000000	0.001620	0.001713	28.1286	0.078096	0.002155	36.2312	169.279	14.3035	0.018072	0.351458	-0.736708	-0.738079	-0.048318	36.2312	-0.735708	-6.006083E+9	8.044849E-12	NaN
57	1.000000	0.362815	7.3656e+06	-41489.1	955.819	-29786.7	0.000000	0.000000	6.362882	-0.073602	NaN	0.000000	0.001575	0.001744	28.1012	0.083765	0.002041	41.0378	-45.9007	-163.674	-0.005123	0.361528	-0.726722	-0.728009	-0.073602	41.0378	-0.725377	-4.343049E+9	1.694715E-11	NaN
57	1.000000	0.372825	7.3656e+06	-41489.1	955.817	-29786.7	0.000000	0.000000	6.372888	-0.138830	NaN	0.000000	0.001590	0.001757	28.0787	0.123114	0.001977	62.2822	121.413	16.695	-0.130847	0.371439	-0.716713	-0.718099	-0.138830	62.2822	-0.715041	-3.139301E+9	4.422309E-11	NaN
57	1.000000	0.382804	7.3656e+06	-41489.1	955.818	-29786.7	0.000000	0.000000	6.382871	-0.071332	NaN	0.000000	0.001603	0.001739	28.0906	0.104900	0.001951	53.7612	-50.6737	-163.412	-0.064372	0.381477	-0.706733	-0.708060	-0.071332	53.7612	-0.705738	-2.343567E+9	3.043728E-11	NaN
57	1.000000	0.392829	7.3656e+06	-41489.1	955.818	-29786.7	0.000000	0.000000	6.392896	-0.062754	NaN	0.000000	0.001591	0.001724	28.1299	0.025771	0.001925	13.387	128.878	13.3356	0.011917	0.391483	-0.696708	-0.698055	-0.062754	13.387	-0.693193	-1.579591E+9	3.972795E-11	NaN
57	1.000000	0.402859	7.3656e+06	-41489.1	955.819	-29786.7	0.000000	0.000000	6.402927	-0.013104	NaN	0.000000	0.001615	0.001755	28.1032	0.047522	0.002012	23.6154	93.2476	-163.78	-0.051463	0.401558	-0.686679	-0.687979	-0.013104	23.6154	-0.686263	-1.270108E+9	1.031717E-11	NaN
57	1.000000	0.412853	7.3656e+06	-41489.1	955.819	-29786.7	0.000000	0.000000	6.412920	-0.072550	NaN	0.000000	0.001612	0.001753	28.08	0.101885	0.002005	50.8183	-51.7661	17.5544	-0.071937	0.411502	-0.676685	-0.678035	-0.072550	50.8183	-0.675614	-9.082559E+8	7.987832E-11	NaN
57	1.000000	0.422832	7.3656e+06	-41489.1	955.818	-29786.7	0.000000	0.000000	6.422900	-0.040502	NaN	0.000000	0.001586	0.001721	28.0919	0.100429	0.002006	50.0713	117.692	-165.851	-0.057158	0.421543	-0.666706	-0.667994	-0.040502	50.0713	-0.666099	-6.729592E+8	6.018484E-11	NaN
57	1.000000	0.432849	7.3656e+06	-41489.1	955.817	-29786.7	0.000000	0.000000	6.432917	-0.036254	NaN	0.000000	0.001616	0.001727	28.1285	0.034240	0.002124	16.1178	-106.395	13.3182	-0.099739	0.431504	-0.656689	-0.658034	-0.036254	16.1178	-0.655002	-4.742346E+8	7.644783E-11	NaN
57	1.000000	0.442847	7.3656e+06	-41489.1	955.818	-29786.7	0.000000	0.000000	6.442913	-0.074420	NaN	0.000000	0.001603	0.001676	28.1021	0.025523	0.002164	11.7958	-69.0337	-163.497	-0.047968	0.441549	-0.646691	-0.647988	-0.074420	11.7958	-0.641959	-3.141738E+8	2.368754E-10	NaN
57	1.000000	0.452840	7.3656e+06	-41489.1	955.819	-29786.7	0.000000	0.000000	6.452908	-0.023270	NaN	0.000000	0.001552	0.001708	28.0803	0.064551	0.001915	33.7069	155.264	14.9637	-0.040905	0.451498	-0.636698	-0.638040	-0.023270	33.7069	-0.636180	-2.617385E+8	8.890700E-11	NaN
57	1.000000	0.462858	7.3656e+06	-41489.1	955.818	-29786.7	0.000000	0.000000	6.462928	0.008482	NaN	0.000000	0.001551	0.001738	28.0924	0.051489	0.002011	25.6038	178.333	-167.116	0.047586	0.461557	-0.626679	-0.627980	0.008482	25.6038	-0.626928	-1.953560E+8	-4.341812E-11	NaN
57	1.000000	0.472854	7.3656e+06	-41489.1	955.818	-29786.7	0.000000	0.000000	6.472923	0.002087	NaN	0.000000	0.001555	0.001703	28.1305	0.050930	0.002017	25.2554	124.976	15.5412	0.005785	0.471510	-0.616684	-0.618027	0.002087	25.2554	-0.616746	-1.415450E+8	-1.474312E-11	NaN
57	1.000000	0.482863	7.3656e+06	-41489.1	955.819	-29786.7	0.000000	0.000000	6.482933	0.013853	NaN	0.000000	0.001605	0.001728	28.1042	0.103212	0.002075	49.7406	-158.101	-164.043	-0.049001	0.481589	-0.606675	-0.607949	0.013853	49.7406	-0.606884	-1.035692E+8	-1.337515E-10	NaN
57	1.000000	0.492893	7.3656e+06	-41489.1	955.818	-29786.7	0.000000	0.000000	6.492959	-0.075618	NaN	0.000000	0.001572	0.001719	28.0818	0.026060	0.001900	13.718	44.4201	14.7524	-0.089173	0.491505	-0.596645	-0.598033	-0.075618	13.718	-0.592511	-6.565645E+7	1.151716E-9	NaN
57	1.000000	0.502871	7.3656e+06	-41489.1	955.818	-29786.7	0.000000	0.000000	6.502941	0.019749	NaN	0.000000	0.001581	0.001719	28.0934	0.091588	0.001878	48.771	-142.387	-167.368	-0.008778	0.501557	-0.586666	-0.587981	0.019749	48.771	-0.586970	-5.506643E+7	-3.586387E-10	NaN
57	1.000000	0.512875	7.3656e+06	-41489.1	955.819	-29786.7	0.000000	0.000000	6.512940	-0.106816	NaN	0.000000	0.001587	0.001705	28.1294	0.033645	0.001981	16.9875	163.825	13.0432	-0.195692	0.511601	-0.576663	-0.577937	-0.106816	16.9875	-0.571947	-3.416077E+7	3.126867E-9	NaN
57	1.000000	0.522874	7.3656e+06	-41489.1	955.818	-29786.7	0.000000	0.000000	6.522942	-0.027670	NaN	0.000000	0.001565	0.001715	28.1033	0.118828	0.002023	58.746	131.396	-168.107	-0.135798	0.521612	-0.566664	-0.567925	-0.027670	58.746	-0.566310	-2.855219E+7	9.691101E-10	NaN
57	1.000000	0.532897	7.3656e+06	-41489.1	955.819	-29786.7	0.000000	0.000000	6.532964	-0.063863	NaN	0.000000	0.001589	0.001725	28.0797	0.119198	0.002042	58.3796	-39.5939	14.2333	-0.059400	0.531524	-0.556641	-0.558014	-0.063863	58.3796	-0.555820	-2.044277E+7	3.123979E-9	NaN
57	1.000000	0.542894	7.3656e+06	-41489.1	955.818	-29786.7	0.000000	0.000000	6.542963	-0.018690	NaN	0.000000	0.001594	0.001708	28.0924	0.050398	0.002041	24.6878	144.64	-163.745	-0.131716	0.541568	-0.546643	-0.547970	-0.018690	24.6878	-0.546075	-1.498248E+7	1.247476E-9	NaN
57	1.000000	0.552874	7.3656e+06	-41489.1	955.819	-29786.7	0.000000	0.000000	6.552942	-0.022025	NaN	0.000000	0.001587	0.001691	28.1304	0.053142	0.002053	25.8843	-76.8412	14.9439	0.046042	0.551514	-0.536664	-0.538024	-0.022025	25.8843	-0.536026	-1.086984E+7	2.026240E-9	NaN
57	1.000000	0.562901	7.3656e+06	-41489.1	955.817	-29786.7	0.000000	0.000000	6.562968	-0.068032	NaN	0.000000	0.001624	0.001672	28.1048	0.094892	0.002081	45.591	60.0328	-165.243	-0.091621	0.561619	-0.526636	-0.527919	-0.068032	45.591	-0.525517	-7.76778e+06	8.758192E-9	NaN
57	1.000000	0.572902	7.3656e+06	-41489.1	955.819	-29786.7	0.000000	0.000000	6.572969	-0.060476	NaN	0.000000	0.001559	0.001657	28.0811	0.036612	0.001955	18.7253	170.89	14.5488	-0.123614	0.571566	-0.516636	-0.517972	-0.060476	18.7253	-0.514213	-5.4086e+06	1.118148E-8	NaN
57	1.000000	0.582899	7.3656e+06	-41489.1	955.819	-29786.7	0.000000	0.000000	6.582968	-0.015546	NaN	0.000000	0.001586	0.001701	28.0918	0.093942	0.001991	47.1913	37.6498	-162.38	0.024510	0.581526	-0.506639	-0.508012	-0.015546	47.1913	-0.506391	-4.20861e+06	3.693836E-9	NaN
57	1.000000	0.592932	7.3656e+06	-41489.1	955.818	-29786.7	0.000000	0.000000	6.593000	-0.034431	NaN	0.000000	0.001589	0.001682	28.1282	0.039857	0.002055	19.3967	-165.989	14.6593	-0.024110	0.591602	-0.496605	-0.497936	-0.034431	19.3967	-0.495274	-2.94482e+06	1.169214E-8	NaN
57	1.000000	0.602901	7.3656e+06	-41489.1	955.819	-29786.7	0.000000	0.000000	6.602968	-0.063202	NaN	0.000000	0.001598	0.001661	28.1029	0.046668	0.001879	24.8326	-29.7143	-166.551	-0.110410	0.601597	-0.486636	-0.487941	-0.063202	24.8326	-0.484727	-2.09739e+06	3.013366E-8	NaN
57	1.000000	0.612923	7.3656e+06	-41489.1	955.819	-29786.7	0.000000	0.000000	6.612993	0.013914	NaN	0.000000	0.001601	0.001679	28.0792	0.015532	0.002073	7.493932	7.272922	12.2691	0.000419	0.611606	-0.476615	-0.477931	0.013914	7.493932	-0.478008	-1.689e+06	-8.237812E-9	NaN
57	1.000000	0.622929	7.3656e+06	-41489.1	955.818	-29786.7	0.000000	0.000000	6.622996	-0.058921	NaN	0.000000	0.001599	0.001694	28.0895	0.167830	0.002049	81.9122	-132.688	-169.444	-0.050773	0.621629	-0.466608	-0.467908	-0.058921	81.9122	-0.466069	-1.14882e+06	5.128853E-8	NaN
57	1.000000	0.632925	7.3656e+06	-41489.1	955.818	-29786.7	0.000000	0.000000	6.632991	-0.073126	NaN	0.000000	0.001595	0.001706	28.1298	0.055588	0.001978	28.0994	-105.379	15.2983	-0.109646	0.631577	-0.456613	-0.457960	-0.073126	28.0994	-0.454661	-794230	9.207184E-8	NaN
57	1.000000	0.642936	7.3656e+06	-41489.1	955.819	-29786.7	0.000000	0.000000	6.643005	-0.019556	NaN	0.000000	0.001597	0.001709	28.1042	0.028671	0.001945	14.7412	169.55	-166.465	-0.065622	0.641653	-0.446602	-0.447884	-0.019556	14.7412	-0.445607	-592168	3.302427E-8	NaN
57	1.000000	0.652944	7.3656e+06	-41489.1	955.818	-29786.7	0.000000	0.000000	6.653012	-0.030297	NaN	0.000000	0.001597	0.001745	28.0803	0.080190	0.002204	36.3867	-140.952	17.1576	0.040389	0.651613	-0.436594	-0.437924	-0.030297	36.3867	-0.435969	-432964	6.997603E-8	NaN
57	1.000000	0.662914	7.3656e+06	-41489.1	955.818	-29786.7	0.000000	0.000000	6.662981	-0.042921	NaN	0.000000	0.001589	0.001739	28.091	0.083193	0.002028	41.0214	-105.489	-165.265	-0.038324	0.661589	-0.426624	-0.427949	-0.042921	41.0214	-0.425839	-311292	1.378804E-7	NaN
57	1.000000	0.672903	7.3656e+06	-41489.1	955.819	-29786.7	0.000000	0.000000	6.672970	-0.069991	NaN	0.000000	0.001658	0.001731	28.1288	0.087741	0.002015	43.5416	161.639	15.8098	-0.053149	0.671580	-0.416634	-0.417957	-0.069991	43.5416	-0.415429	-221587	3.158624E-7	NaN
57	1.000000	0.682954	7.3656e+06	-41489.1	955.818	-29786.7	0.000000	0.000000	6.683022	-0.030216	NaN	0.000000	0.001645	0.001757	28.1022	0.031995	0.002029	15.7702	-133.516	-165.702	0.001125	0.681660	-0.406583	-0.407878	-0.030216	15.7702	-0.405146	-158246	1.909431E-7	NaN
57	1.000000	0.692986	7.3656e+06	-41489.1	955.818	-29786.7	0.000000	0.000000	6.693053	-0.039734	NaN	0.000000	0.001631	0.001713	28.0781	0.066557	0.002036	32.6892	58.6596	14.683	-0.018963	0.691593	-0.396552	-0.397944	-0.039734	32.6892	-0.395640	-115819	3.430674E-7	NaN
57	1.000000	0.703001	7.3656e+06	-41489.1	955.818	-29786.7	0.000000	0.000000	6.703067	-0.080039	NaN	0.000000	0.001618	0.001684	28.0899	0.059540	0.002151	27.6743	-25.2247	-164.476	-0.088044	0.701638	-0.386537	-0.387900	-0.080039	27.6743	-0.384368	-79895.8	1.001790E-6	NaN
57	1.000000	0.712981	7.3656e+06	-41489.1	955.819	-29786.7	0.000000	0.000000	6.713048	-0.060971	NaN	0.000000	0.001602	0.001706	28.1294	0.049168	0.001871	26.278	-115.324	13.0114	-0.023501	0.711593	-0.376556	-0.377945	-0.060971	26.278	-0.374816	-58267.9	1.046392E-6	NaN
57	1.000000	0.722961	7.3656e+06	-41489.1	955.818	-29786.7	0.000000	0.000000	6.723028	-0.067199	NaN	0.000000	0.001578	0.001680	28.1057	0.118080	0.002110	55.9599	-102.919	-165.373	-0.023968	0.721654	-0.366576	-0.367883	-0.067199	55.9599	-0.365676	-43033.2	1.561551E-6	NaN
57	1.000000	0.732981	7.3656e+06	-41489.1	955.817	-29786.7	0.000000	0.000000	6.733047	-0.090624	NaN	0.000000	0.001544	0.001717	28.0817	0.108697	0.002064	52.673	9.933641	14.5028	-0.117572	0.731629	-0.356557	-0.357909	-0.090624	52.673	-0.355266	-30433.5	2.977786E-6	NaN
57	1.000000	0.742980	7.3656e+06	-41489.1	955.818	-29786.7	0.000000	0.000000	6.743047	-0.072054	NaN	0.000000	0.001596	0.001712	28.0919	0.067717	0.001860	36.4116	63.1244	-165.249	-0.086154	0.741642	-0.346557	-0.347896	-0.072054	36.4116	-0.345073	-21648.2	3.328379E-6	NaN
57	1.000000	0.752994	7.3656e+06	-41489.1	955.819	-29786.7	0.000000	0.000000	6.753062	-0.030348	NaN	0.000000	0.001591	0.001701	28.1295	0.077537	0.002050	37.8171	-138.065	14.0313	-0.101082	0.751618	-0.336544	-0.337920	-0.030348	37.8171	-0.335942	-15934.9	1.904493E-6	NaN
57	1.000000	0.762979	7.3656e+06	-41489.1	955.819	-29786.7	0.000000	0.000000	6.763046	-0.059322	NaN	0.000000	0.001568	0.001729	28.1042	0.155757	0.002010	77.4903	-119.353	-163.117	-0.071985	0.761696	-0.326559	-0.327841	-0.059322	77.4903	-0.325985	-11391.8	5.207450E-6	NaN
57	1.000000	0.772988	7.3656e+06	-41489.1	955.817	-29786.7	0.000000	0.000000	6.773056	-0.030255	NaN	0.000000	0.001541	0.001701	28.0791	0.048101	0.002058	23.3746	72.6912	16.9825	-0.054251	0.771592	-0.316550	-0.317946	-0.030255	23.3746	-0.315579	-8007.37	3.778342E-6	NaN
57	1.000000	0.782983	7.3656e+06	-41489.1	955.817	-29786.7	0.000000	0.000000	6.783051	-0.034368	NaN	0.000000	0.001585	0.001730	28.0911	0.107626	0.001990	54.083	56.1569	-165.751	-0.152370	0.781687	-0.306555	-0.307851	-0.034368	54.083	-0.306078	-5793.67	5.931974E-6	NaN
57	1.000000	0.792994	7.3656e+06	-41489.1	955.819	-29786.7	0.000000	0.000000	6.793062	-0.039692	NaN	0.000000	0.001571	0.001694	28.1303	0.088257	0.002119	41.6549	-128.062	13.6054	-0.129369	0.791650	-0.296544	-0.297888	-0.039692	41.6549	-0.295829	-4078.18	9.732856E-6	NaN
57	1.000000	0.802998	7.3656e+06	-41489.1	955.819	-29786.7	0.000000	0.000000	6.803065	-0.053182	NaN	0.000000	0.001529	0.001700	28.1061	0.011819	0.001935	6.106676	162.992	-166.89	0.002184	0.801648	-0.286540	-0.287890	-0.053182	6.106676	-0.280009	-2361.02	2.252490E-5	NaN
57	1.000000	0.813021	7.3656e+06	-41489.1	955.818	-29786.7	0.000000	0.000000	6.813085	-0.122681	NaN	0.000000	0.001545	0.001677	28.081	0.077628	0.001967	39.4594	-76.2353	13.8359	-0.111513	0.811671	-0.276517	-0.277867	-0.122681	39.4594	-0.274185	-1927.77	6.363876E-5	NaN
57	1.000000	0.822998	7.3656e+06	-41489.1	955.818	-29786.7	0.000000	0.000000	6.823063	-0.105748	NaN	0.000000	0.001553	0.001703	28.0917	0.048814	0.002040	23.9227	-92.6437	-163.992	-6.088554E-5	0.821750	-0.266539	-0.267788	-0.105748	23.9227	-0.263224	-1313	8.053950E-5	NaN
57	1.000000	0.832993	7.3656e+06	-41489.1	955.819	-29786.7	0.000000	0.000000	6.833061	-0.041677	NaN	0.000000	0.001523	0.001706	28.1288	0.063064	0.002138	29.4909	-176.79	13.8552	-0.009850	0.831650	-0.256544	-0.257888	-0.041677	29.4909	-0.255484	-999.012	4.171838E-5	NaN
57	1.000000	0.842989	7.3656e+06	-41489.1	955.818	-29786.7	0.000000	0.000000	6.843055	-0.069584	NaN	0.000000	0.001560	0.001694	28.1059	0.019782	0.002025	9.770162	-49.4785	-166.538	-0.089859	0.841687	-0.246549	-0.247850	-0.069584	9.770162	-0.241208	-600.348	0.000116	NaN
57	1.000000	0.853028	7.3656e+06	-41489.1	955.819	-29786.7	0.000000	0.000000	6.853094	-0.084740	NaN	0.000000	0.001577	0.001744	28.079	0.113522	0.001997	56.855	122.777	16.3368	-0.127980	0.851659	-0.236510	-0.237879	-0.084740	56.855	-0.235392	-486.86	0.000174	NaN
57	1.000000	0.863010	7.3656e+06	-41489.1	955.818	-29786.7	0.000000	0.000000	6.863077	-0.056217	NaN	0.000000	0.001555	0.001761	28.089	0.070500	0.001980	35.611	175.781	-163.687	-0.065406	0.861732	-0.226528	-0.227806	-0.056217	35.611	-0.225344	-337.904	0.000166	NaN
57	1.000000	0.873042	7.3656e+06	-41489.1	955.818	-29786.7	0.000000	0.000000	6.873109	-0.060255	NaN	0.000000	0.001551	0.001703	28.1285	0.100289	0.001955	51.3068	-37.624	17.1566	-0.006519	0.871666	-0.216495	-0.217872	-0.060255	51.3068	-0.215615	-236.264	0.000255	NaN
57	1.000000	0.883053	7.3656e+06	-41489.1	955.818	-29786.7	0.000000	0.000000	6.883119	-0.069295	NaN	0.000000	0.001576	0.001685	28.1052	0.047028	0.001989	23.644	117.509	-163.278	0.018370	0.881669	-0.206485	-0.207869	-0.069295	23.644	-0.204287	-154.854	0.000447	NaN
57	1.000000	0.893069	7.3656e+06	-41489.1	955.818	-29786.7	0.000000	0.000000	6.893135	-0.101990	NaN	0.000000	0.001578	0.001660	28.0792	0.059589	0.001989	29.9616	-166.443	17.2523	-0.024540	0.891661	-0.196468	-0.197876	-0.101990	29.9616	-0.193915	-104.524	0.000976	NaN
57	1.000000	0.903029	7.3656e+06	-41489.1	955.818	-29786.7	0.000000	0.000000	6.903096	-0.055887	NaN	0.000000	0.001569	0.001687	28.089	0.063146	0.002041	30.9452	108.606	-166.191	-0.050149	0.901701	-0.186509	-0.187837	-0.055887	30.9452	-0.185155	-74.5996	0.000749	NaN
57	1.000000	0.913058	7.3656e+06	-41489.1	955.819	-29786.7	0.000000	0.000000	6.913124	-0.080899	NaN	0.000000	0.001610	0.001780	28.1274	0.102696	0.001959	52.4215	25.171	15.1835	-0.102343	0.911744	-0.176480	-0.177794	-0.080899	52.4215	-0.175322	-50.759	0.001594	NaN
57	1.000000	0.923069	7.36561e+06	-41489.1	955.818	-29786.7	0.000000	0.000000	6.923136	-0.074081	NaN	0.000000	0.001582	0.001756	28.1044	0.061684	0.001972	31.2732	-90.2466	-164.695	-0.045136	0.921753	-0.166468	-0.167785	-0.074081	31.2732	-0.164692	-33.1812	0.002233	NaN
57	1.000000	0.933053	7.36561e+06	-41489.1	955.818	-29786.7	0.000000	0.000000	6.933120	-0.063923	NaN	0.000000	0.001573	0.001696	28.0793	0.156497	0.002039	76.7508	-62.9168	16.5287	-0.111732	0.931676	-0.156485	-0.157862	-0.063923	76.7508	-0.155860	-23.1228	0.002765	NaN
57	1.000000	0.943093	7.36561e+06	-41489.1	955.818	-29786.7	0.000000	0.000000	6.943161	-0.014421	NaN	0.000000	0.001587	0.001722	28.0889	0.092022	0.001940	47.4369	25.5051	-160.123	-0.030863	0.941755	-0.146445	-0.147782	-0.014421	47.4369	-0.146217	-15.4399	0.000934	NaN
57	1.000000	0.953047	7.36561e+06	-41489.1	955.818	-29786.7	0.000000	0.000000	6.953112	-0.100163	NaN	0.000000	0.001582	0.001760	28.1285	0.027586	0.001958	14.0852	-22.456	14.6862	-0.131870	0.951712	-0.136491	-0.137825	-0.100163	14.0852	-0.131157	-8.024968	0.012481	NaN
57	1.000000	0.963122	7.36561e+06	-41489.1	955.818	-29786.7	0.000000	0.000000	6.963190	-0.021743	NaN	0.000000	0.001602	0.001716	28.106	0.092897	0.001958	47.4482	49.0439	-167.383	-0.049785	0.961743	-0.126416	-0.127795	-0.021743	47.4482	-0.126072	-6.385131	0.003405	NaN
57	1.000000	0.973070	7.36561e+06	-41489.1	955.819	-29786.7	0.000000	0.000000	6.973137	-0.059053	NaN	0.000000	0.001603	0.001707	28.0803	0.064950	0.001927	33.7077	102.8	14.1695	0.043177	0.971696	-0.116468	-0.117842	-0.059053	33.7077	-0.115154	-3.848382	0.015345	NaN
57	1.000000	0.983063	7.36561e+06	-41489.1	955.819	-29786.7	0.000000	0.000000	6.983132	-0.021774	NaN	0.000000	0.001553	0.001733	28.0899	0.164414	0.002132	77.1185	177.127	-164.089	0.001268	0.981830	-0.106474	-0.107708	-0.021774	77.1185	-0.106263	-2.502432	0.008701	NaN
57	1.000000	0.993085	7.36561e+06	-41489.1	955.818	-29786.7	0.000000	0.000000	6.993150	-0.090557	NaN	0.000000	0.001589	0.001753	28.1282	0.019005	0.001954	9.726082	-162.353	12.3081	-0.011627	0.991704	-0.096453	-0.097833	-0.090557	9.726082	-0.089470	-1.050416	0.086210	NaN
57	1.000000	1.003106	7.36561e+06	-41489.1	955.818	-29786.7	0.000000	0.000000	7.003175	-0.007649	NaN	0.000000	0.001589	0.001732	28.1058	0.019454	0.002030	9.585251	-93.2471	-166.7	0.006033	1.001795	-0.086431	-0.087742	-0.007649	9.585251	-0.085833	-0.860572	0.008888	NaN
57	1.000000	1.013081	7.36561e+06	-41489.1	955.819	-29786.7	0.000000	0.000000	7.013148	-0.048738	NaN	0.000000	0.001583	0.001745	28.0802	0.119832	0.002170	55.225	79.4093	10.5992	0.003956	1.011680	-0.076457	-0.077858	-0.048738	55.225	-0.075795	-0.484214	0.100655	NaN
57	1.000000	1.023085	7.36561e+06	-41489.1	955.818	-29786.7	0.000000	0.000000	7.023154	-0.000724	NaN	0.000000	0.001590	0.001722	28.0897	0.024180	0.001942	12.4485	-154.239	-165.29	0.038939	1.021796	-0.066453	-0.067741	-0.000724	12.4485	-0.066409	-0.272568	0.002655	NaN
57	1.000000	1.033081	7.36561e+06	-41489.1	955.818	-29786.7	0.000000	0.000000	7.033148	-0.051444	NaN	0.000000	0.001554	0.001725	28.1298	0.064248	0.002095	30.6687	170.212	16.8034	-0.053794	1.031717	-0.056457	-0.057821	-0.051444	30.6687	-0.055199	-0.130529	0.394121	NaN
57	1.000000	1.043121	7.36561e+06	-41489.1	955.818	-29786.7	0.000000	0.000000	7.043188	-0.067556	NaN	0.000000	0.001579	0.001747	28.1076	0.091982	0.002012	45.7153	-161.593	-164.828	-0.067968	1.041775	-0.046417	-0.047762	-0.067556	45.7153	-0.045308	-0.065678	1.028596	NaN
57	1.000000	1.053112	7.36561e+06	-41489.1	955.819	-29786.7	0.000000	0.000000	7.053181	-0.010447	NaN	0.000000	0.001579	0.001747	28.0817	0.079210	0.001936	40.9193	-35.3909	10.5475	-0.120640	1.051777	-0.036426	-0.037761	-0.010447	40.9193	-0.036234	-0.034835	0.299897	NaN
57	1.000000	1.063096	7.36561e+06	-41489.1	955.819	-29786.7	0.000000	0.000000	7.063160	-0.140528	NaN	0.000000	0.001596	0.001725	28.0905	0.070151	0.002044	34.3174	-38.412	-165.292	-0.145423	1.061786	-0.026441	-0.027752	-0.140528	34.3174	-0.023370	-0.015308	9.180289	NaN
57	1.000000	1.073094	7.36561e+06	-41489.1	955.818	-29786.7	0.000000	0.000000	7.073170	0.162320	NaN	0.000000	0.001583	0.001704	28.1286	0.256754	0.002068	124.177	40.8665	15.7072	0.176966	1.071754	-0.016444	-0.017784	0.162320	124.177	-0.017424	-0.010784	-15.052	NaN
57	1.000000	1.083109	7.36561e+06	-41489.1	955.818	-29786.7	0.000000	0.000000	7.083198	0.477125	NaN	0.000000	0.001579	0.001676	28.106	0.628336	0.001993	315.235	38.5104	-162.694	0.485679	1.081742	-0.006429	-0.007796	0.477125	315.235	-0.007564	-0.004975	-95.8987	NaN
57	1.000000	1.093113	7.36561e+06	-41489.1	955.819	-29786.7	0.000000	0.000000	7.093225	1.032650	NaN	0.000000	0.001617	0.001704	28.0801	1.715883	0.001982	865.658	31.1692	10.6988	0.816247	1.091744	0.003576	0.002206	1.032650	865.658	0.002681	0.002113	488.668	17204.8
57	2.000000	1.101631	7.36561e+06	-41489.1	955.818	-29786.7	0.000000	0.000000	7.102199	12.1366	NaN	0.000000	0.001603	0.001764	28.0894	9.632831	0.001520	6335.67	7.493004	-173.126	11.4333	1.101212	0.012094	0.011674	12.1366	6335.67	0.010657	0.009921	1223.36	58115.8
57	2.000000	1.104126	7.36561e+06	-41489.1	955.818	-29786.7	0.000000	0.000000	7.104941	18.1574	NaN	0.000000	0.001612	0.001745	28.1292	12.7945	0.001771	7224.27	12.5673	2.479214	17.349	1.103773	0.014588	0.014235	18.1574	7224.27	0.012703	0.012343	1471.03	59408.8
57	2.000000	1.106608	7.36561e+06	-41489.1	955.819	-29786.7	0.000000	0.000000	7.107644	23.5206	NaN	0.000000	0.001608	0.001728	28.1073	15.3534	0.001668	9204.48	7.191032	-176.494	22.8618	1.106271	0.017070	0.016733	23.5206	9204.48	0.015154	0.015491	1518.36	67567.2
57	2.000000	1.109173	7.36561e+06	-41489.1	955.819	-29786.7	0.000000	0.000000	7.110521	31.0914	NaN	0.000000	0.001582	0.001708	28.0813	18.4784	0.001811	10205.5	11.8053	0.456170	32.9435	1.108730	0.019636	0.019192	31.0914	10205.5	0.017351	0.018549	1676.16	68461.3
57	2.000000	1.111557	7.36561e+06	-41489.1	955.819	-29786.7	0.000000	0.000000	7.113226	38.9448	NaN	0.000000	0.001583	0.001708	28.0903	20.3412	0.001821	11171.6	4.455929	-175.403	37.2013	1.111303	0.022019	0.021766	38.9448	11171.6	0.019404	0.021615	1801.76	69424.6
57	2.000000	1.114117	7.36561e+06	-41489.1	955.819	-29786.7	0.000000	0.000000	7.116160	48.0327	NaN	0.000000	0.001636	0.001732	28.1269	22.5087	0.001704	13207.9	5.969604	1.655795	48.9704	1.113766	0.024579	0.024228	48.0327	13207.9	0.021852	0.025536	1880.95	75514.1
57	2.000000	1.116561	7.36561e+06	-41489.1	955.818	-29786.7	0.000000	0.000000	7.119097	60.0344	NaN	0.000000	0.001591	0.001716	28.1062	25.9644	0.001894	13706.7	4.487218	-176.466	59.467	1.116290	0.027023	0.026752	60.0344	13706.7	0.023738	0.028760	2087.42	73843.3
57	2.000000	1.119025	7.36561e+06	-41489.1	955.819	-29786.7	0.000000	0.000000	7.121947	69.4019	NaN	0.000000	0.001590	0.001711	28.0797	26.8898	0.001751	15353.6	1.504125	5.226061	66.7893	1.118746	0.029488	0.029209	69.4019	15353.6	0.026097	0.033042	2100.39	77169.8
57	2.000000	1.121553	7.36561e+06	-41489.1	955.818	-29786.7	0.000000	0.000000	7.124987	81.8759	NaN	0.000000	0.001621	0.001700	28.0884	29.744	0.001843	16143	6.370366	179.738	81.2184	1.121231	0.032015	0.031694	81.8759	16143	0.028211	0.037117	2205.87	76554.1
57	2.000000	1.124024	7.36561e+06	-41489.1	955.818	-29786.7	0.000000	0.000000	7.128038	95.9848	NaN	0.000000	0.001630	0.001683	28.1281	31.5848	0.001887	16735.4	5.306016	1.235369	93.6363	1.123694	0.034486	0.034157	95.9848	16735.4	0.030184	0.041126	2333.89	75395.8
57	2.000000	1.126567	7.36561e+06	-41489.1	955.818	-29786.7	0.000000	0.000000	7.130943	104.789	NaN	0.000000	0.001626	0.001646	28.107	33.6672	0.002030	16587.5	3.992880	-177.182	104.749	1.126240	0.037029	0.036702	104.789	16587.5	0.032291	0.045626	2296.69	70949.1
57	2.000000	1.129098	7.36561e+06	-41489.1	955.819	-29786.7	0.000000	0.000000	7.134043	118.645	NaN	0.000000	0.001606	0.001656	28.081	35.2768	0.001870	18861.6	3.804419	1.545849	117.489	1.128665	0.039560	0.039128	118.645	18861.6	0.034843	0.051380	2309.15	76024.7
57	2.000000	1.131514	7.36561e+06	-41489.1	955.819	-29786.7	0.000000	0.000000	7.136556	120.998	NaN	0.000000	0.001612	0.001699	28.0884	37.4077	0.001819	20565.5	5.117974	178.692	119.811	1.131230	0.041976	0.041692	120.998	20565.5	0.037564	0.057884	2090.35	78096.9
57	2.000000	1.134101	7.36561e+06	-41489.1	955.818	-29786.7	0.000000	0.000000	7.139750	135.758	NaN	0.000000	0.001642	0.001682	28.1266	39.6945	0.001757	22588.5	3.700035	-0.850586	137.184	1.133812	0.044563	0.044275	135.758	22588.5	0.040056	0.064172	2115.53	81467.9
57	2.000000	1.136471	7.36561e+06	-41489.1	955.818	-29786.7	0.000000	0.000000	7.142946	155.868	NaN	0.000000	0.001619	0.001693	28.1061	42.9621	0.001804	23814.7	1.597775	-178.848	152.224	1.136189	0.046933	0.046651	155.868	23814.7	0.042024	0.069365	2247.08	82613.2
57	2.000000	1.139015	7.36561e+06	-41489.1	955.82	-29786.7	0.000000	0.000000	7.146052	169.534	NaN	0.000000	0.001685	0.001715	28.0789	44.594	0.001826	24426.6	7.456466	-4.588318	167.25	1.138692	0.049477	0.049154	169.534	24426.6	0.044272	0.075534	2244.48	81201.7
57	2.000000	1.141441	7.36561e+06	-41489.1	955.819	-29786.7	0.000000	0.000000	7.149519	194.882	NaN	0.000000	0.001644	0.001710	28.0878	46.2484	0.001774	26066	4.962020	176.816	189.971	1.141085	0.051903	0.051547	194.882	26066	0.046295	0.081308	2396.85	83518.3
57	2.000000	1.144015	7.36561e+06	-41489.1	955.819	-29786.7	0.000000	0.000000	7.152713	209.941	NaN	0.000000	0.001639	0.001723	28.1288	49.4019	0.001832	26966.6	7.717660	-5.398670	208.518	1.143592	0.054478	0.054055	209.941	26966.6	0.048639	0.088252	2378.88	82934.9
57	2.000000	1.146456	7.36561e+06	-41489.1	955.819	-29786.7	0.000000	0.000000	7.155308	213.705	NaN	0.000000	0.001643	0.001734	28.1089	51.1461	0.001824	28033.8	5.112548	176.563	209.706	1.146171	0.056918	0.056633	213.705	28033.8	0.051201	0.096160	2222.38	82595.5
57	2.000000	1.149065	7.36561e+06	-41489.1	955.82	-29786.7	0.000000	0.000000	7.158577	229.76	NaN	0.000000	0.001637	0.001728	28.081	52.6054	0.001858	28316.6	3.288535	-2.086058	229.3	1.148782	0.059528	0.059245	229.76	28316.6	0.053442	0.103348	2223.16	80475.2
57	2.000000	1.151479	7.36561e+06	-41489.1	955.819	-29786.7	0.000000	0.000000	7.161901	251.908	NaN	0.000000	0.001641	0.001723	28.0901	54.2492	0.001789	30317.8	3.135171	177.76	248.294	1.151134	0.061941	0.061596	251.908	30317.8	0.055710	0.110875	2272	83186.8
57	2.000000	1.154018	7.36561e+06	-41489.1	955.819	-29786.7	0.000000	0.000000	7.165038	266.452	NaN	0.000000	0.001660	0.001726	28.128	57.1564	0.001803	31701.6	4.688505	-4.564065	265.457	1.153754	0.064481	0.064217	266.452	31701.6	0.058177	0.119352	2232.48	83837.7
57	2.000000	1.156471	7.36561e+06	-41489.1	955.819	-29786.7	0.000000	0.000000	7.168712	296.17	NaN	0.000000	0.001618	0.001754	28.1077	60.3273	0.001760	34286.3	4.410591	175.255	293.762	1.156196	0.066933	0.066659	296.17	34286.3	0.060455	0.127444	2323.91	87747.2
57	2.000000	1.159069	7.36561e+06	-41489.1	955.82	-29786.7	0.000000	0.000000	7.172058	314.37	NaN	0.000000	0.001636	0.001743	28.0816	62.2398	0.001874	33205	6.837756	-5.676298	314.491	1.158513	0.069532	0.068975	314.37	33205	0.062431	0.134669	2334.38	82669
57	2.000000	1.161517	7.36561e+06	-41489.1	955.818	-29786.7	0.000000	0.000000	7.175459	337.563	NaN	0.000000	0.001631	0.001735	28.0882	62.9822	0.001737	36259.2	0.301578	178.786	335.345	1.161135	0.071979	0.071597	337.563	36259.2	0.064997	0.144333	2338.78	87198.5
57	2.000000	1.163944	7.36561e+06	-41489.1	955.819	-29786.7	0.000000	0.000000	7.178928	362.912	NaN	0.000000	0.001623	0.001718	28.1292	65.7458	0.001757	37421.5	0.548457	-1.392637	357.836	1.163578	0.074406	0.074040	362.912	37421.5	0.067132	0.152619	2377.9	87516.7
57	2.000000	1.166434	7.36561e+06	-41489.1	955.819	-29786.7	0.000000	0.000000	7.182228	382.607	NaN	0.000000	0.001618	0.001674	28.1087	68.8521	0.001715	40143.7	0.304813	178.402	379.757	1.166247	0.076897	0.076709	382.607	40143.7	0.069748	0.163066	2346.34	90825.8
57	2.000000	1.169071	7.36561e+06	-41489.1	955.82	-29786.7	0.000000	0.000000	7.186337	418.425	NaN	0.000000	0.001589	0.001727	28.0798	72.339	0.001780	40650.2	9.123303	-8.881753	417.803	1.168606	0.079533	0.079068	418.425	40650.2	0.071813	0.171542	2439.19	89670.6
57	2.000000	1.171354	7.36561e+06	-41489.1	955.819	-29786.7	0.000000	0.000000	7.188455	414.407	NaN	0.000000	0.001675	0.001692	28.0894	75.5232	0.001848	40874.6	5.599511	172.171	406.797	1.171061	0.081817	0.081523	414.407	40874.6	0.074213	0.181647	2281.39	87622.1
57	2.000000	1.173925	7.36561e+06	-41489.1	955.82	-29786.7	0.000000	0.000000	7.192621	453.219	NaN	0.000000	0.001592	0.001735	28.1277	76.3785	0.001808	42254.5	2.046572	-3.765855	447.034	1.173558	0.084387	0.084021	453.219	42254.5	0.076343	0.190843	2374.83	88370.6
57	2.000000	1.176427	7.36561e+06	-41489.1	955.819	-29786.7	0.000000	0.000000	7.196124	477.595	NaN	0.000000	0.001677	0.001735	28.1068	79.9303	0.001790	44649	2.550912	174.993	474.682	1.176115	0.086889	0.086577	477.595	44649	0.078867	0.202015	2364.15	90759.7
57	2.000000	1.178932	7.36561e+06	-41489.1	955.82	-29786.7	0.000000	0.000000	7.200123	513.939	NaN	0.000000	0.001680	0.001742	28.0791	81.3034	0.001792	45369.6	2.306846	-4.372531	506.35	1.178516	0.089394	0.088979	513.939	45369.6	0.080898	0.211223	2433.15	90191.8
57	2.000000	1.181459	7.36561e+06	-41489.1	955.82	-29786.7	0.000000	0.000000	7.203427	532.831	NaN	0.000000	0.001670	0.001721	28.0863	83.844	0.001815	46184.7	4.666286	172.35	531.142	1.181290	0.091922	0.091753	532.831	46184.7	0.083269	0.222214	2397.83	89512.9
57	2.000000	1.183930	7.36561e+06	-41489.1	955.82	-29786.7	0.000000	0.000000	7.207746	577.811	NaN	0.000000	0.001597	0.001718	28.1274	85.6558	0.001960	43704.3	3.013751	-5.081530	572.553	1.183494	0.094393	0.093956	577.811	43704.3	0.084477	0.227912	2535.23	83640
57	2.000000	1.186351	7.36561e+06	-41489.1	955.82	-29786.7	0.000000	0.000000	7.211681	614.659	NaN	0.000000	0.001620	0.001753	28.1076	86.7661	0.001823	47597.5	1.916267	175.649	607.165	1.186015	0.096813	0.096477	614.659	47597.5	0.087128	0.240657	2554.08	88645.7
57	2.000000	1.188940	7.36561e+06	-41489.1	955.82	-29786.7	0.000000	0.000000	7.215613	647.323	NaN	0.000000	0.001620	0.001685	28.0808	88.4493	0.001748	50592.5	7.068026	-9.097635	642.104	1.188524	0.099403	0.098986	647.323	50592.5	0.089807	0.253863	2549.89	91740.1
57	2.000000	1.191365	7.36561e+06	-41489.1	955.82	-29786.7	0.000000	0.000000	7.219333	678.848	NaN	0.000000	0.001611	0.001747	28.0883	91.6135	0.001834	49957.9	8.086060	169.075	672.106	1.191045	0.101827	0.101507	678.848	49957.9	0.091636	0.263070	2580.49	88990.1
57	2.000000	1.193897	7.36561e+06	-41489.1	955.82	-29786.7	0.000000	0.000000	7.223224	711.9	NaN	0.000000	0.001613	0.001714	28.1262	94.2635	0.001730	54477.7	5.797974	-9.076115	707.144	1.193596	0.104359	0.104058	711.9	54477.7	0.094559	0.278100	2559.87	94382.4
57	2.000000	1.196376	7.36561e+06	-41489.1	955.82	-29786.7	0.000000	0.000000	7.225903	716.769	NaN	0.000000	0.001628	0.001709	28.1076	97.1598	0.001835	52943.3	2.445837	173.699	710.913	1.196156	0.106838	0.106618	716.769	52943.3	0.096684	0.289276	2477.81	89935
57	2.000000	1.199187	7.36561e+06	-41489.1	955.819	-29786.7	0.000000	0.000000	7.230211	753.195	NaN	0.000000	0.001624	0.001714	28.0795	98.8297	0.001825	54141	5.828259	-9.309140	760.282	1.198719	0.109649	0.109181	753.195	54141	0.099216	0.302852	2487.01	89884.3
57	2.000000	1.199818	7.36561e+06	-41489.1	955.82	-29786.7	0.000000	0.000000	7.230884	754.224	NaN	0.000000	0.001620	0.001666	28.1259	100.634	0.001754	57387.8	4.943846	-9.284519	745.795	1.199664	0.110280	0.110126	754.224	57387.8	0.100423	0.309433	2437.44	94256.2