File: remote_trans/data/nanoindenter/0828-1/data/Data_2025-08-06,11h17m57s/2025-07-22_16-23-58_1_500.txt
2025-07-22, 16:23:58, 1
Index	Phase	Displacement	Time	Pos X	Pos Y	Pos Z	Rot A	Rot B	Piezo Z	Force A	Force B	Gripper	Voltage A	Voltage B	Temperature	Amplitude force	Amplitude pos	Stiffness	Phase shift	Phase excitation	Force A raw	Displacement raw	HMax	HMax raw	Real Force	Real Stiffness	Contact Depth	Area	Hardness	Reduced Mod.
[#]	[#]	[um]	[s]	[um]	[um]	[um]	[m°]	[m°]	[um]	[uN]	[uN]	[V]	[V]	[V]	[°C]	[uN]	[um]	[N/m]	[°]	[°]	[uN]	[um]	[um]	[um]	[uN]	[N/m]	[um]	[um^2]	[MPa]	[MPa]
500	1.000000	0.002574	7.36994e+06	-52089.1	1005.82	-29750.2	0.000000	0.000000	6.002776	-0.034088	NaN	0.000000	0.001520	0.001710	28.0833	0.094242	0.001147	82.1925	-3.873261	-171.372	0.013500	0.001331	-1.120649	-1.121893	-0.034088	82.1925	-1.120338	-9.397395E+14	3.627362E-17	NaN
500	1.000000	0.012684	7.36994e+06	-52089.1	1005.82	-29750.2	0.000000	0.000000	6.012885	-0.054540	NaN	0.000000	0.001528	0.001724	28.084	0.022369	0.001247	17.9331	-139.317	15.8516	-0.041492	0.011233	-1.110539	-1.111990	-0.054540	17.9331	-1.108258	-6.470064E+14	8.429546E-17	NaN
500	1.000000	0.022572	7.36994e+06	-52089.1	1005.82	-29750.2	0.000000	0.000000	6.022777	0.054443	NaN	0.000000	0.001526	0.001735	28.0839	0.064033	0.001720	37.2259	167.518	-168.467	0.065363	0.021239	-1.100651	-1.101984	0.054443	37.2259	-1.101748	-5.290931E+14	-1.028988E-16	NaN
500	1.000000	0.032549	7.36994e+06	-52089.1	1005.82	-29750.2	0.000000	0.000000	6.032752	-0.016625	NaN	0.000000	0.001521	0.001758	28.0839	0.040683	0.001871	21.7426	42.0677	14.0659	0.094355	0.031096	-1.090674	-1.092127	-0.016625	21.7426	-1.090100	-3.691147E+14	4.503906E-17	NaN
500	1.000000	0.042559	7.36994e+06	-52089.1	1005.82	-29750.2	0.000000	0.000000	6.042764	0.040840	NaN	0.000000	0.001551	0.001770	28.0815	0.123014	0.001833	67.1201	-82.0204	-164.224	0.076162	0.041258	-1.080664	-1.081965	0.040840	67.1201	-1.081120	-2.796178E+14	-1.460565E-16	NaN
500	1.000000	0.052556	7.36994e+06	-52089.1	1005.82	-29750.2	0.000000	0.000000	6.052759	-0.016747	NaN	0.000000	0.001522	0.001748	28.0824	0.194969	0.002023	96.3774	97.1913	12.2405	-0.013224	0.051190	-1.070667	-1.072033	-0.016747	96.3774	-1.070537	-2.015578E+14	8.308793E-17	NaN
500	1.000000	0.062540	7.36994e+06	-52089.1	1005.82	-29750.2	0.000000	0.000000	6.062742	-0.014169	NaN	0.000000	0.001569	0.001711	28.0826	0.073448	0.002007	36.5959	-159.927	-167.215	-0.058085	0.061230	-1.060683	-1.061993	-0.014169	36.5959	-1.060393	-1.472662E+14	9.621016E-17	NaN
500	1.000000	0.072566	7.36994e+06	-52089.1	1005.82	-29750.2	0.000000	0.000000	6.072772	0.062064	NaN	0.000000	0.001562	0.001735	28.0821	0.112466	0.002013	55.8696	-165.863	11.2971	0.057391	0.071121	-1.050657	-1.052103	0.062064	55.8696	-1.051490	-1.118010E+14	-5.551261E-16	NaN
500	1.000000	0.082543	7.36994e+06	-52089.1	1005.82	-29750.2	0.000000	0.000000	6.082747	0.029357	NaN	0.000000	0.001526	0.001754	28.0824	0.075267	0.002131	35.3211	-118.818	-166.77	0.017301	0.081188	-1.040680	-1.042035	0.029357	35.3211	-1.041304	-8.156397E+13	-3.599205E-16	NaN
500	1.000000	0.092574	7.36994e+06	-52089.1	1005.82	-29750.2	0.000000	0.000000	6.092774	-0.062056	NaN	0.000000	0.001574	0.001763	28.0827	0.108122	0.002062	52.4363	-63.2921	14.6591	0.015061	0.091187	-1.030650	-1.032036	-0.062056	52.4363	-1.029762	-5.705295E+13	1.087695E-15	NaN
500	1.000000	0.102600	7.36994e+06	-52089.1	1005.82	-29750.2	0.000000	0.000000	6.102801	-0.041348	NaN	0.000000	0.001565	0.001744	28.0825	0.017848	0.001993	8.957104	90.8442	-168.361	0.020402	0.101245	-1.020624	-1.021978	-0.041348	8.957104	-1.017161	-3.861522E+13	1.070760E-15	NaN
500	1.000000	0.112553	7.36994e+06	-52089.1	1005.82	-29750.2	0.000000	0.000000	6.112755	-0.021696	NaN	0.000000	0.001501	0.001759	28.0822	0.060363	0.001989	30.3424	116.478	17.01	-0.017856	0.111188	-1.010670	-1.012035	-0.021696	30.3424	-1.010134	-3.105891E+13	6.985527E-16	NaN
500	1.000000	0.122578	7.36994e+06	-52089.1	1005.82	-29750.2	0.000000	0.000000	6.122782	0.034778	NaN	0.000000	0.001541	0.001742	28.0823	0.052058	0.001984	26.2366	-10.2801	-165.615	0.091231	0.121209	-1.000646	-1.002014	0.034778	26.2366	-1.001640	-2.386958E+13	-1.457012E-15	NaN
500	1.000000	0.132585	7.36994e+06	-52089.1	1005.82	-29750.2	0.000000	0.000000	6.132787	-0.025179	NaN	0.000000	0.001556	0.001715	28.0823	0.047819	0.001851	25.8357	169.639	16.0099	0.021626	0.131189	-0.990638	-0.992034	-0.025179	25.8357	-0.989907	-1.659049E+13	1.517703E-15	NaN
500	1.000000	0.142576	7.36994e+06	-52089.1	1005.82	-29750.2	0.000000	0.000000	6.142775	-0.093925	NaN	0.000000	0.001539	0.001728	28.0822	0.016976	0.002021	8.398820	22.5008	-165.756	-0.054095	0.141245	-0.980647	-0.981978	-0.093925	8.398820	-0.972260	-9.596626E+12	9.787311E-15	NaN
500	1.000000	0.152580	7.36994e+06	-52089.1	1005.82	-29750.2	0.000000	0.000000	6.152783	-0.003413	NaN	0.000000	0.001545	0.001721	28.082	0.026407	0.001976	13.3667	-68.8414	11.9571	-0.022818	0.151253	-0.970643	-0.971971	-0.003413	13.3667	-0.970452	-9.073017E+12	3.761649E-16	NaN
500	1.000000	0.162612	7.36994e+06	-52089.1	1005.82	-29750.2	0.000000	0.000000	6.162820	0.116643	NaN	0.000000	0.001510	0.001728	28.0823	0.121344	0.001994	60.8637	32.4337	-168.042	0.057468	0.161252	-0.960611	-0.961971	0.116643	60.8637	-0.962048	-6.990110E+12	-1.668687E-14	NaN
500	1.000000	0.172588	7.36994e+06	-52089.1	1005.82	-29750.2	0.000000	0.000000	6.172791	-0.018133	NaN	0.000000	0.001527	0.001771	28.0824	0.060905	0.002050	29.7117	-62.0033	14.0632	-0.010407	0.171233	-0.950635	-0.951991	-0.018133	29.7117	-0.950177	-4.835241E+12	3.750270E-15	NaN
500	1.000000	0.182581	7.36994e+06	-52089.1	1005.82	-29750.2	0.000000	0.000000	6.182786	0.055776	NaN	0.000000	0.001553	0.001760	28.082	0.009856	0.001962	5.022281	-50.7617	-164.585	-0.066055	0.181294	-0.940642	-0.941929	0.055776	5.022281	-0.948972	-4.657539E+12	-1.197535E-14	NaN
500	1.000000	0.192602	7.36994e+06	-52089.1	1005.82	-29750.2	0.000000	0.000000	6.192806	0.009896	NaN	0.000000	0.001555	0.001745	28.0809	0.063047	0.002146	29.3824	-29.5967	15.4433	-0.020870	0.191228	-0.930621	-0.931995	0.009896	29.3824	-0.930874	-2.654537E+12	-3.727871E-15	NaN
500	1.000000	0.202604	7.36994e+06	-52089.1	1005.82	-29750.2	0.000000	0.000000	6.202807	-0.008267	NaN	0.000000	0.001562	0.001730	28.0808	0.022885	0.002010	11.3843	-66.9179	-166.677	-0.055012	0.201315	-0.920619	-0.921909	-0.008267	11.3843	-0.920074	-1.897612E+12	4.356502E-15	NaN
500	1.000000	0.212633	7.36994e+06	-52089.1	1005.82	-29750.2	0.000000	0.000000	6.212834	-0.048040	NaN	0.000000	0.001517	0.001706	28.0808	0.063342	0.002036	31.1089	124.694	14.6937	0.002605	0.211221	-0.910590	-0.912003	-0.048040	31.1089	-0.909432	-1.362993E+12	3.524578E-14	NaN
500	1.000000	0.222636	7.36994e+06	-52089.1	1005.82	-29750.2	0.000000	0.000000	6.222839	0.005958	NaN	0.000000	0.001546	0.001786	28.0805	0.099609	0.002047	48.6496	37.3893	-165.92	-0.012834	0.221340	-0.900587	-0.901883	0.005958	48.6496	-0.900679	-1.038113E+12	-5.738992E-15	NaN
500	1.000000	0.232614	7.36994e+06	-52089.1	1005.82	-29750.2	0.000000	0.000000	6.232819	0.052938	NaN	0.000000	0.001497	0.001752	28.0808	0.037640	0.002120	17.758	89.0437	15.9407	0.011688	0.231285	-0.890609	-0.891939	0.052938	17.758	-0.892845	-8.135324E+11	-6.507134E-14	NaN
500	1.000000	0.242609	7.36994e+06	-52089.1	1005.82	-29750.2	0.000000	0.000000	6.242816	0.078544	NaN	0.000000	0.001522	0.001755	28.081	0.028236	0.001815	15.5551	-166.082	-164.116	0.019053	0.241357	-0.880614	-0.881866	0.078544	15.5551	-0.884401	-6.254849E+11	-1.255733E-13	NaN
500	1.000000	0.252651	7.36994e+06	-52089.1	1005.82	-29750.2	0.000000	0.000000	6.252853	-0.027522	NaN	0.000000	0.001537	0.001759	28.0807	0.034134	0.002018	16.9111	151.117	18.3619	0.079698	0.251273	-0.870572	-0.871950	-0.027522	16.9111	-0.869352	-3.914470E+11	7.030947E-14	NaN
500	1.000000	0.262615	7.36994e+06	-52089.1	1005.82	-29750.2	0.000000	0.000000	6.262817	-0.045001	NaN	0.000000	0.001521	0.001779	28.0808	0.036750	0.002001	18.3683	93.3935	-162.574	-0.078282	0.261330	-0.860608	-0.861893	-0.045001	18.3683	-0.858770	-2.814984E+11	1.598608E-13	NaN
500	1.000000	0.272632	7.36994e+06	-52089.1	1005.82	-29750.2	0.000000	0.000000	6.272833	-0.048000	NaN	0.000000	0.001496	0.001760	28.0809	0.033531	0.001968	17.035	-158.296	15.3237	0.028635	0.271229	-0.850592	-0.851994	-0.048000	17.035	-0.848478	-2.042360E+11	2.350209E-13	NaN
500	1.000000	0.282681	7.36994e+06	-52089.1	1005.82	-29750.2	0.000000	0.000000	6.282881	-0.084813	NaN	0.000000	0.001556	0.001753	28.0808	0.026517	0.002004	13.2342	165.406	-164.937	-0.058090	0.281356	-0.840542	-0.841868	-0.084813	13.2342	-0.835736	-1.372512E+11	6.179390E-13	NaN
500	1.000000	0.292636	7.36994e+06	-52089.1	1005.82	-29750.2	0.000000	0.000000	6.292840	0.010732	NaN	0.000000	0.001522	0.001717	28.0808	0.066208	0.002027	32.6686	-129.402	16.8773	-0.005894	0.291254	-0.830587	-0.831969	0.010732	32.6686	-0.830834	-1.177832E+11	-9.111612E-14	NaN
500	1.000000	0.302668	7.36994e+06	-52089.1	1005.82	-29750.2	0.000000	0.000000	6.302870	-0.033831	NaN	0.000000	0.001520	0.001791	28.0807	0.037102	0.002070	17.9219	65.9589	-164.607	0.053426	0.301386	-0.820555	-0.821837	-0.033831	17.9219	-0.819139	-8.175935E+10	4.137920E-13	NaN
500	1.000000	0.312664	7.36994e+06	-52089.1	1005.82	-29750.2	0.000000	0.000000	6.312868	0.021101	NaN	0.000000	0.001555	0.001760	28.0808	0.045311	0.002063	21.9681	-17.5237	13.347	-0.065675	0.311335	-0.810559	-0.811888	0.021101	21.9681	-0.811280	-6.396358E+10	-3.298890E-13	NaN
500	1.000000	0.322682	7.36994e+06	-52089.1	1005.82	-29750.2	0.000000	0.000000	6.322885	-0.006858	NaN	0.000000	0.001553	0.001789	28.0807	0.086606	0.001884	45.9599	33.7737	-164.524	0.030961	0.321303	-0.800541	-0.801920	-0.006858	45.9599	-0.800429	-4.557139E+10	1.504853E-13	NaN
500	1.000000	0.332664	7.36994e+06	-52089.1	1005.82	-29750.2	0.000000	0.000000	6.332867	0.002965	NaN	0.000000	0.001538	0.001802	28.0821	0.095408	0.001956	48.789	153.805	17.6365	0.085435	0.331331	-0.790559	-0.791892	0.002965	48.789	-0.790605	-3.351930E+10	-8.847105E-14	NaN
500	1.000000	0.342634	7.36994e+06	-52089.1	1005.82	-29750.2	0.000000	0.000000	6.342838	0.005647	NaN	0.000000	0.001571	0.001758	28.0819	0.009667	0.002045	4.727497	-114.695	-168.802	-0.048074	0.341343	-0.780589	-0.781880	0.005647	4.727497	-0.781485	-2.520034E+10	-2.241003E-13	NaN
500	1.000000	0.352662	7.36994e+06	-52089.1	1005.82	-29750.2	0.000000	0.000000	6.352864	-0.033722	NaN	0.000000	0.001529	0.001787	28.0824	0.090397	0.002107	42.9011	112.478	14.1755	-0.010696	0.351325	-0.770561	-0.771899	-0.033722	42.9011	-0.769972	-1.757592E+10	1.918655E-12	NaN
500	1.000000	0.362694	7.36994e+06	-52089.1	1005.82	-29750.2	0.000000	0.000000	6.362895	-0.043607	NaN	0.000000	0.001639	0.001748	28.0821	0.060620	0.002184	27.7545	177.89	-168.439	-0.034103	0.361388	-0.760529	-0.761835	-0.043607	27.7545	-0.759351	-1.260295E+10	3.460078E-12	NaN
500	1.000000	0.372701	7.36994e+06	-52089.1	1005.82	-29750.2	0.000000	0.000000	6.372904	-0.015753	NaN	0.000000	0.001584	0.001743	28.0823	0.070394	0.001975	35.6503	163.907	14.9016	-0.005464	0.371302	-0.750522	-0.751921	-0.015753	35.6503	-0.750191	-9.458377E+9	1.665508E-12	NaN
500	1.000000	0.382705	7.36994e+06	-52089.1	1005.82	-29750.2	0.000000	0.000000	6.382909	0.014791	NaN	0.000000	0.001633	0.001785	28.082	0.121697	0.002008	60.6183	-166.928	-164.557	-0.023404	0.381362	-0.740518	-0.741861	0.014791	60.6183	-0.740701	-7.024250E+9	-2.105724E-12	NaN
500	1.000000	0.392686	7.36994e+06	-52089.1	1005.82	-29750.2	0.000000	0.000000	6.392889	-0.006843	NaN	0.000000	0.001639	0.001748	28.0822	0.042094	0.002042	20.615	-170.696	11.8768	0.038426	0.391295	-0.730537	-0.731928	-0.006843	20.615	-0.730288	-5.066773E+9	1.350580E-12	NaN
500	1.000000	0.402707	7.36994e+06	-52089.1	1005.82	-29750.2	0.000000	0.000000	6.402908	-0.037255	NaN	0.000000	0.001608	0.001764	28.0819	0.078447	0.001954	40.1379	-55.8414	-166.085	-6.380926E-5	0.401388	-0.720517	-0.721835	-0.037255	40.1379	-0.719821	-3.647753E+9	1.021309E-11	NaN
500	1.000000	0.412712	7.36994e+06	-52089.1	1005.82	-29750.2	0.000000	0.000000	6.412913	-0.059351	NaN	0.000000	0.001653	0.001731	28.0823	0.071938	0.002093	34.3737	-169.635	12.3681	-0.033247	0.411375	-0.710511	-0.711848	-0.059351	34.3737	-0.709216	-2.614276E+9	2.270254E-11	NaN
500	1.000000	0.422684	7.36994e+06	-52089.1	1005.82	-29750.2	0.000000	0.000000	6.422885	-0.052655	NaN	0.000000	0.001626	0.001740	28.0821	0.065855	0.002044	32.2206	91.5018	-167.426	-0.003757	0.421326	-0.700539	-0.701897	-0.052655	32.2206	-0.699313	-1.914925E+9	2.749697E-11	NaN
500	1.000000	0.432710	7.36994e+06	-52089.1	1005.82	-29750.2	0.000000	0.000000	6.432912	-0.022990	NaN	0.000000	0.001617	0.001762	28.0821	0.072970	0.002049	35.6146	87.4535	15.3891	-0.072431	0.431350	-0.690513	-0.691874	-0.022990	35.6146	-0.690029	-1.429933E+9	1.607788E-11	NaN
500	1.000000	0.442687	7.36994e+06	-52089.1	1005.82	-29750.2	0.000000	0.000000	6.442891	0.025621	NaN	0.000000	0.001600	0.001761	28.0819	0.090088	0.001969	45.7434	109.305	-167.595	0.023813	0.441401	-0.680536	-0.681822	0.025621	45.7434	-0.680956	-1.074683E+9	-2.384053E-11	NaN
500	1.000000	0.452707	7.36995e+06	-52089.1	1005.82	-29750.2	0.000000	0.000000	6.452908	-0.051781	NaN	0.000000	0.001595	0.001758	28.082	0.009786	0.001993	4.910780	69.2318	16.7987	0.024119	0.451339	-0.670516	-0.671884	-0.051781	4.910780	-0.662608	-6.028231E+8	8.589799E-11	NaN
500	1.000000	0.462738	7.36995e+06	-52089.1	1005.82	-29750.2	0.000000	0.000000	6.462943	0.043361	NaN	0.000000	0.001620	0.001733	28.081	0.040157	0.002068	19.4138	-95.6057	-167.356	-0.030192	0.461428	-0.660486	-0.661795	0.043361	19.4138	-0.662161	-5.943781E+8	-7.295199E-11	NaN
500	1.000000	0.472757	7.36995e+06	-52089.1	1005.82	-29750.2	0.000000	0.000000	6.472960	-0.007551	NaN	0.000000	0.001652	0.001756	28.0807	0.064076	0.002036	31.4646	21.7316	11.8327	0.047264	0.471332	-0.650466	-0.651891	-0.007551	31.4646	-0.650286	-4.086581E+8	1.847744E-11	NaN
500	1.000000	0.482725	7.36995e+06	-52089.1	1005.82	-29750.2	0.000000	0.000000	6.482925	-0.083074	NaN	0.000000	0.001642	0.001789	28.0807	0.168486	0.001905	88.4496	24.7338	-166.46	-0.052484	0.481358	-0.640498	-0.641866	-0.083074	88.4496	-0.639794	-2.934022E+8	2.831387E-10	NaN
500	1.000000	0.492747	7.36995e+06	-52089.1	1005.82	-29750.2	0.000000	0.000000	6.492951	0.007024	NaN	0.000000	0.001597	0.001773	28.0808	0.030393	0.002040	14.9012	-140.335	14.3949	-0.010522	0.491404	-0.630476	-0.631819	0.007024	14.9012	-0.630829	-2.210100E+8	-3.178291E-11	NaN
500	1.000000	0.502746	7.36995e+06	-52089.1	1005.82	-29750.2	0.000000	0.000000	6.502950	0.033612	NaN	0.000000	0.001650	0.001752	28.0808	0.018681	0.002031	9.197987	-147.557	-165.262	0.019589	0.501427	-0.620478	-0.621796	0.033612	9.197987	-0.623218	-1.737252E+8	-1.934758E-10	NaN
500	1.000000	0.512752	7.36995e+06	-52089.1	1005.82	-29750.2	0.000000	0.000000	6.512956	0.038660	NaN	0.000000	0.001624	0.001757	28.0807	0.077886	0.002091	37.2478	66.8747	12.6416	0.039273	0.511363	-0.610471	-0.611861	0.038660	37.2478	-0.611250	-1.189351E+8	-3.250549E-10	NaN
500	1.000000	0.522763	7.36995e+06	-52089.1	1005.82	-29750.2	0.000000	0.000000	6.522966	-0.006633	NaN	0.000000	0.001607	0.001734	28.0808	0.034582	0.001967	17.5811	25.71	-165.538	-0.047785	0.521434	-0.600460	-0.601789	-0.006633	17.5811	-0.600177	-8.373356E+7	7.921729E-11	NaN
500	1.000000	0.532753	7.36995e+06	-52089.1	1005.82	-29750.2	0.000000	0.000000	6.532955	-0.034898	NaN	0.000000	0.001627	0.001737	28.0808	0.119270	0.001992	59.8767	102.543	9.703188	0.006472	0.531378	-0.590470	-0.591845	-0.034898	59.8767	-0.590033	-6.069089E+7	5.750058E-10	NaN
500	1.000000	0.542732	7.36995e+06	-52089.1	1005.82	-29750.2	0.000000	0.000000	6.542934	-0.017995	NaN	0.000000	0.001608	0.001769	28.0807	0.090455	0.001907	47.4279	-13.1489	-164.531	-0.020135	0.541412	-0.580491	-0.581811	-0.017995	47.4279	-0.580207	-4.442003E+7	4.051161E-10	NaN
500	1.000000	0.552775	7.36995e+06	-52089.1	1005.82	-29750.2	0.000000	0.000000	6.552979	0.018787	NaN	0.000000	0.001647	0.001746	28.0807	0.092383	0.002007	46.0262	-86.5248	11.6831	0.012664	0.551437	-0.570448	-0.571786	0.018787	46.0262	-0.570754	-3.288901E+7	-5.712361E-10	NaN
500	1.000000	0.562756	7.36995e+06	-52089.1	1005.82	-29750.2	0.000000	0.000000	6.562961	0.050132	NaN	0.000000	0.001649	0.001790	28.0809	0.006852	0.002026	3.381705	-83.026	-168.001	-0.038341	0.561423	-0.560467	-0.561801	0.050132	3.381705	-0.571586	-3.377072E+7	-1.484491E-9	NaN
500	1.000000	0.572755	7.36995e+06	-52089.1	1005.82	-29750.2	0.000000	0.000000	6.572958	-0.003266	NaN	0.000000	0.001652	0.001784	28.0811	0.102699	0.001993	51.5414	-76.7698	12.8749	-0.048931	0.571399	-0.550468	-0.551824	-0.003266	51.5414	-0.550421	-1.721000E+7	1.897870E-10	NaN
500	1.000000	0.582770	7.36995e+06	-52089.1	1005.82	-29750.2	0.000000	0.000000	6.582978	0.115116	NaN	0.000000	0.001651	0.001779	28.0814	0.045270	0.002064	21.9364	30.9289	-169.04	0.048199	0.581473	-0.540453	-0.541750	0.115116	21.9364	-0.544389	-1.419754E+7	-8.108199E-9	NaN
500	1.000000	0.592761	7.36995e+06	-52089.1	1005.82	-29750.2	0.000000	0.000000	6.592964	-0.014191	NaN	0.000000	0.001639	0.001715	28.0808	0.070603	0.002047	34.4947	-76.191	10.4904	0.069124	0.591436	-0.530462	-0.531788	-0.014191	34.4947	-0.530154	-9.00967e+06	1.575087E-9	NaN
500	1.000000	0.602777	7.36995e+06	-52089.1	1005.82	-29750.2	0.000000	0.000000	6.602983	0.057388	NaN	0.000000	0.001646	0.001747	28.0824	0.112855	0.001944	58.0631	43.7048	-166.384	0.029666	0.601424	-0.520446	-0.521799	0.057388	58.0631	-0.521187	-6.76248e+06	-8.486203E-9	NaN
500	1.000000	0.612772	7.36995e+06	-52089.1	1005.82	-29750.2	0.000000	0.000000	6.612975	-0.019466	NaN	0.000000	0.001656	0.001758	28.0823	0.010777	0.001922	5.607849	-126.043	15.4484	-0.008529	0.611420	-0.510451	-0.511803	-0.019466	5.607849	-0.507847	-4.40989e+06	4.414121E-9	NaN
500	1.000000	0.622766	7.36995e+06	-52089.1	1005.82	-29750.2	0.000000	0.000000	6.622968	-0.032423	NaN	0.000000	0.001618	0.001793	28.0825	0.059095	0.002025	29.1821	151.57	-165.897	-0.076411	0.621436	-0.500457	-0.501787	-0.032423	29.1821	-0.499624	-3.38665e+06	9.573748E-9	NaN
500	1.000000	0.632785	7.36995e+06	-52089.1	1005.82	-29750.2	0.000000	0.000000	6.632989	0.025388	NaN	0.000000	0.001599	0.001806	28.0822	0.127054	0.001940	65.4946	-9.255195	16.375	-0.042315	0.631412	-0.490438	-0.491811	0.025388	65.4946	-0.490729	-2.54434e+06	-9.978258E-9	NaN
500	1.000000	0.642796	7.36995e+06	-52089.1	1005.82	-29750.2	0.000000	0.000000	6.642996	-0.061449	NaN	0.000000	0.001587	0.001754	28.0826	0.028340	0.002184	12.9758	-121.793	-169.352	0.007705	0.641482	-0.480428	-0.481741	-0.061449	12.9758	-0.476876	-1.62847e+06	3.773420E-8	NaN
500	1.000000	0.652793	7.36995e+06	-52089.1	1005.82	-29750.2	0.000000	0.000000	6.652997	0.012524	NaN	0.000000	0.001562	0.001809	28.0822	0.073624	0.001954	37.6881	64.3389	12.4888	0.002025	0.651370	-0.470430	-0.471853	0.012524	37.6881	-0.470679	-1.33331e+06	-9.393231E-9	NaN
500	1.000000	0.662813	7.36995e+06	-52089.1	1005.82	-29750.2	0.000000	0.000000	6.663016	-0.004678	NaN	0.000000	0.001680	0.001756	28.0824	0.035346	0.002024	17.4607	-175.962	-166.074	0.007774	0.661505	-0.460410	-0.461718	-0.004678	17.4607	-0.460209	-950499	4.921731E-9	NaN
500	1.000000	0.672809	7.36995e+06	-52089.1	1005.82	-29750.2	0.000000	0.000000	6.673008	-0.100399	NaN	0.000000	0.001683	0.001792	28.0823	0.066167	0.002156	30.6943	74.4105	14.3305	-0.160844	0.671418	-0.450414	-0.451806	-0.100399	30.6943	-0.447961	-639181	1.570739E-7	NaN
500	1.000000	0.682786	7.36995e+06	-52089.1	1005.82	-29750.2	0.000000	0.000000	6.682989	0.006101	NaN	0.000000	0.001698	0.001760	28.0827	0.081530	0.001925	42.3492	-52.0407	-166.182	-0.009172	0.681511	-0.440438	-0.441712	0.006101	42.3492	-0.440546	-502417	-1.214318E-8	NaN
500	1.000000	0.692808	7.36995e+06	-52089.1	1005.82	-29750.2	0.000000	0.000000	6.693012	0.017732	NaN	0.000000	0.001691	0.001757	28.0821	0.037582	0.002210	17.0053	44.885	12.8086	0.031931	0.691488	-0.430415	-0.431736	0.017732	17.0053	-0.431197	-370674	-4.783764E-8	NaN
500	1.000000	0.702802	7.36995e+06	-52089.1	1005.82	-29750.2	0.000000	0.000000	6.703006	0.039911	NaN	0.000000	0.001677	0.001761	28.0823	0.083090	0.001973	42.1134	-179.843	-164.302	0.023626	0.701488	-0.420422	-0.421736	0.039911	42.1134	-0.421132	-266977	-1.494929E-7	NaN
500	1.000000	0.712825	7.36995e+06	-52089.1	1005.82	-29750.2	0.000000	0.000000	6.713028	-0.002950	NaN	0.000000	0.001692	0.001723	28.082	0.035588	0.002019	17.6254	44.0243	15.3345	0.056094	0.711478	-0.410398	-0.411746	-0.002950	17.6254	-0.410273	-187188	1.576148E-8	NaN
500	1.000000	0.722832	7.36995e+06	-52089.1	1005.82	-29750.2	0.000000	0.000000	6.723032	-0.077448	NaN	0.000000	0.001700	0.001743	28.0826	0.068091	0.002004	33.9718	128.55	-167.168	-0.053564	0.721475	-0.400391	-0.401748	-0.077448	33.9718	-0.398682	-127993	6.050929E-7	NaN
500	1.000000	0.732844	7.36995e+06	-52089.1	1005.82	-29750.2	0.000000	0.000000	6.733048	0.022862	NaN	0.000000	0.001649	0.001745	28.082	0.096234	0.002107	45.6802	36.7887	14.2731	0.029247	0.731492	-0.390379	-0.391731	0.022862	45.6802	-0.390754	-98618.2	-2.318185E-7	NaN
500	1.000000	0.742837	7.36995e+06	-52089.1	1005.82	-29750.2	0.000000	0.000000	6.743038	-0.060209	NaN	0.000000	0.001685	0.001755	28.0811	0.130140	0.002137	60.8993	62.8885	-166.481	-0.073298	0.741552	-0.380386	-0.381671	-0.060209	60.8993	-0.379644	-68357.1	8.807965E-7	NaN
500	1.000000	0.752884	7.36995e+06	-52089.1	1005.82	-29750.2	0.000000	0.000000	6.753090	0.082170	NaN	0.000000	0.001655	0.001736	28.0811	0.058909	0.001943	30.3112	-22.8779	11.636	-0.002404	0.751516	-0.370339	-0.371707	0.082170	30.3112	-0.372373	-53738.1	-1.529077E-6	NaN
500	1.000000	0.762831	7.36995e+06	-52089.1	1005.82	-29750.2	0.000000	0.000000	6.763032	-0.058417	NaN	0.000000	0.001638	0.001758	28.0808	0.073485	0.001828	40.1962	124.977	-167.551	-0.038564	0.761526	-0.360392	-0.361697	-0.058417	40.1962	-0.359302	-34814.3	1.677949E-6	NaN
500	1.000000	0.772832	7.36995e+06	-52089.1	1005.82	-29750.2	0.000000	0.000000	6.773037	0.053049	NaN	0.000000	0.001681	0.001756	28.0811	0.036918	0.001895	19.4812	-67.8511	12.8956	0.065298	0.771471	-0.350391	-0.351752	0.053049	19.4812	-0.352434	-27689	-1.915880E-6	NaN
500	1.000000	0.782857	7.36995e+06	-52089.1	1005.82	-29750.2	0.000000	0.000000	6.783060	-0.000817	NaN	0.000000	0.001644	0.001698	28.0811	0.129442	0.002081	62.1912	-138.685	-164.431	-0.010719	0.781572	-0.340366	-0.341651	-0.000817	62.1912	-0.340356	-18482	4.422637E-8	NaN
500	1.000000	0.792869	7.36995e+06	-52089.1	1005.82	-29750.2	0.000000	0.000000	6.793074	0.033653	NaN	0.000000	0.001571	0.001627	28.0812	0.098006	0.002084	47.0377	-74.2463	13.4159	0.022243	0.791500	-0.330354	-0.331723	0.033653	47.0377	-0.330890	-13442.7	-2.503424E-6	NaN
500	1.000000	0.802860	7.36995e+06	-52089.1	1005.82	-29750.2	0.000000	0.000000	6.803063	0.000260	NaN	0.000000	0.001560	0.001656	28.081	0.092766	0.001929	48.0951	-167.799	-165.547	-0.019743	0.801546	-0.320363	-0.321677	0.000260	48.0951	-0.320367	-9419.78	-2.761788E-8	NaN
500	1.000000	0.812906	7.36995e+06	-52089.1	1005.82	-29750.2	0.000000	0.000000	6.813109	-0.018115	NaN	0.000000	0.001566	0.001632	28.0812	0.128343	0.001939	66.2008	63.3026	12.6004	-0.059176	0.811529	-0.310317	-0.311695	-0.018115	66.2008	-0.310112	-6648.26	2.724737E-6	NaN
500	1.000000	0.822860	7.36995e+06	-52089.1	1005.82	-29750.2	0.000000	0.000000	6.823064	0.009667	NaN	0.000000	0.001591	0.001645	28.0812	0.082840	0.002117	39.1377	40.5713	-168.553	-0.027169	0.821566	-0.300363	-0.301657	0.009667	39.1377	-0.300548	-4795.05	-2.016076E-6	NaN
500	1.000000	0.832853	7.36995e+06	-52089.1	1005.82	-29750.2	0.000000	0.000000	6.833057	0.008881	NaN	0.000000	0.001596	0.001677	28.0811	0.127681	0.002092	61.0195	-122.426	11.4503	0.073335	0.831534	-0.290370	-0.291689	0.008881	61.0195	-0.290479	-3392.16	-2.618087E-6	NaN
500	1.000000	0.842870	7.36995e+06	-52089.1	1005.82	-29750.2	0.000000	0.000000	6.843075	0.049475	NaN	0.000000	0.001597	0.001615	28.0809	0.042186	0.002072	20.3582	-145.979	-167.376	0.034211	0.841545	-0.280354	-0.281678	0.049475	20.3582	-0.282176	-2545.51	-1.943597E-5	NaN
500	1.000000	0.852897	7.36995e+06	-52089.1	1005.82	-29750.2	0.000000	0.000000	6.853098	-0.043048	NaN	0.000000	0.001609	0.001599	28.0812	0.057832	0.001846	31.3364	-60.0884	12.6518	-0.104703	0.851509	-0.270326	-0.271714	-0.043048	31.3364	-0.269296	-1624.96	2.649193E-5	NaN
500	1.000000	0.862870	7.36995e+06	-52089.1	1005.82	-29750.2	0.000000	0.000000	6.863072	-0.020974	NaN	0.000000	0.001589	0.001590	28.0812	0.097258	0.001938	50.1898	107.732	-168.462	-0.014791	0.861653	-0.260354	-0.261570	-0.020974	50.1898	-0.260040	-1173.64	1.787118E-5	NaN
500	1.000000	0.872877	7.36995e+06	-52089.1	1005.82	-29750.2	0.000000	0.000000	6.873078	-0.030024	NaN	0.000000	0.001630	0.001617	28.0821	0.056436	0.001995	28.2931	-47.5782	11.6494	0.001838	0.871524	-0.250347	-0.251700	-0.030024	28.2931	-0.249551	-809.129	3.710625E-5	NaN
500	1.000000	0.882911	7.36995e+06	-52089.1	1005.82	-29750.2	0.000000	0.000000	6.883114	-0.001688	NaN	0.000000	0.001619	0.001585	28.0821	0.024946	0.001908	13.0716	84.1133	-169.974	0.058667	0.881571	-0.240312	-0.241652	-0.001688	13.0716	-0.240215	-579.313	2.914534E-6	NaN
500	1.000000	0.892914	7.36995e+06	-52089.1	1005.82	-29750.2	0.000000	0.000000	6.893116	-0.014139	NaN	0.000000	0.001651	0.001631	28.0831	0.079917	0.002004	39.8748	-81.7559	13.0966	-0.069583	0.891517	-0.230310	-0.231707	-0.014139	39.8748	-0.230044	-401.058	3.525306E-5	NaN
500	1.000000	0.902905	7.36995e+06	-52089.1	1005.82	-29750.2	0.000000	0.000000	6.903107	-0.018503	NaN	0.000000	0.001665	0.001631	28.0823	0.087666	0.002029	43.2009	138.681	-169.125	0.007487	0.901593	-0.220318	-0.221631	-0.018503	43.2009	-0.219997	-277.732	6.662030E-5	NaN
500	1.000000	0.912908	7.36995e+06	-52089.1	1005.82	-29750.2	0.000000	0.000000	6.913112	0.010382	NaN	0.000000	0.001633	0.001636	28.0822	0.034380	0.002081	16.5229	-7.073212	14.9434	0.013344	0.911530	-0.210315	-0.211694	0.010382	16.5229	-0.210786	-197.489	-5.257041E-5	NaN
500	1.000000	0.922909	7.36995e+06	-52089.1	1005.82	-29750.2	0.000000	0.000000	6.923110	-0.067513	NaN	0.000000	0.001664	0.001654	28.0821	0.094066	0.001860	50.5785	-23.2579	-165.97	-0.008491	0.921568	-0.200314	-0.201655	-0.067513	50.5785	-0.199313	-128.351	0.000526	NaN
500	1.000000	0.932908	7.36995e+06	-52089.1	1005.82	-29750.2	0.000000	0.000000	6.933112	0.010591	NaN	0.000000	0.001620	0.001661	28.0824	0.136376	0.001924	70.8798	65.7807	13.8185	0.017371	0.931534	-0.190315	-0.191689	0.010591	70.8798	-0.190427	-91.4449	-0.000116	NaN
500	1.000000	0.942901	7.36995e+06	-52089.1	1005.82	-29750.2	0.000000	0.000000	6.943103	-0.005525	NaN	0.000000	0.001637	0.001632	28.0822	0.022795	0.002019	11.2929	-47.576	-167.885	-0.000826	0.941583	-0.180323	-0.181640	-0.005525	11.2929	-0.179956	-60.9135	9.069759E-5	NaN
500	1.000000	0.952924	7.36995e+06	-52089.1	1005.82	-29750.2	0.000000	0.000000	6.953127	-0.010106	NaN	0.000000	0.001661	0.001625	28.0823	0.035844	0.002039	17.5796	106.401	16.8286	-0.041012	0.951585	-0.170299	-0.171638	-0.010106	17.5796	-0.169868	-40.8619	0.000247	NaN
500	1.000000	0.962941	7.36995e+06	-52089.1	1005.82	-29750.2	0.000000	0.000000	6.963144	-0.010672	NaN	0.000000	0.001664	0.001611	28.082	0.072690	0.001911	38.0386	110.496	-164.251	-0.076136	0.961614	-0.160282	-0.161609	-0.010672	38.0386	-0.160071	-27.4952	0.000388	NaN
500	1.000000	0.972941	7.36995e+06	-52089.1	1005.82	-29750.2	0.000000	0.000000	6.973142	-0.046137	NaN	0.000000	0.001623	0.001640	28.0825	0.090553	0.002030	44.6027	150.291	14.0666	-0.048150	0.971542	-0.150282	-0.151682	-0.046137	44.6027	-0.149506	-17.7417	0.002600	NaN
500	1.000000	0.982936	7.36995e+06	-52089.1	1005.82	-29750.2	0.000000	0.000000	6.983139	-0.019120	NaN	0.000000	0.001605	0.001616	28.0821	0.044381	0.001928	23.018	-104.51	-166.69	-0.050049	0.981625	-0.140287	-0.141598	-0.019120	23.018	-0.139664	-11.6587	0.001640	NaN
500	1.000000	0.992945	7.36995e+06	-52089.1	1005.82	-29750.2	0.000000	0.000000	6.993148	-0.012508	NaN	0.000000	0.001603	0.001642	28.0822	0.095807	0.001976	48.4838	-49.6101	13.2378	-0.041485	0.991514	-0.130278	-0.131709	-0.012508	48.4838	-0.130084	-7.649791	0.001635	NaN
500	1.000000	1.002941	7.36995e+06	-52089.1	1005.82	-29750.2	0.000000	0.000000	7.003147	0.075171	NaN	0.000000	0.001652	0.001668	28.0821	0.097985	0.002076	47.191	25.7197	-168.741	0.004532	1.001696	-0.120282	-0.121528	0.075171	47.191	-0.121477	-5.173676	-0.014530	NaN
500	1.000000	1.012937	7.36995e+06	-52089.1	1005.82	-29750.2	0.000000	0.000000	7.013141	0.011261	NaN	0.000000	0.001592	0.001637	28.0813	0.040830	0.001970	20.7234	-136.38	16.9054	-0.085669	1.011597	-0.110286	-0.111626	0.011261	20.7234	-0.110693	-3.107904	-0.003623	NaN
500	1.000000	1.022957	7.36995e+06	-52089.1	1005.82	-29750.2	0.000000	0.000000	7.023160	-0.005746	NaN	0.000000	0.001648	0.001657	28.081	0.043215	0.002018	21.4175	113.663	-166.986	-0.009750	1.021681	-0.100266	-0.101542	-0.005746	21.4175	-0.100065	-1.833177	0.003135	NaN
500	1.000000	1.032927	7.36995e+06	-52089.1	1005.82	-29750.2	0.000000	0.000000	7.033131	0.011319	NaN	0.000000	0.001652	0.001654	28.081	0.023993	0.002010	11.9386	11.4052	15.1745	0.081653	1.031580	-0.090296	-0.091643	0.011319	11.9386	-0.091007	-1.141232	-0.009918	NaN
500	1.000000	1.042962	7.36995e+06	-52089.1	1005.82	-29750.2	0.000000	0.000000	7.043166	0.013291	NaN	0.000000	0.001629	0.001676	28.0811	0.021250	0.002040	10.4189	-80.7432	-165.71	-0.021001	1.041659	-0.080261	-0.081565	0.013291	10.4189	-0.081218	-0.663754	-0.020024	NaN
500	1.000000	1.052968	7.36995e+06	-52089.1	1005.82	-29750.2	0.000000	0.000000	7.053171	-0.005477	NaN	0.000000	0.001638	0.001621	28.0811	0.095564	0.001993	47.9453	-40.6354	10.4053	-0.048992	1.051590	-0.070255	-0.071633	-0.005477	47.9453	-0.070169	-0.344687	0.015888	NaN
500	1.000000	1.062951	7.36995e+06	-52089.1	1005.82	-29750.2	0.000000	0.000000	7.063153	-0.017281	NaN	0.000000	0.001618	0.001628	28.0812	0.089072	0.002026	43.9649	-93.7313	-168.716	-0.058490	1.061615	-0.060273	-0.061608	-0.017281	43.9649	-0.059978	-0.179829	0.096098	NaN
500	1.000000	1.072971	7.36995e+06	-52089.1	1005.82	-29750.2	0.000000	0.000000	7.073175	0.022421	NaN	0.000000	0.001589	0.001649	28.0811	0.068403	0.002124	32.205	29.651	9.010724	-0.054252	1.071582	-0.050252	-0.051642	0.022421	32.205	-0.050774	-0.096299	-0.232829	NaN
500	1.000000	1.082984	7.36995e+06	-52089.1	1005.82	-29750.2	0.000000	0.000000	7.083187	0.009087	NaN	0.000000	0.001614	0.001676	28.0814	0.133660	0.002017	66.2722	-119.999	-164.327	0.023136	1.081670	-0.040239	-0.041554	0.009087	66.2722	-0.040342	-0.046318	-0.196195	NaN
500	1.000000	1.092957	7.36995e+06	-52089.1	1005.82	-29750.2	0.000000	0.000000	7.093160	-0.007063	NaN	0.000000	0.001594	0.001657	28.081	0.042638	0.001880	22.6848	-138.219	13.2362	-0.010433	1.091615	-0.030266	-0.031608	-0.007063	22.6848	-0.030032	-0.023061	0.306265	NaN
500	1.000000	1.102976	7.36995e+06	-52089.1	1005.82	-29750.2	0.000000	0.000000	7.103176	-0.056949	NaN	0.000000	0.001624	0.001728	28.0814	0.032434	0.001912	16.9614	68.1383	-166.101	-0.011594	1.101693	-0.020248	-0.021530	-0.056949	16.9614	-0.017729	-0.010983	5.185024	NaN
500	1.000000	1.112980	7.36995e+06	-52089.1	1005.82	-29750.2	0.000000	0.000000	7.113183	-0.013599	NaN	0.000000	0.001638	0.001753	28.0811	0.144663	0.002060	70.214	36.4739	13.7284	0.061852	1.111655	-0.010243	-0.011569	-0.013599	70.214	-0.010098	-0.006443	2.110622	NaN
500	1.000000	1.122924	7.36995e+06	-52089.1	1005.82	-29750.2	0.000000	0.000000	7.123306	4.336050	NaN	0.000000	0.001662	0.001729	28.0815	4.724231	0.001911	2472.69	3.784595	-165.476	2.699328	1.121699	-0.000299	-0.001525	4.336050	2472.69	-0.001614	-0.001170	-3706.32	NaN
500	2.000000	1.130080	7.36995e+06	-52089.1	1005.82	-29750.2	0.000000	0.000000	7.130652	8.949399	NaN	0.000000	0.001621	0.001747	28.0813	10.1297	0.001733	5846.74	8.092582	8.257981	8.918556	1.129705	0.006857	0.006482	8.949399	5846.74	0.005709	0.004790	1868.34	77182.4
500	2.000000	1.132506	7.36995e+06	-52089.1	1005.82	-29750.2	0.000000	0.000000	7.133205	12.0533	NaN	0.000000	0.001658	0.001753	28.0821	12.4218	0.001539	8072.97	6.487019	-176.661	11.9005	1.132185	0.009283	0.008962	12.0533	8072.97	0.008163	0.007210	1671.67	86861.8
500	2.000000	1.134986	7.36995e+06	-52089.1	1005.82	-29750.2	0.000000	0.000000	7.135906	17.4353	NaN	0.000000	0.001650	0.001715	28.0825	15.4167	0.001799	8571.25	4.381475	6.858287	17.6876	1.134642	0.011763	0.011419	17.4353	8571.25	0.010237	0.009447	1845.68	80571.4
500	2.000000	1.137451	7.36995e+06	-52089.1	1005.82	-29750.2	0.000000	0.000000	7.138430	18.8712	NaN	0.000000	0.001617	0.001727	28.0832	17.9105	0.001795	9976.86	5.378023	-175.682	17.9617	1.137200	0.014228	0.013977	18.8712	9976.86	0.012809	0.012474	1512.89	81615
500	2.000000	1.139977	7.36995e+06	-52089.1	1005.82	-29750.2	0.000000	0.000000	7.141220	25.2783	NaN	0.000000	0.001649	0.001740	28.0829	20.563	0.001909	10772	10.18	0.806506	26.3838	1.139597	0.016754	0.016373	25.2783	10772	0.014994	0.015278	1654.6	79623.6
500	2.000000	1.142450	7.36995e+06	-52089.1	1005.82	-29750.2	0.000000	0.000000	7.143855	29.2329	NaN	0.000000	0.001653	0.001747	28.0828	22.22	0.001888	11767	2.337227	-173.541	28.7059	1.142155	0.019227	0.018932	29.2329	11767	0.017364	0.018567	1574.41	78897.2
500	2.000000	1.144965	7.36995e+06	-52089.1	1005.82	-29750.2	0.000000	0.000000	7.146498	32.3564	NaN	0.000000	0.001607	0.001773	28.0826	25.2914	0.002026	12485.7	6.166228	3.035205	32.5991	1.144646	0.021741	0.021423	32.3564	12485.7	0.019798	0.022226	1455.82	76517.2
500	2.000000	1.147473	7.36995e+06	-52089.1	1005.82	-29750.2	0.000000	0.000000	7.149368	41.1492	NaN	0.000000	0.001619	0.001738	28.0826	27.2854	0.001771	15403.6	4.934692	-179.956	41.5419	1.147104	0.024249	0.023880	41.1492	15403.6	0.022246	0.026195	1570.88	86953.5
500	2.000000	1.149974	7.36995e+06	-52089.1	1005.82	-29750.2	0.000000	0.000000	7.152124	47.32	NaN	0.000000	0.001609	0.001742	28.0832	29.2864	0.001682	17416	8.165118	-2.526700	48.0413	1.149507	0.026751	0.026284	47.32	17416	0.024713	0.030496	1551.65	91116.4
500	2.000000	1.152440	7.36995e+06	-52089.1	1005.82	-29750.2	0.000000	0.000000	7.154900	54.8774	NaN	0.000000	0.001607	0.001767	28.0833	31.0778	0.001726	18001.7	1.901013	-177.778	54.9944	1.152099	0.029217	0.028876	54.8774	18001.7	0.026930	0.034621	1585.09	88392.9
500	2.000000	1.154873	7.36995e+06	-52089.1	1005.82	-29750.2	0.000000	0.000000	7.157493	58.7597	NaN	0.000000	0.001606	0.001792	28.0827	34.4705	0.001668	20671.1	5.551524	-3.844915	56.6191	1.154625	0.031650	0.031402	58.7597	20671.1	0.029518	0.039750	1478.23	94725.8
500	2.000000	1.157436	7.36995e+06	-52089.1	1005.82	-29750.2	0.000000	0.000000	7.160495	69.433	NaN	0.000000	0.001589	0.001775	28.0826	37.6471	0.001907	19739.3	6.736521	176.619	70.7397	1.157113	0.034213	0.033890	69.433	19739.3	0.031575	0.044071	1575.48	85907.1
500	2.000000	1.159912	7.36995e+06	-52089.1	1005.82	-29750.2	0.000000	0.000000	7.163292	77.2382	NaN	0.000000	0.001622	0.001759	28.0823	38.5054	0.001684	22864.7	3.952168	-2.481909	76.1262	1.159534	0.036689	0.036311	77.2382	22864.7	0.034155	0.049797	1551.05	93612.9
500	2.000000	1.162394	7.36995e+06	-52089.1	1005.82	-29750.2	0.000000	0.000000	7.165908	80.4998	NaN	0.000000	0.001615	0.001778	28.0836	41.6801	0.001836	22695.8	6.224840	174.83	80.4875	1.162118	0.039171	0.038895	80.4998	22695.8	0.036511	0.055323	1455.1	88159.2
500	2.000000	1.164875	7.36995e+06	-52089.1	1005.82	-29750.2	0.000000	0.000000	7.168918	93.3706	NaN	0.000000	0.001616	0.001741	28.0823	44.3253	0.001805	24558.7	5.339490	-4.039622	90.4716	1.164545	0.041652	0.041321	93.3706	24558.7	0.038800	0.060965	1531.54	90873.7
500	2.000000	1.167384	7.36995e+06	-52089.1	1005.82	-29750.2	0.000000	0.000000	7.171729	100.701	NaN	0.000000	0.001603	0.001763	28.0814	47.3591	0.001658	28569.8	6.054581	174.142	99.0411	1.167042	0.044161	0.043819	100.701	28569.8	0.041518	0.068009	1480.69	100091
500	2.000000	1.169876	7.36995e+06	-52089.1	1005.82	-29750.2	0.000000	0.000000	7.174690	112.112	NaN	0.000000	0.001564	0.001786	28.081	49.6063	0.001873	26489.6	3.957330	-3.049532	108.542	1.169450	0.046653	0.046226	112.112	26489.6	0.043479	0.073328	1528.91	89374.5
500	2.000000	1.172401	7.36995e+06	-52089.1	1005.82	-29750.2	0.000000	0.000000	7.177636	122.357	NaN	0.000000	0.001599	0.001780	28.0818	52.6883	0.001890	27870.3	5.170513	174.551	122.199	1.172036	0.049178	0.048813	122.357	27870.3	0.045885	0.080120	1527.16	89958.9
500	2.000000	1.174828	7.36995e+06	-52089.1	1005.82	-29750.2	0.000000	0.000000	7.180495	132.862	NaN	0.000000	0.001598	0.001806	28.0811	53.314	0.001760	30294.9	-0.711345	0.370569	129.27	1.174478	0.051605	0.051255	132.862	30294.9	0.048315	0.087277	1522.3	93689.8
500	2.000000	1.177422	7.36995e+06	-52089.1	1005.82	-29750.2	0.000000	0.000000	7.183182	135.121	NaN	0.000000	0.001609	0.001778	28.0815	56.8913	0.001703	33412.1	2.276287	175.504	134.897	1.177252	0.054198	0.054029	135.121	33412.1	0.051165	0.096049	1406.78	98498.6
500	2.000000	1.179929	7.36995e+06	-52089.1	1005.82	-29750.2	0.000000	0.000000	7.186398	152.365	NaN	0.000000	0.001624	0.001753	28.081	58.6008	0.001719	34085.7	2.921496	-4.612632	150.624	1.179553	0.056705	0.056330	152.365	34085.7	0.053353	0.103058	1478.44	97007.4
500	2.000000	1.182403	7.36995e+06	-52089.1	1005.82	-29750.2	0.000000	0.000000	7.189549	168.834	NaN	0.000000	0.001593	0.001737	28.0815	61.3359	0.001704	35989.1	6.391066	171.502	170.765	1.182058	0.059179	0.058835	168.834	35989.1	0.055661	0.110710	1525.01	98821.1
500	2.000000	1.184836	7.36995e+06	-52089.1	1005.82	-29750.2	0.000000	0.000000	7.192385	178.61	NaN	0.000000	0.001608	0.001751	28.0811	65.6803	0.001873	35061.1	8.295750	-9.759619	174.424	1.184464	0.061613	0.061241	178.61	35061.1	0.057792	0.118009	1513.53	93248.1
500	2.000000	1.187321	7.36995e+06	-52089.1	1005.82	-29750.2	0.000000	0.000000	7.195450	192.716	NaN	0.000000	0.001585	0.001720	28.0813	67.1537	0.001786	37596.7	6.505097	171.76	190.297	1.187003	0.064098	0.063779	192.716	37596.7	0.060253	0.126718	1520.83	96495
500	2.000000	1.189874	7.36995e+06	-52089.1	1005.82	-29750.2	0.000000	0.000000	7.198680	209.176	NaN	0.000000	0.001615	0.001729	28.0814	69.3208	0.001942	35701.4	5.685802	-6.719547	205.124	1.189540	0.066651	0.066317	209.176	35701.4	0.062257	0.134025	1560.72	89097.5
500	2.000000	1.192328	7.36995e+06	-52089.1	1005.82	-29750.2	0.000000	0.000000	7.201523	218.623	NaN	0.000000	0.001588	0.001732	28.0814	71.1853	0.001801	39530.2	2.588462	174.257	216.34	1.192092	0.069105	0.068869	218.623	39530.2	0.064957	0.144182	1516.3	95114.3
500	2.000000	1.194930	7.36995e+06	-52089.1	1005.82	-29750.2	0.000000	0.000000	7.204580	229.696	NaN	0.000000	0.001561	0.001718	28.0812	74.1094	0.001908	38834	5.107180	-6.622292	232.138	1.194463	0.071707	0.071239	229.696	38834	0.067271	0.153163	1499.68	90658.5
500	2.000000	1.197291	7.36995e+06	-52089.1	1005.82	-29750.2	0.000000	0.000000	7.207648	246.882	NaN	0.000000	0.001582	0.001770	28.0812	75.3432	0.001752	43000.5	2.625493	174.361	241.759	1.196933	0.074068	0.073710	246.882	43000.5	0.069762	0.163120	1513.5	97273.3
500	2.000000	1.199839	7.36995e+06	-52089.1	1005.82	-29750.2	0.000000	0.000000	7.210357	250.802	NaN	0.000000	0.001639	0.001727	28.0815	76.8274	0.001765	43521.4	1.449705	-5.074902	245.468	1.199570	0.076616	0.076347	250.802	43521.4	0.072294	0.173543	1445.18	95449
500	2.000000	1.202398	7.36995e+06	-52089.1	1005.82	-29750.2	0.000000	0.000000	7.213858	273.722	NaN	0.000000	0.001613	0.001770	28.0825	79.4472	0.001793	44308.5	1.490380	175.07	275.014	1.202043	0.079174	0.078820	273.722	44308.5	0.074541	0.183050	1495.34	94618.5
500	2.000000	1.204868	7.36995e+06	-52089.1	1005.82	-29750.2	0.000000	0.000000	7.217264	296.478	NaN	0.000000	0.001611	0.001716	28.0825	82.1038	0.001805	45490.4	4.224622	-7.393048	296.229	1.204488	0.081645	0.081265	296.478	45490.4	0.076757	0.192655	1538.91	94689.8
500	2.000000	1.207393	7.36995e+06	-52089.1	1005.82	-29750.2	0.000000	0.000000	7.219796	296.626	NaN	0.000000	0.001609	0.001746	28.0825	84.9847	0.001737	48933.8	4.864006	170.414	296.498	1.207241	0.084170	0.084017	296.626	48933.8	0.079624	0.205425	1443.96	98640.4
500	2.000000	1.209861	7.36995e+06	-52089.1	1005.82	-29750.2	0.000000	0.000000	7.223761	333.045	NaN	0.000000	0.001586	0.001733	28.0827	86.523	0.001750	49440.1	6.123452	-10.9184	331.074	1.209468	0.086638	0.086245	333.045	49440.1	0.081586	0.214383	1553.5	97556.7
500	2.000000	1.212568	7.36995e+06	-52089.1	1005.82	-29750.2	0.000000	0.000000	7.226590	336.007	NaN	0.000000	0.001607	0.001730	28.0826	87.9985	0.001705	51623.9	3.583262	171.855	345.821	1.212223	0.089344	0.089000	336.007	51623.9	0.084463	0.227846	1474.71	98810.5
500	2.000000	1.214889	7.36995e+06	-52089.1	1005.82	-29750.2	0.000000	0.000000	7.229973	361.832	NaN	0.000000	0.001620	0.001712	28.0821	90.541	0.001687	53656.4	2.764505	-7.628320	359.948	1.214380	0.091666	0.091157	361.832	53656.4	0.086608	0.238133	1519.46	100458
500	2.000000	1.217369	7.36995e+06	-52089.1	1005.82	-29750.2	0.000000	0.000000	7.233115	377.937	NaN	0.000000	0.001602	0.001740	28.0825	94.1166	0.001747	53861.2	0.364776	174.775	377.184	1.217043	0.094145	0.093820	377.937	53861.2	0.088883	0.249271	1516.17	98562.9
500	2.000000	1.219764	7.36995e+06	-52089.1	1005.82	-29750.2	0.000000	0.000000	7.236047	390.982	NaN	0.000000	0.001604	0.001750	28.0826	96.5605	0.001858	51963.9	4.387153	-9.245788	384.527	1.219497	0.096541	0.096274	390.982	51963.9	0.090898	0.259339	1507.61	93226.8
500	2.000000	1.222310	7.36995e+06	-52089.1	1005.82	-29750.2	0.000000	0.000000	7.239543	414.099	NaN	0.000000	0.001625	0.001744	28.0825	98.3569	0.001900	51775.7	4.923820	170.988	411.932	1.221966	0.099086	0.098743	414.099	51775.7	0.093088	0.270489	1530.93	90954.5
500	2.000000	1.224674	7.36995e+06	-52089.1	1005.82	-29750.2	0.000000	0.000000	7.242233	422.012	NaN	0.000000	0.001621	0.001758	28.0826	100.602	0.001756	57289.3	5.971534	-11.9447	411.52	1.224504	0.101450	0.101281	422.012	57289.3	0.095926	0.285263	1479.38	97999.4
500	2.000000	1.227407	7.36995e+06	-52089.1	1005.82	-29750.2	0.000000	0.000000	7.245707	440.038	NaN	0.000000	0.001597	0.001736	28.0826	103.802	0.001833	56618.7	5.040163	169.327	442.357	1.227284	0.104184	0.104061	440.038	56618.7	0.098355	0.298203	1475.63	94727.6