File: remote_trans/data/nanoindenter/0828-1/data/Data_2025-08-06,11h17m57s/2025-07-22_16-23-58_1_1108.txt
2025-07-22, 16:23:58, 1
Index	Phase	Displacement	Time	Pos X	Pos Y	Pos Z	Rot A	Rot B	Piezo Z	Force A	Force B	Gripper	Voltage A	Voltage B	Temperature	Amplitude force	Amplitude pos	Stiffness	Phase shift	Phase excitation	Force A raw	Displacement raw	HMax	HMax raw	Real Force	Real Stiffness	Contact Depth	Area	Hardness	Reduced Mod.
[#]	[#]	[um]	[s]	[um]	[um]	[um]	[m°]	[m°]	[um]	[uN]	[uN]	[V]	[V]	[V]	[°C]	[uN]	[um]	[N/m]	[°]	[°]	[uN]	[um]	[um]	[um]	[uN]	[N/m]	[um]	[um^2]	[MPa]	[MPa]
1108	1.000000	0.002550	7.37588e+06	-55539.1	1055.82	-29741.2	0.000000	0.000000	6.002754	0.002975	NaN	0.000000	0.001598	0.001680	28.0836	0.060999	0.001046	58.3307	117.07	-164.356	0.121748	0.001323	-1.137950	-1.139177	0.002975	58.3307	-1.137988	-1.620912E+15	-1.835110E-18	NaN
1108	1.000000	0.012650	7.37589e+06	-55539.1	1055.82	-29741.2	0.000000	0.000000	6.012853	0.003068	NaN	0.000000	0.001609	0.001659	28.0832	0.042150	0.001278	32.9744	86.3968	14.1673	-0.044528	0.011199	-1.127851	-1.129302	0.003068	32.9744	-1.127920	-1.187757E+15	-2.582668E-18	NaN
1108	1.000000	0.022592	7.37589e+06	-55539.1	1055.82	-29741.2	0.000000	0.000000	6.022793	-0.037392	NaN	0.000000	0.001589	0.001655	28.0834	0.064697	0.001779	36.374	-16.2656	-166.787	0.077011	0.021205	-1.117909	-1.119296	-0.037392	36.374	-1.117138	-8.512746E+14	4.392474E-17	NaN
1108	1.000000	0.032563	7.37589e+06	-55539.1	1055.82	-29741.2	0.000000	0.000000	6.032767	0.032331	NaN	0.000000	0.001610	0.001646	28.0834	0.047470	0.001796	26.4336	123.458	15.4751	0.009667	0.031174	-1.107938	-1.109326	0.032331	26.4336	-1.108855	-6.590558E+14	-4.905615E-17	NaN
1108	1.000000	0.042537	7.37589e+06	-55539.1	1055.82	-29741.2	0.000000	0.000000	6.042738	-0.060389	NaN	0.000000	0.001608	0.001630	28.0835	0.071622	0.002023	35.399	159.978	-165.315	-0.029461	0.041239	-1.097963	-1.099262	-0.060389	35.399	-1.096684	-4.524308E+14	1.334758E-16	NaN
1108	1.000000	0.052557	7.37589e+06	-55539.1	1055.82	-29741.2	0.000000	0.000000	6.052760	0.003424	NaN	0.000000	0.001590	0.001655	28.0835	0.079198	0.002018	39.2421	-150.758	16.7982	0.028480	0.051175	-1.087944	-1.089326	0.003424	39.2421	-1.088009	-3.460002E+14	-9.895228E-18	NaN
1108	1.000000	0.062572	7.37589e+06	-55539.1	1055.82	-29741.2	0.000000	0.000000	6.062772	-0.083831	NaN	0.000000	0.001613	0.001656	28.0834	0.061467	0.002030	30.2836	-14.4117	-165.57	-0.066992	0.061307	-1.077928	-1.079194	-0.083831	30.2836	-1.075852	-2.375770E+14	3.528580E-16	NaN
1108	1.000000	0.072547	7.37589e+06	-55539.1	1055.82	-29741.2	0.000000	0.000000	6.072749	-0.035857	NaN	0.000000	0.001571	0.001676	28.0835	0.011839	0.001970	6.008096	-28.5665	15.7818	0.000508	0.071226	-1.067953	-1.069275	-0.035857	6.008096	-1.063477	-1.620130E+14	2.213238E-16	NaN
1108	1.000000	0.082569	7.37589e+06	-55539.1	1055.82	-29741.2	0.000000	0.000000	6.082773	0.022846	NaN	0.000000	0.001545	0.001679	28.0838	0.089247	0.002027	44.027	-158.761	-165.049	-0.077004	0.081285	-1.057932	-1.059215	0.022846	44.027	-1.058321	-1.381195E+14	-1.654097E-16	NaN
1108	1.000000	0.092571	7.37589e+06	-55539.1	1055.82	-29741.2	0.000000	0.000000	6.092775	0.021659	NaN	0.000000	0.001562	0.001646	28.0836	0.122192	0.002021	60.4473	-69.0642	8.809342	0.043266	0.091186	-1.047930	-1.049314	0.021659	60.4473	-1.048198	-1.009709E+14	-2.145032E-16	NaN
1108	1.000000	0.102547	7.37589e+06	-55539.1	1055.82	-29741.2	0.000000	0.000000	6.102745	-0.121863	NaN	0.000000	0.001561	0.001673	28.0839	0.078149	0.001952	40.0419	-22.4664	-167.087	-0.109020	0.101240	-1.037954	-1.039260	-0.121863	40.0419	-1.035671	-6.851033E+13	1.778757E-15	NaN
1108	1.000000	0.112572	7.37589e+06	-55539.1	1055.82	-29741.2	0.000000	0.000000	6.112772	-0.081629	NaN	0.000000	0.001574	0.001656	28.0839	0.074718	0.001966	38.01	119.875	14.5993	-0.068197	0.111223	-1.027929	-1.029278	-0.081629	38.01	-1.026318	-5.128044E+13	1.591811E-15	NaN
1108	1.000000	0.122570	7.37589e+06	-55539.1	1055.82	-29741.2	0.000000	0.000000	6.122772	-0.015283	NaN	0.000000	0.001581	0.001673	28.0838	0.048807	0.002096	23.2913	-164.783	-165.839	-0.048183	0.121265	-1.017930	-1.019235	-0.015283	23.2913	-1.017438	-3.894792E+13	3.923921E-16	NaN
1108	1.000000	0.132584	7.37589e+06	-55539.1	1055.82	-29741.2	0.000000	0.000000	6.132784	-0.076902	NaN	0.000000	0.001574	0.001693	28.0838	0.058119	0.002089	27.828	149.891	10.0659	-0.045193	0.131197	-1.007916	-1.009303	-0.076902	27.828	-1.005843	-2.719159E+13	2.828152E-15	NaN
1108	1.000000	0.142566	7.37589e+06	-55539.1	1055.82	-29741.2	0.000000	0.000000	6.142767	-0.035728	NaN	0.000000	0.001614	0.001687	28.0827	0.134023	0.002052	65.3155	154.04	-167.592	0.061122	0.141260	-0.997935	-0.999240	-0.035728	65.3155	-0.997524	-2.101060E+13	1.700473E-15	NaN
1108	1.000000	0.152618	7.37589e+06	-55539.1	1055.82	-29741.2	0.000000	0.000000	6.152818	-0.066810	NaN	0.000000	0.001577	0.001655	28.0827	0.088394	0.002140	41.2962	-138.55	13.0386	-0.051276	0.151256	-0.987883	-0.989245	-0.066810	41.2962	-0.986669	-1.500564E+13	4.452313E-15	NaN
1108	1.000000	0.162574	7.37589e+06	-55539.1	1055.82	-29741.2	0.000000	0.000000	6.162776	-0.047968	NaN	0.000000	0.001589	0.001687	28.0827	0.095495	0.001873	50.9984	-87.03	-165.72	-0.115798	0.161281	-0.977926	-0.979219	-0.047968	50.9984	-0.977220	-1.119340E+13	4.285355E-15	NaN
1108	1.000000	0.172590	7.37589e+06	-55539.1	1055.82	-29741.2	0.000000	0.000000	6.172791	-0.037513	NaN	0.000000	0.001610	0.001705	28.0823	0.087593	0.002059	42.5473	-54.4476	13.0361	-0.027095	0.171259	-0.967911	-0.969241	-0.037513	42.5473	-0.967249	-8.214661E+12	4.566538E-15	NaN
1108	1.000000	0.182623	7.37589e+06	-55539.1	1055.82	-29741.2	0.000000	0.000000	6.182826	-0.021316	NaN	0.000000	0.001602	0.001692	28.0825	0.012856	0.001927	6.670623	53.4784	-163.811	0.054988	0.181251	-0.957877	-0.959249	-0.021316	6.670623	-0.955481	-5.700774E+12	3.739128E-15	NaN
1108	1.000000	0.192601	7.37589e+06	-55539.1	1055.82	-29741.2	0.000000	0.000000	6.192801	-0.082125	NaN	0.000000	0.001577	0.001684	28.0825	0.031622	0.001864	16.9687	58.8884	15.9662	-0.039641	0.191217	-0.947900	-0.949283	-0.082125	16.9687	-0.944270	-4.024742E+12	2.040507E-14	NaN
1108	1.000000	0.202609	7.37589e+06	-55539.1	1055.82	-29741.2	0.000000	0.000000	6.202810	-0.058976	NaN	0.000000	0.001599	0.001695	28.0825	0.062680	0.001859	33.7139	158.606	-170.207	-0.112826	0.201283	-0.937891	-0.939217	-0.058976	33.7139	-0.936579	-3.169411E+12	1.860786E-14	NaN
1108	1.000000	0.212587	7.37589e+06	-55539.1	1055.82	-29741.2	0.000000	0.000000	6.212790	-0.021932	NaN	0.000000	0.001584	0.001686	28.0827	0.031958	0.001912	16.7134	145.893	11.3366	0.006385	0.211297	-0.927913	-0.929203	-0.021932	16.7134	-0.926929	-2.348241E+12	9.339927E-15	NaN
1108	1.000000	0.222619	7.37589e+06	-55539.1	1055.82	-29741.2	0.000000	0.000000	6.222820	-0.051785	NaN	0.000000	0.001602	0.001663	28.083	0.049043	0.001897	25.8528	177.126	-162.971	0.073672	0.221306	-0.917882	-0.919194	-0.051785	25.8528	-0.916379	-1.691671E+12	3.061155E-14	NaN
1108	1.000000	0.232635	7.37589e+06	-55539.1	1055.82	-29741.2	0.000000	0.000000	6.232838	-0.002861	NaN	0.000000	0.001600	0.001642	28.0827	0.011159	0.002083	5.357651	-54.5595	12.8186	-0.017356	0.231288	-0.907866	-0.909212	-0.002861	5.357651	-0.907465	-1.282101E+12	2.231285E-15	NaN
1108	1.000000	0.242625	7.37589e+06	-55539.1	1055.82	-29741.2	0.000000	0.000000	6.242827	-0.028274	NaN	0.000000	0.001609	0.001642	28.0827	0.014275	0.002046	6.977485	85.1152	-165.316	-0.028057	0.241338	-0.897875	-0.899162	-0.028274	6.977485	-0.894836	-8.655329E+11	3.266662E-14	NaN
1108	1.000000	0.252623	7.37589e+06	-55539.1	1055.82	-29741.2	0.000000	0.000000	6.252829	0.045002	NaN	0.000000	0.001577	0.001686	28.0828	0.048701	0.001941	25.096	-48.0581	13.4385	-0.011599	0.251317	-0.887877	-0.889183	0.045002	25.096	-0.889222	-7.267668E+11	-6.192051E-14	NaN
1108	1.000000	0.262643	7.37589e+06	-55539.1	1055.82	-29741.2	0.000000	0.000000	6.262848	0.028142	NaN	0.000000	0.001580	0.001673	28.0827	0.089807	0.002000	44.9057	-162.085	-165.595	0.062613	0.261348	-0.877857	-0.879152	0.028142	44.9057	-0.878327	-5.177059E+11	-5.435849E-14	NaN
1108	1.000000	0.272623	7.37589e+06	-55539.1	1055.82	-29741.2	0.000000	0.000000	6.272826	0.007447	NaN	0.000000	0.001588	0.001658	28.0834	0.072059	0.002097	34.3611	-26.2363	13.8871	-0.069666	0.271242	-0.867878	-0.869258	0.007447	34.3611	-0.868040	-3.757745E+11	-1.981754E-14	NaN
1108	1.000000	0.282650	7.37589e+06	-55539.1	1055.82	-29741.2	0.000000	0.000000	6.282852	-0.032940	NaN	0.000000	0.001570	0.001677	28.0837	0.019959	0.002069	9.648537	-5.956307	-164.186	-0.017645	0.281295	-0.857850	-0.859205	-0.032940	9.648537	-0.855289	-2.525550E+11	1.304262E-13	NaN
1108	1.000000	0.292661	7.37589e+06	-55539.1	1055.82	-29741.2	0.000000	0.000000	6.292864	0.002698	NaN	0.000000	0.001610	0.001651	28.084	0.054184	0.002065	26.2416	-98.7648	11.1932	0.040870	0.291288	-0.847839	-0.849213	0.002698	26.2416	-0.847917	-2.006889E+11	-1.344171E-14	NaN
1108	1.000000	0.302644	7.37589e+06	-55539.1	1055.82	-29741.2	0.000000	0.000000	6.302848	0.012260	NaN	0.000000	0.001553	0.001694	28.0837	0.098795	0.002058	48.0064	-65.6525	-166.018	0.075470	0.301349	-0.837856	-0.839151	0.012260	48.0064	-0.838048	-1.475163E+11	-8.310724E-14	NaN
1108	1.000000	0.312662	7.37589e+06	-55539.1	1055.82	-29741.2	0.000000	0.000000	6.312864	-0.015587	NaN	0.000000	0.001585	0.001663	28.084	0.058979	0.001915	30.7955	-19.3889	12.208	-0.026957	0.311279	-0.827839	-0.829221	-0.015587	30.7955	-0.827459	-1.060086E+11	1.470315E-13	NaN
1108	1.000000	0.322665	7.37589e+06	-55539.1	1055.82	-29741.2	0.000000	0.000000	6.322865	-0.061661	NaN	0.000000	0.001576	0.001701	28.084	0.015282	0.001998	7.647509	-79.6318	-165.947	-0.014816	0.321351	-0.817836	-0.819149	-0.061661	7.647509	-0.811789	-6.498855E+10	9.488010E-13	NaN
1108	1.000000	0.332679	7.37589e+06	-55539.1	1055.82	-29741.2	0.000000	0.000000	6.332882	-0.001308	NaN	0.000000	0.001639	0.001642	28.0842	0.049051	0.001969	24.9142	112.594	15.0294	-0.057529	0.331327	-0.807822	-0.809174	-0.001308	24.9142	-0.807782	-5.734305E+10	2.281778E-14	NaN
1108	1.000000	0.342662	7.37589e+06	-55539.1	1055.82	-29741.2	0.000000	0.000000	6.342862	-0.070447	NaN	0.000000	0.001623	0.001655	28.0839	0.089690	0.002008	44.6761	82.1103	-164.351	-0.141079	0.341333	-0.797838	-0.799167	-0.070447	44.6761	-0.796656	-4.050071E+10	1.739402E-12	NaN
1108	1.000000	0.352679	7.37589e+06	-55539.1	1055.82	-29741.2	0.000000	0.000000	6.352882	0.004262	NaN	0.000000	0.001607	0.001650	28.084	0.126957	0.002031	62.5125	24.0033	16.2276	-0.072542	0.351278	-0.787822	-0.789223	0.004262	62.5125	-0.787873	-3.077448E+10	-1.384983E-13	NaN
1108	1.000000	0.362664	7.37589e+06	-55539.1	1055.82	-29741.2	0.000000	0.000000	6.362865	-0.032713	NaN	0.000000	0.001592	0.001637	28.0844	0.165978	0.002005	82.7686	-37.0255	-165.279	-0.046740	0.361402	-0.777837	-0.779098	-0.032713	82.7686	-0.777540	-2.227445E+10	1.468614E-12	NaN
1108	1.000000	0.372687	7.37589e+06	-55539.1	1055.82	-29741.2	0.000000	0.000000	6.372891	0.015968	NaN	0.000000	0.001636	0.001650	28.0841	0.165915	0.001946	85.2434	-23.3519	15.5929	0.046007	0.371283	-0.767813	-0.769217	0.015968	85.2434	-0.767954	-1.649989E+10	-9.677923E-13	NaN
1108	1.000000	0.382680	7.37589e+06	-55539.1	1055.82	-29741.2	0.000000	0.000000	6.382883	-0.004425	NaN	0.000000	0.001600	0.001673	28.084	0.025759	0.001977	13.0298	-52.3961	-163.554	-0.009360	0.381352	-0.757820	-0.759148	-0.004425	13.0298	-0.757566	-1.191746E+10	3.713075E-13	NaN
1108	1.000000	0.392682	7.37589e+06	-55539.1	1055.82	-29741.2	0.000000	0.000000	6.392881	-0.097511	NaN	0.000000	0.001603	0.001648	28.084	0.062643	0.001903	32.9104	170.035	16.0656	-0.078000	0.391323	-0.747819	-0.749177	-0.097511	32.9104	-0.745597	-8.189761E+9	1.190650E-11	NaN
1108	1.000000	0.402691	7.37589e+06	-55539.1	1055.82	-29741.2	0.000000	0.000000	6.402896	0.028388	NaN	0.000000	0.001632	0.001696	28.0842	0.098623	0.002026	48.6731	-119.21	-168.741	0.059956	0.401376	-0.737809	-0.739124	0.028388	48.6731	-0.738247	-6.503881E+9	-4.364750E-12	NaN
1108	1.000000	0.412678	7.37589e+06	-55539.1	1055.82	-29741.2	0.000000	0.000000	6.412878	-0.086616	NaN	0.000000	0.001605	0.001697	28.0827	0.106798	0.002013	53.0537	85.279	12.7461	-0.066085	0.411362	-0.727822	-0.729139	-0.086616	53.0537	-0.726598	-4.512707E+9	1.919376E-11	NaN
1108	1.000000	0.422693	7.37589e+06	-55539.1	1055.82	-29741.2	0.000000	0.000000	6.422894	-0.072194	NaN	0.000000	0.001581	0.001689	28.0827	0.135112	0.001981	68.2	95.5504	-167.823	-0.114476	0.421399	-0.717807	-0.719101	-0.072194	68.2	-0.717013	-3.339908E+9	2.161554E-11	NaN
1108	1.000000	0.432716	7.37589e+06	-55539.1	1055.82	-29741.2	0.000000	0.000000	6.432916	-0.075962	NaN	0.000000	0.001597	0.001666	28.0828	0.056780	0.001868	30.394	164.288	9.815689	-0.062620	0.431372	-0.707784	-0.709128	-0.075962	30.394	-0.705910	-2.356241E+9	3.223865E-11	NaN
1108	1.000000	0.442725	7.37589e+06	-55539.1	1055.82	-29741.2	0.000000	0.000000	6.442927	-0.039637	NaN	0.000000	0.001627	0.001687	28.0827	0.098559	0.002057	47.9166	164.959	-168.776	-0.039796	0.441425	-0.697775	-0.699076	-0.039637	47.9166	-0.697155	-1.789255E+9	2.215262E-11	NaN
1108	1.000000	0.452704	7.37589e+06	-55539.1	1055.82	-29741.2	0.000000	0.000000	6.452906	-0.008045	NaN	0.000000	0.001542	0.001681	28.0827	0.048849	0.002150	22.7205	35.9377	14.8043	0.000978	0.451332	-0.687797	-0.689168	-0.008045	22.7205	-0.687531	-1.321830E+9	6.086334E-12	NaN
1108	1.000000	0.462725	7.37589e+06	-55539.1	1055.82	-29741.2	0.000000	0.000000	6.462925	-0.085701	NaN	0.000000	0.001559	0.001673	28.0827	0.071590	0.002026	35.3362	174.583	-164.267	0.032447	0.461435	-0.677775	-0.679066	-0.085701	35.3362	-0.675956	-9.181092E+8	9.334476E-11	NaN
1108	1.000000	0.472714	7.37589e+06	-55539.1	1055.82	-29741.2	0.000000	0.000000	6.472915	-0.063013	NaN	0.000000	0.001601	0.001694	28.083	0.100246	0.002007	49.9381	-7.468329	13.8591	-0.041799	0.471370	-0.667786	-0.669131	-0.063013	49.9381	-0.666840	-6.888569E+8	9.147443E-11	NaN
1108	1.000000	0.482734	7.37589e+06	-55539.1	1055.82	-29741.2	0.000000	0.000000	6.482936	-0.021577	NaN	0.000000	0.001618	0.001713	28.0826	0.100456	0.001903	52.7848	134.104	-166.132	-0.060125	0.481470	-0.657767	-0.659031	-0.021577	52.7848	-0.657460	-5.124769E+8	4.210351E-11	NaN
1108	1.000000	0.492719	7.37589e+06	-55539.1	1055.82	-29741.2	0.000000	0.000000	6.492922	-0.008382	NaN	0.000000	0.001582	0.001731	28.0826	0.088098	0.002019	43.6421	160.163	17.8586	0.036714	0.491346	-0.647781	-0.649154	-0.008382	43.6421	-0.647637	-3.758733E+8	2.229883E-11	NaN
1108	1.000000	0.502710	7.37589e+06	-55539.1	1055.82	-29741.2	0.000000	0.000000	6.502912	-0.030624	NaN	0.000000	0.001598	0.001703	28.0828	0.209723	0.001979	105.995	-130.721	-165.898	0.008344	0.501410	-0.637790	-0.639090	-0.030624	105.995	-0.637573	-2.735205E+8	1.119638E-10	NaN
1108	1.000000	0.512728	7.37589e+06	-55539.1	1055.82	-29741.2	0.000000	0.000000	6.512931	0.001697	NaN	0.000000	0.001597	0.001718	28.0828	0.011895	0.002062	5.770051	91.6967	11.9893	-0.042272	0.511379	-0.627773	-0.629122	0.001697	5.770051	-0.627993	-2.020518E+8	-8.399451E-12	NaN
1108	1.000000	0.522753	7.37589e+06	-55539.1	1055.82	-29741.2	0.000000	0.000000	6.522955	-0.046350	NaN	0.000000	0.001568	0.001762	28.0826	0.024251	0.002018	12.0155	155.059	-163.472	-0.087967	0.521458	-0.617747	-0.619042	-0.046350	12.0155	-0.614854	-1.333154E+8	3.476715E-10	NaN
1108	1.000000	0.532770	7.37589e+06	-55539.1	1055.82	-29741.2	0.000000	0.000000	6.532976	0.060841	NaN	0.000000	0.001601	0.001794	28.0827	0.151579	0.001976	76.7277	-89.0695	10.5201	-0.043455	0.531380	-0.607730	-0.609120	0.060841	76.7277	-0.608325	-1.084101E+8	-5.612134E-10	NaN
1108	1.000000	0.542756	7.37589e+06	-55539.1	1055.82	-29741.2	0.000000	0.000000	6.542958	-0.016726	NaN	0.000000	0.001564	0.001730	28.0828	0.041458	0.001949	21.2755	-16.0581	-167.95	-0.018102	0.541442	-0.597745	-0.599058	-0.016726	21.2755	-0.597155	-7.608038E+7	2.198427E-10	NaN
1108	1.000000	0.552778	7.37589e+06	-55539.1	1055.82	-29741.2	0.000000	0.000000	6.552978	-0.064744	NaN	0.000000	0.001608	0.001720	28.0841	0.091705	0.001878	48.8335	114.684	12.4454	0.072360	0.551452	-0.587723	-0.589048	-0.064744	48.8335	-0.586728	-5.464548E+7	1.184798E-9	NaN
1108	1.000000	0.562742	7.37589e+06	-55539.1	1055.82	-29741.2	0.000000	0.000000	6.562942	-0.074735	NaN	0.000000	0.001571	0.001715	28.0841	0.079928	0.002118	37.7461	-140.189	-164.497	-0.048680	0.561495	-0.577759	-0.579006	-0.074735	37.7461	-0.576274	-3.919982E+7	1.906521E-9	NaN
1108	1.000000	0.572805	7.37589e+06	-55539.1	1055.82	-29741.2	0.000000	0.000000	6.573007	-0.037127	NaN	0.000000	0.001601	0.001737	28.0841	0.058565	0.001938	30.2208	58.8999	13.5452	-0.064926	0.571397	-0.567695	-0.569104	-0.037127	30.2208	-0.566774	-2.897678E+7	1.281262E-9	NaN
1108	1.000000	0.582748	7.37589e+06	-55539.1	1055.82	-29741.2	0.000000	0.000000	6.582949	-0.060619	NaN	0.000000	0.001589	0.001730	28.0839	0.062128	0.002033	30.5536	69.3843	-167.821	-0.015596	0.581466	-0.557752	-0.559035	-0.060619	30.5536	-0.556264	-2.073435E+7	2.923593E-9	NaN
1108	1.000000	0.592754	7.37589e+06	-55539.1	1055.82	-29741.2	0.000000	0.000000	6.592956	-0.043667	NaN	0.000000	0.001578	0.001690	28.084	0.050837	0.001937	26.2485	-30.0688	12.7176	0.018977	0.591404	-0.547746	-0.549096	-0.043667	26.2485	-0.546498	-1.518594E+7	2.875518E-9	NaN
1108	1.000000	0.602750	7.37589e+06	-55539.1	1055.82	-29741.2	0.000000	0.000000	6.602954	0.026065	NaN	0.000000	0.001579	0.001723	28.0838	0.091763	0.002096	43.7723	126.988	-168.047	0.002508	0.601527	-0.537751	-0.538973	0.026065	43.7723	-0.538197	-1.165072E+7	-2.237160E-9	NaN
1108	1.000000	0.612771	7.37589e+06	-55539.1	1055.82	-29741.2	0.000000	0.000000	6.612974	-0.015661	NaN	0.000000	0.001600	0.001738	28.0837	0.160543	0.001950	82.3451	125.371	13.0488	-0.084371	0.611392	-0.527729	-0.529108	-0.015661	82.3451	-0.527586	-8.29947e+06	1.887012E-9	NaN
1108	1.000000	0.622814	7.37589e+06	-55539.1	1055.82	-29741.2	0.000000	0.000000	6.623017	0.011626	NaN	0.000000	0.001581	0.001754	28.0838	0.084728	0.002105	40.2509	113.2	-161.776	0.012622	0.621484	-0.517687	-0.519017	0.011626	40.2509	-0.517903	-6.08739e+06	-1.909890E-9	NaN
1108	1.000000	0.632799	7.37589e+06	-55539.1	1055.82	-29741.2	0.000000	0.000000	6.632998	-0.101413	NaN	0.000000	0.001586	0.001732	28.0838	0.134508	0.001870	71.9256	-60.8327	11.9292	-0.064543	0.631501	-0.507701	-0.508999	-0.101413	71.9256	-0.506644	-4.24282e+06	2.390234E-8	NaN
1108	1.000000	0.642808	7.37589e+06	-55539.1	1055.82	-29741.2	0.000000	0.000000	6.643009	-0.050143	NaN	0.000000	0.001611	0.001756	28.0838	0.016932	0.002039	8.303508	102.624	-163.529	-0.062996	0.641461	-0.497692	-0.499039	-0.050143	8.303508	-0.493163	-2.75157e+06	1.822339E-8	NaN
1108	1.000000	0.652801	7.37589e+06	-55539.1	1055.82	-29741.2	0.000000	0.000000	6.653005	0.009586	NaN	0.000000	0.001630	0.001706	28.0839	0.052339	0.002075	25.2243	-4.870847	17.7783	-0.050408	0.651477	-0.487699	-0.489023	0.009586	25.2243	-0.487984	-2.32927e+06	-4.115627E-9	NaN
1108	1.000000	0.662824	7.37589e+06	-55539.1	1055.82	-29741.2	0.000000	0.000000	6.663024	-0.070215	NaN	0.000000	0.001655	0.001708	28.0837	0.097394	0.002092	46.5507	98.271	-168.434	-0.030155	0.661548	-0.477676	-0.478952	-0.070215	46.5507	-0.476545	-1.61119e+06	4.357954E-8	NaN
1108	1.000000	0.672812	7.37589e+06	-55539.1	1055.82	-29741.2	0.000000	0.000000	6.673013	-0.054650	NaN	0.000000	0.001664	0.001730	28.0838	0.059409	0.002066	28.7489	7.082983	17.088	-0.049304	0.671492	-0.467688	-0.469009	-0.054650	28.7489	-0.466262	-1.15602e+06	4.727406E-8	NaN
1108	1.000000	0.682816	7.37589e+06	-55539.1	1055.82	-29741.2	0.000000	0.000000	6.683016	-0.070542	NaN	0.000000	0.001634	0.001724	28.0828	0.067080	0.002029	33.0656	-177.39	-165.566	-0.083368	0.681474	-0.457684	-0.459027	-0.070542	33.0656	-0.456084	-831708	8.481624E-8	NaN
1108	1.000000	0.692818	7.37589e+06	-55539.1	1055.82	-29741.2	0.000000	0.000000	6.693019	-0.052176	NaN	0.000000	0.001666	0.001730	28.0829	0.112869	0.002026	55.6988	-172.662	14.5482	-0.054680	0.691381	-0.447682	-0.449120	-0.052176	55.6988	-0.446980	-619147	8.427092E-8	NaN
1108	1.000000	0.702839	7.37589e+06	-55539.1	1055.82	-29741.2	0.000000	0.000000	6.703041	-0.011968	NaN	0.000000	0.001628	0.001715	28.0826	0.071693	0.002050	34.9759	147.498	-165.896	0.034710	0.701564	-0.437662	-0.438937	-0.011968	34.9759	-0.437405	-453656	2.638173E-8	NaN
1108	1.000000	0.712845	7.37589e+06	-55539.1	1055.82	-29741.2	0.000000	0.000000	6.713047	-0.039689	NaN	0.000000	0.001633	0.001735	28.0828	0.076001	0.002005	37.8983	148.971	13.464	-0.012696	0.711462	-0.427655	-0.429039	-0.039689	37.8983	-0.426870	-321931	1.232837E-7	NaN
1108	1.000000	0.722853	7.37589e+06	-55539.1	1055.82	-29741.2	0.000000	0.000000	6.723054	-0.050411	NaN	0.000000	0.001655	0.001707	28.083	0.098411	0.002005	49.0924	149.477	-165.365	-0.005979	0.721493	-0.417647	-0.419007	-0.050411	49.0924	-0.416877	-232330	2.169811E-7	NaN
1108	1.000000	0.732825	7.37589e+06	-55539.1	1055.82	-29741.2	0.000000	0.000000	6.733028	-0.009691	NaN	0.000000	0.001678	0.001727	28.0825	0.027205	0.002036	13.3638	-89.4282	14.6429	0.012898	0.731461	-0.407675	-0.409039	-0.009691	13.3638	-0.407131	-168884	5.738126E-8	NaN
1108	1.000000	0.742835	7.37589e+06	-55539.1	1055.82	-29741.2	0.000000	0.000000	6.743036	-0.046045	NaN	0.000000	0.001588	0.001743	28.0838	0.060608	0.001876	32.3111	-102.882	-164.334	0.014328	0.741537	-0.397666	-0.398963	-0.046045	32.3111	-0.396597	-119519	3.852571E-7	NaN
1108	1.000000	0.752864	7.37589e+06	-55539.1	1055.82	-29741.2	0.000000	0.000000	6.753065	-0.042966	NaN	0.000000	0.001626	0.001710	28.0826	0.056489	0.001990	28.3833	37.3893	12.9181	-0.005372	0.751414	-0.387636	-0.389087	-0.042966	28.3833	-0.386501	-85720.9	5.012356E-7	NaN
1108	1.000000	0.762805	7.37589e+06	-55539.1	1055.82	-29741.2	0.000000	0.000000	6.763008	0.013742	NaN	0.000000	0.001595	0.001713	28.0826	0.058759	0.002026	29.0061	-134.653	-165.555	0.058787	0.761606	-0.377696	-0.378894	0.013742	29.0061	-0.378051	-64850.2	-2.118992E-7	NaN
1108	1.000000	0.772873	7.37589e+06	-55539.1	1055.82	-29741.2	0.000000	0.000000	6.773075	-0.047104	NaN	0.000000	0.001614	0.001721	28.0821	0.025669	0.001942	13.2177	-96.4968	12.5508	-0.039854	0.771486	-0.367627	-0.369015	-0.047104	13.2177	-0.364954	-42014	1.121148E-6	NaN
1108	1.000000	0.782828	7.37589e+06	-55539.1	1055.82	-29741.2	0.000000	0.000000	6.783030	-0.025004	NaN	0.000000	0.001628	0.001712	28.0825	0.150210	0.001929	77.869	-166.244	-160.154	-0.049952	0.781528	-0.357672	-0.358972	-0.025004	77.869	-0.357431	-32711.2	7.643822E-7	NaN
1108	1.000000	0.792860	7.37589e+06	-55539.1	1055.82	-29741.2	0.000000	0.000000	6.793059	-0.092597	NaN	0.000000	0.001592	0.001767	28.0824	0.039247	0.001920	20.4379	80.8358	11.1284	-0.122960	0.791477	-0.347641	-0.349024	-0.092597	20.4379	-0.344243	-21054.2	4.398052E-6	NaN
1108	1.000000	0.802822	7.37589e+06	-55539.1	1055.82	-29741.2	0.000000	0.000000	6.803024	-0.027637	NaN	0.000000	0.001641	0.001776	28.0827	0.022977	0.002036	11.2843	123.018	-164.965	-0.047210	0.801566	-0.337679	-0.338935	-0.027637	11.2843	-0.335842	-15881.3	1.740218E-6	NaN
1108	1.000000	0.812863	7.37589e+06	-55539.1	1055.82	-29741.2	0.000000	0.000000	6.813063	-0.089159	NaN	0.000000	0.001605	0.001715	28.0824	0.060174	0.002056	29.2643	162.171	15.5546	-0.021130	0.811520	-0.327637	-0.328980	-0.089159	29.2643	-0.325352	-11150.7	7.995777E-6	NaN
1108	1.000000	0.822872	7.37589e+06	-55539.1	1055.82	-29741.2	0.000000	0.000000	6.823075	0.000799	NaN	0.000000	0.001595	0.001730	28.0837	0.038082	0.001978	19.2505	-136.344	-163.835	-0.022071	0.821569	-0.317629	-0.318931	0.000799	19.2505	-0.317660	-8593.58	-9.302829E-8	NaN
1108	1.000000	0.832851	7.37589e+06	-55539.1	1055.82	-29741.2	0.000000	0.000000	6.833051	-0.074847	NaN	0.000000	0.001577	0.001724	28.0839	0.107200	0.001961	54.665	136.677	11.7854	-0.182329	0.831491	-0.307649	-0.309009	-0.074847	54.665	-0.306622	-5902.27	1.268103E-5	NaN
1108	1.000000	0.842904	7.37589e+06	-55539.1	1055.82	-29741.2	0.000000	0.000000	6.843106	-0.022192	NaN	0.000000	0.001608	0.001739	28.0837	0.069669	0.002107	33.0664	21.1756	-167.072	0.000991	0.841635	-0.297597	-0.298865	-0.022192	33.0664	-0.297093	-4259.19	5.210321E-6	NaN
1108	1.000000	0.852893	7.37589e+06	-55539.1	1055.82	-29741.2	0.000000	0.000000	6.853095	-0.015845	NaN	0.000000	0.001628	0.001714	28.0837	0.085688	0.002084	41.1194	117.216	13.8417	0.026972	0.851527	-0.287608	-0.288973	-0.015845	41.1194	-0.287319	-3041.54	5.209480E-6	NaN
1108	1.000000	0.862867	7.37589e+06	-55539.1	1055.82	-29741.2	0.000000	0.000000	6.863067	-0.082651	NaN	0.000000	0.001619	0.001746	28.0839	0.104180	0.001895	54.9653	25.3678	-167.814	-0.055260	0.861590	-0.277633	-0.278910	-0.082651	54.9653	-0.276505	-2090.16	3.954314E-5	NaN
1108	1.000000	0.872899	7.37589e+06	-55539.1	1055.82	-29741.2	0.000000	0.000000	6.873098	-0.105038	NaN	0.000000	0.001609	0.001720	28.0839	0.045937	0.002091	21.9664	26.0743	16.7858	-0.101507	0.871464	-0.267601	-0.269037	-0.105038	21.9664	-0.264015	-1350.05	7.780283E-5	NaN
1108	1.000000	0.882923	7.37589e+06	-55539.1	1055.82	-29741.2	0.000000	0.000000	6.883125	-0.048174	NaN	0.000000	0.001604	0.001734	28.0838	0.155331	0.001863	83.3778	114.169	-164.435	-0.001347	0.881551	-0.257577	-0.258949	-0.048174	83.3778	-0.257144	-1059.46	4.547006E-5	NaN
1108	1.000000	0.892866	7.37589e+06	-55539.1	1055.82	-29741.2	0.000000	0.000000	6.893066	-0.087170	NaN	0.000000	0.001583	0.001749	28.0835	0.050297	0.001892	26.5804	29.0813	15.3591	-0.080918	0.891533	-0.247634	-0.248967	-0.087170	26.5804	-0.245174	-692.09	0.000126	NaN
1108	1.000000	0.902906	7.37589e+06	-55539.1	1055.82	-29741.2	0.000000	0.000000	6.903108	-0.028241	NaN	0.000000	0.001613	0.001752	28.0837	0.042847	0.001936	22.1354	-164.093	-166.82	-0.024578	0.901639	-0.237595	-0.238861	-0.028241	22.1354	-0.236638	-509.262	5.545384E-5	NaN
1108	1.000000	0.912920	7.37589e+06	-55539.1	1055.82	-29741.2	0.000000	0.000000	6.913123	-0.004533	NaN	0.000000	0.001624	0.001720	28.0837	0.161990	0.002053	78.9065	-106.197	12.6034	-0.039899	0.911532	-0.227580	-0.228969	-0.004533	78.9065	-0.227537	-366.075	1.238175E-5	NaN
1108	1.000000	0.922912	7.37589e+06	-55539.1	1055.82	-29741.2	0.000000	0.000000	6.923111	-0.090802	NaN	0.000000	0.001610	0.001728	28.0838	0.081162	0.001932	42.0047	-8.411517	-167.052	-0.042934	0.921563	-0.217589	-0.218938	-0.090802	42.0047	-0.215967	-239.367	0.000379	NaN
1108	1.000000	0.932947	7.37589e+06	-55539.1	1055.82	-29741.2	0.000000	0.000000	6.933147	-0.054241	NaN	0.000000	0.001573	0.001784	28.0834	0.081934	0.002104	38.9332	-127.582	11.8086	0.010990	0.931609	-0.207554	-0.208891	-0.054241	38.9332	-0.206509	-168.323	0.000322	NaN
1108	1.000000	0.942897	7.37589e+06	-55539.1	1055.82	-29741.2	0.000000	0.000000	6.943098	-0.054845	NaN	0.000000	0.001538	0.001740	28.0833	0.091695	0.001997	45.9086	-24.2036	-164.885	-0.064264	0.941615	-0.197603	-0.198886	-0.054845	45.9086	-0.196707	-116.263	0.000472	NaN
1108	1.000000	0.952900	7.37589e+06	-55539.1	1055.82	-29741.2	0.000000	0.000000	6.953099	-0.093294	NaN	0.000000	0.001588	0.001717	28.0834	0.037818	0.002080	18.1814	-111.582	14.0209	-0.046689	0.951547	-0.187601	-0.188953	-0.093294	18.1814	-0.183752	-70.6446	0.001321	NaN
1108	1.000000	0.962952	7.37589e+06	-55539.1	1055.82	-29741.2	0.000000	0.000000	6.963153	-0.065963	NaN	0.000000	0.001600	0.001728	28.082	0.100674	0.001919	52.4635	9.241091	-167.021	-0.062458	0.961619	-0.177548	-0.178882	-0.065963	52.4635	-0.176605	-53.3973	0.001235	NaN
1108	1.000000	0.972939	7.37589e+06	-55539.1	1055.82	-29741.2	0.000000	0.000000	6.973140	-0.053272	NaN	0.000000	0.001586	0.001701	28.082	0.114606	0.001971	58.1455	-75.7757	12.2757	-0.026418	0.971603	-0.167561	-0.168897	-0.053272	58.1455	-0.166874	-36.2365	0.001470	NaN
1108	1.000000	0.982921	7.37589e+06	-55539.1	1055.82	-29741.2	0.000000	0.000000	6.983124	-0.002853	NaN	0.000000	0.001690	0.001712	28.0822	0.069669	0.002073	33.6035	-116.987	-167.979	0.017520	0.981649	-0.157579	-0.158851	-0.002853	33.6035	-0.157515	-24.757	0.000115	NaN
1108	1.000000	0.992951	7.37589e+06	-55539.1	1055.82	-29741.2	0.000000	0.000000	6.993151	-0.068466	NaN	0.000000	0.001675	0.001709	28.0818	0.066936	0.001902	35.1852	38.2415	14.8149	-0.064032	0.991596	-0.147550	-0.148905	-0.068466	35.1852	-0.146090	-15.3571	0.004458	NaN
1108	1.000000	1.002966	7.37589e+06	-55539.1	1055.82	-29741.2	0.000000	0.000000	7.003169	-0.006769	NaN	0.000000	0.001647	0.001738	28.082	0.094626	0.001900	49.7951	97.488	-165.563	-0.067275	1.001614	-0.137534	-0.138886	-0.006769	49.7951	-0.137432	-10.5813	0.000640	NaN
1108	1.000000	1.012941	7.37589e+06	-55539.1	1055.82	-29741.2	0.000000	0.000000	7.013141	-0.073849	NaN	0.000000	0.001609	0.001756	28.082	0.064637	0.001952	33.1084	-139.328	13.746	-0.039600	1.011600	-0.127560	-0.128900	-0.073849	33.1084	-0.125887	-6.331530	0.011664	NaN
1108	1.000000	1.022979	7.37589e+06	-55539.1	1055.82	-29741.2	0.000000	0.000000	7.023182	-0.010628	NaN	0.000000	0.001574	0.001740	28.0821	0.120424	0.001981	60.7805	-105.134	-163.747	-0.015810	1.021678	-0.117521	-0.118822	-0.010628	60.7805	-0.117390	-4.276832	0.002485	NaN
1108	1.000000	1.032932	7.37589e+06	-55539.1	1055.82	-29741.2	0.000000	0.000000	7.033135	-0.007570	NaN	0.000000	0.001557	0.001750	28.0819	0.075150	0.001886	39.8531	49.0011	14.0991	-0.064148	1.031552	-0.107568	-0.108948	-0.007570	39.8531	-0.107426	-2.650120	0.002856	NaN
1108	1.000000	1.042968	7.37589e+06	-55539.1	1055.82	-29741.2	0.000000	0.000000	7.043168	-0.062972	NaN	0.000000	0.001579	0.001737	28.082	0.145559	0.002157	67.4765	-85.7246	-164.847	-0.071050	1.041641	-0.097533	-0.098859	-0.062972	67.4765	-0.096833	-1.552249	0.040568	NaN
1108	1.000000	1.052949	7.37589e+06	-55539.1	1055.82	-29741.2	0.000000	0.000000	7.053150	-0.063005	NaN	0.000000	0.001623	0.001746	28.0822	0.040440	0.002053	19.7023	73.8263	12.4361	-0.046354	1.051624	-0.087551	-0.088876	-0.063005	19.7023	-0.085153	-0.828668	0.076031	NaN
1108	1.000000	1.062945	7.37589e+06	-55539.1	1055.82	-29741.2	0.000000	0.000000	7.063147	-0.034444	NaN	0.000000	0.001606	0.001742	28.0818	0.091721	0.001883	48.7127	-49.595	-161.092	-0.053807	1.061746	-0.077556	-0.078754	-0.034444	48.7127	-0.077025	-0.520657	0.066154	NaN
1108	1.000000	1.072958	7.37589e+06	-55539.1	1055.82	-29741.2	0.000000	0.000000	7.073158	-0.071902	NaN	0.000000	0.001589	0.001751	28.0818	0.047559	0.001924	24.7187	-39.0147	16.4086	-0.153558	1.071605	-0.067543	-0.068895	-0.071902	24.7187	-0.065361	-0.255027	0.281938	NaN
1108	1.000000	1.082946	7.37589e+06	-55539.1	1055.82	-29741.2	0.000000	0.000000	7.083152	0.068792	NaN	0.000000	0.001621	0.001732	28.0819	0.020159	0.002031	9.925009	101.896	-165.084	0.050013	1.081663	-0.057554	-0.058837	0.068792	9.925009	-0.062753	-0.215653	-0.318996	NaN
1108	1.000000	1.093016	7.37589e+06	-55539.1	1055.82	-29741.2	0.000000	0.000000	7.093219	-0.017474	NaN	0.000000	0.001611	0.001771	28.0829	0.064509	0.001987	32.4654	89.1473	12.6493	0.015698	1.091624	-0.047484	-0.048876	-0.017474	32.4654	-0.047080	-0.074394	0.234891	NaN
1108	1.000000	1.102994	7.37589e+06	-55539.1	1055.82	-29741.2	0.000000	0.000000	7.103195	-0.060638	NaN	0.000000	0.001635	0.001743	28.083	0.096158	0.001872	51.369	-115.038	-169.072	0.045643	1.101680	-0.037506	-0.038821	-0.060638	51.369	-0.036621	-0.035772	1.695125	NaN
1108	1.000000	1.112977	7.37589e+06	-55539.1	1055.82	-29741.2	0.000000	0.000000	7.113181	0.015438	NaN	0.000000	0.001611	0.001765	28.083	0.050437	0.002054	24.56	137.812	15.0681	-0.001247	1.111651	-0.027523	-0.028849	0.015438	24.56	-0.027994	-0.020268	-0.761702	NaN
1108	1.000000	1.122993	7.37589e+06	-55539.1	1055.82	-29741.2	0.000000	0.000000	7.123193	-0.073267	NaN	0.000000	0.001571	0.001750	28.0834	0.111250	0.001972	56.4246	-61.7227	-165.386	-0.125088	1.121664	-0.017507	-0.018837	-0.073267	56.4246	-0.016533	-0.010215	7.172662	NaN
1108	1.000000	1.132996	7.37589e+06	-55539.1	1055.82	-29741.2	0.000000	0.000000	7.133195	-0.105402	NaN	0.000000	0.001620	0.001757	28.0833	0.032103	0.002064	15.5518	77.8327	14.5486	-0.056123	1.131567	-0.007504	-0.008933	-0.105402	15.5518	-0.002421	-0.001729	60.9602	NaN
1108	1.000000	1.142920	7.37589e+06	-55539.1	1055.82	-29741.2	0.000000	0.000000	7.143342	5.313746	NaN	0.000000	0.001586	0.001699	28.0834	6.247823	0.001796	3479.24	7.673184	-170.456	2.627630	1.141681	0.002419	0.001181	5.313746	3479.24	0.001274	0.000976	5443.54	101741
1108	2.000000	1.147081	7.37589e+06	-55539.1	1055.82	-29741.2	0.000000	0.000000	7.147827	13.2093	NaN	0.000000	0.001619	0.001708	28.0834	10.9514	0.001611	6800.02	4.463306	7.563922	12.0829	1.146694	0.006580	0.006193	13.2093	6800.02	0.005123	0.004246	3110.76	95340.5
1108	2.000000	1.149531	7.37589e+06	-55539.1	1055.82	-29741.2	0.000000	0.000000	7.150524	19.1974	NaN	0.000000	0.001652	0.001688	28.0835	14.5549	0.001653	8803.35	3.324595	-173.315	17.7848	1.149237	0.009030	0.008737	19.1974	8803.35	0.007395	0.006427	2986.9	100325
1108	2.000000	1.152063	7.37589e+06	-55539.1	1055.82	-29741.2	0.000000	0.000000	7.153431	28.3092	NaN	0.000000	0.001650	0.001705	28.0833	17.2875	0.001606	10766	1.752943	7.068299	27.2468	1.151630	0.011563	0.011130	28.3092	10766	0.009590	0.008730	3242.82	105275
1108	2.000000	1.154523	7.37589e+06	-55539.1	1055.82	-29741.2	0.000000	0.000000	7.156257	37.2225	NaN	0.000000	0.001605	0.001719	28.0833	20.0697	0.001661	12082.8	2.670413	-174.466	35.9166	1.154162	0.014022	0.013662	37.2225	12082.8	0.011712	0.011147	3339.37	104561
1108	2.000000	1.156985	7.37589e+06	-55539.1	1055.82	-29741.2	0.000000	0.000000	7.159205	49.016	NaN	0.000000	0.001610	0.001712	28.0835	22.9352	0.001665	13775	4.147697	2.250628	46.3781	1.156639	0.016485	0.016139	49.016	13775	0.013816	0.013739	3567.66	107371
1108	2.000000	1.159527	7.37589e+06	-55539.1	1055.82	-29741.2	0.000000	0.000000	7.162295	62.3561	NaN	0.000000	0.001586	0.001712	28.0833	26.7272	0.001911	13987.2	5.767901	-179.103	61.005	1.159254	0.019026	0.018753	62.3561	13987.2	0.015683	0.016206	3847.63	100383
1108	2.000000	1.161963	7.37589e+06	-55539.1	1055.82	-29741.2	0.000000	0.000000	7.165373	77.9745	NaN	0.000000	0.001658	0.001660	28.0835	28.9497	0.001709	16935.7	7.034809	-1.784783	74.3168	1.161607	0.021462	0.021107	77.9745	16935.7	0.018009	0.019510	3996.68	110777
1108	2.000000	1.164507	7.37589e+06	-55539.1	1055.82	-29741.2	0.000000	0.000000	7.168491	91.9059	NaN	0.000000	0.001616	0.001729	28.0834	31.1887	0.001771	17611	5.912124	-179.883	92.0122	1.164175	0.024007	0.023674	91.9059	17611	0.020093	0.022688	4050.79	106821
1108	2.000000	1.166999	7.37589e+06	-55539.1	1055.82	-29741.2	0.000000	0.000000	7.171546	105.589	NaN	0.000000	0.001608	0.001700	28.0823	34.0751	0.001715	19865.4	4.439558	-0.969594	103.753	1.166587	0.026499	0.026086	105.589	19865.4	0.022513	0.026645	3962.75	111188
1108	2.000000	1.169492	7.37589e+06	-55539.1	1055.82	-29741.2	0.000000	0.000000	7.174941	127.509	NaN	0.000000	0.001611	0.001733	28.0821	36.9644	0.001756	21051.6	4.710677	179.913	126.738	1.169099	0.028992	0.028598	127.509	21051.6	0.024449	0.030021	4247.34	111006
1108	2.000000	1.171986	7.37589e+06	-55539.1	1055.82	-29741.2	0.000000	0.000000	7.178119	144.131	NaN	0.000000	0.001642	0.001740	28.0822	39.4487	0.001705	23136.3	6.831224	-4.053709	142.638	1.171636	0.031486	0.031136	144.131	23136.3	0.026814	0.034398	4190.08	113972
1108	2.000000	1.174419	7.37589e+06	-55539.1	1055.82	-29741.2	0.000000	0.000000	7.181098	157.4	NaN	0.000000	0.001653	0.001690	28.0822	40.8442	0.001680	24315.7	-0.768636	-177.574	154.342	1.174184	0.033919	0.033684	157.4	24315.7	0.029064	0.038826	4053.96	112745
1108	2.000000	1.176976	7.37589e+06	-55539.1	1055.82	-29741.2	0.000000	0.000000	7.184549	179.152	NaN	0.000000	0.001653	0.001753	28.0825	45.6598	0.001843	24780.8	5.369993	-3.083179	178.012	1.176611	0.036475	0.036111	179.152	24780.8	0.031053	0.042955	4170.69	109240
1108	2.000000	1.179416	7.37589e+06	-55539.1	1055.82	-29741.2	0.000000	0.000000	7.187699	196.408	NaN	0.000000	0.001616	0.001706	28.0824	48.409	0.001831	26440.6	5.054155	176.259	193.908	1.179135	0.038916	0.038635	196.408	26440.6	0.033345	0.047962	4095.09	110305
1108	2.000000	1.181971	7.37589e+06	-55539.1	1055.82	-29741.2	0.000000	0.000000	7.191243	220.459	NaN	0.000000	0.001615	0.001717	28.0825	50.4252	0.001984	25422.2	4.995614	-1.846930	219.305	1.181553	0.041471	0.041053	220.459	25422.2	0.034967	0.051668	4266.81	102182
1108	2.000000	1.184407	7.37589e+06	-55539.1	1055.82	-29741.2	0.000000	0.000000	7.194527	241.071	NaN	0.000000	0.001578	0.001760	28.0825	52.1752	0.001716	30396.7	3.093336	176.981	238.34	1.184198	0.043906	0.043698	241.071	30396.7	0.037958	0.058858	4095.8	114471
1108	2.000000	1.187002	7.37589e+06	-55539.1	1055.82	-29741.2	0.000000	0.000000	7.198126	265.462	NaN	0.000000	0.001601	0.001709	28.0824	55.5636	0.001793	30985.9	6.224688	-5.649429	267.307	1.186623	0.046502	0.046122	265.462	30985.9	0.040076	0.064225	4133.29	111708
1108	2.000000	1.189499	7.37589e+06	-55539.1	1055.82	-29741.2	0.000000	0.000000	7.201252	280.766	NaN	0.000000	0.001584	0.001723	28.0822	57.0788	0.001808	31562.6	-1.925657	-178.166	281.371	1.189267	0.048998	0.048767	280.766	31562.6	0.042327	0.070180	4000.67	108853
1108	2.000000	1.191895	7.37589e+06	-55539.1	1055.82	-29741.2	0.000000	0.000000	7.205308	321.124	NaN	0.000000	0.001572	0.001717	28.0823	59.2166	0.001809	32736.5	2.674044	-2.491329	316.337	1.191572	0.051394	0.051072	321.124	32736.5	0.044037	0.074877	4288.66	109303
1108	2.000000	1.194522	7.37589e+06	-55539.1	1055.82	-29741.2	0.000000	0.000000	7.208778	341.611	NaN	0.000000	0.001548	0.001747	28.0824	62.9538	0.001816	34659.1	8.881747	171.717	342.706	1.193998	0.054021	0.053498	341.611	34659.1	0.046629	0.082279	4151.87	110394
1108	2.000000	1.197042	7.37589e+06	-55539.1	1055.82	-29741.2	0.000000	0.000000	7.212010	358.896	NaN	0.000000	0.001527	0.001753	28.0823	64.8941	0.001731	37485.1	6.621253	-6.584133	362.763	1.196538	0.056542	0.056038	358.896	37485.1	0.049361	0.090449	3967.93	113875
1108	2.000000	1.199540	7.37589e+06	-55539.1	1055.82	-29741.2	0.000000	0.000000	7.215750	389.086	NaN	0.000000	0.001569	0.001729	28.0822	68.704	0.001842	37290.7	7.778856	171.486	395.215	1.199079	0.059040	0.058578	389.086	37290.7	0.051215	0.096204	4044.37	109844
1108	2.000000	1.202150	7.37589e+06	-55539.1	1055.82	-29741.2	0.000000	0.000000	7.219432	415.154	NaN	0.000000	0.001586	0.001716	28.0836	70.6202	0.001821	38790.6	8.064136	-7.713225	426.401	1.201491	0.061650	0.060991	415.154	38790.6	0.053623	0.103940	3994.16	109928
1108	2.000000	1.204261	7.37589e+06	-55539.1	1055.82	-29741.2	0.000000	0.000000	7.223316	458.259	NaN	0.000000	0.001570	0.001747	28.0835	72.4419	0.001689	42896	3.525256	174.005	449.174	1.203888	0.063761	0.063388	458.259	42896	0.055749	0.111006	4128.23	117630
1108	2.000000	1.206842	7.37589e+06	-55539.1	1055.82	-29741.2	0.000000	0.000000	7.227191	489.705	NaN	0.000000	0.001572	0.001769	28.0835	75.0851	0.001844	40716.7	3.870199	-5.683179	481.927	1.206538	0.066342	0.066038	489.705	40716.7	0.057322	0.116379	4207.84	109046
1108	2.000000	1.209234	7.37589e+06	-55539.1	1055.82	-29741.2	0.000000	0.000000	7.229800	494.992	NaN	0.000000	0.001589	0.001726	28.0833	77.276	0.001781	43377.8	3.407035	173.936	484.198	1.209045	0.068733	0.068545	494.992	43377.8	0.060175	0.126436	3914.95	111456
1108	2.000000	1.212000	7.37589e+06	-55539.1	1055.82	-29741.2	0.000000	0.000000	7.234637	545.33	NaN	0.000000	0.001589	0.001708	28.0839	78.7255	0.001691	46557.4	3.030064	-5.623716	543.386	1.211592	0.071500	0.071092	545.33	46557.4	0.062715	0.135723	4017.97	115461
1108	2.000000	1.214611	7.37589e+06	-55539.1	1055.82	-29741.2	0.000000	0.000000	7.237941	562.158	NaN	0.000000	0.001567	0.001742	28.0835	81.9674	0.001683	48707.1	8.692765	168.372	575.441	1.214355	0.074111	0.073855	562.158	48707.1	0.065455	0.146091	3847.99	116427
1108	2.000000	1.216809	7.37589e+06	-55539.1	1055.82	-29741.2	0.000000	0.000000	7.242774	626.223	NaN	0.000000	0.001564	0.001726	28.0836	85.2759	0.001779	47944.1	8.579492	-10.8993	617.776	1.216366	0.076308	0.075866	626.223	47944.1	0.066512	0.150190	4169.53	113028
1108	2.000000	1.219285	7.37589e+06	-55539.1	1055.82	-29741.2	0.000000	0.000000	7.246333	652.572	NaN	0.000000	0.001626	0.001723	28.0832	87.2251	0.001726	50534.2	4.813748	171.909	644.001	1.218923	0.078784	0.078422	652.572	50534.2	0.069099	0.160443	4067.31	115265
1108	2.000000	1.221780	7.37589e+06	-55539.1	1055.82	-29741.2	0.000000	0.000000	7.248955	655.644	NaN	0.000000	0.001640	0.001750	28.0839	88.84	0.001788	49695.4	2.303846	-5.657937	644.22	1.221573	0.081280	0.081073	655.644	49695.4	0.071385	0.169766	3862.04	110195
1108	2.000000	1.224308	7.37589e+06	-55539.1	1055.82	-29741.2	0.000000	0.000000	7.255057	742.507	NaN	0.000000	0.001641	0.001763	28.0835	89.2662	0.001784	50044.3	5.162978	172.411	735.08	1.224002	0.083808	0.083502	742.507	50044.3	0.072680	0.175161	4238.99	109247
1108	2.000000	1.226649	7.37589e+06	-55539.1	1055.82	-29741.2	0.000000	0.000000	7.257130	736.006	NaN	0.000000	0.001537	0.001762	28.0845	92.5006	0.001705	54247	0.577290	-4.597036	721.895	1.226361	0.086148	0.085861	736.006	54247	0.075972	0.189228	3889.52	113935
1108	2.000000	1.229194	7.37589e+06	-55539.1	1055.82	-29741.2	0.000000	0.000000	7.261488	780.067	NaN	0.000000	0.001564	0.001765	28.0836	96.6927	0.001807	53520.7	1.675838	174.494	768.839	1.228958	0.088694	0.088458	780.067	53520.7	0.077762	0.197090	3957.91	110144
1108	2.000000	1.231929	7.37589e+06	-55539.1	1055.82	-29741.2	0.000000	0.000000	7.265023	799.521	NaN	0.000000	0.001576	0.001738	28.084	98.66	0.001760	56056.7	3.670850	-7.957846	794.759	1.231856	0.091428	0.091356	799.521	56056.7	0.080731	0.210461	3798.91	111639
1108	2.000000	1.234263	7.37589e+06	-55539.1	1055.82	-29741.2	0.000000	0.000000	7.270813	883.516	NaN	0.000000	0.001556	0.001728	28.0825	100.446	0.001709	58785	3.008919	173.549	875.437	1.233922	0.093763	0.093422	883.516	58785	0.082491	0.218578	4042.11	114878
1108	2.000000	1.236693	7.37589e+06	-55539.1	1055.82	-29741.2	0.000000	0.000000	7.274013	902.25	NaN	0.000000	0.001575	0.001732	28.0823	104.296	0.001793	58163.7	2.139031	-6.495657	889.505	1.236383	0.096192	0.095883	902.25	58163.7	0.084558	0.228299	3952.06	111218
1108	2.000000	1.239425	7.37589e+06	-55539.1	1055.82	-29741.2	0.000000	0.000000	7.276363	892.967	NaN	0.000000	0.001628	0.001728	28.0822	108.334	0.001798	60259.1	4.244806	171.136	892.624	1.239429	0.098925	0.098928	892.967	60259.1	0.087811	0.243992	3659.82	111457
1108	2.000000	1.241645	7.37589e+06	-55539.1	1055.82	-29741.2	0.000000	0.000000	7.282930	998.648	NaN	0.000000	0.001637	0.001715	28.0825	108.483	0.001740	62344.4	3.158256	-7.273682	981.458	1.241247	0.101144	0.100747	998.648	62344.4	0.089131	0.250500	3986.62	113806
1108	2.000000	1.243844	7.37589e+06	-55539.1	1055.82	-29741.2	0.000000	0.000000	7.286283	1026.68	NaN	0.000000	0.001635	0.001713	28.0833	110.414	0.001770	62383.4	0.717822	-4.926303	1022.2	1.243480	0.103344	0.102980	1026.68	62383.4	0.091001	0.259857	3950.92	111808