File: remote_trans/data/nanoindenter/0828-1/data/Data_2025-08-06,11h17m57s/2025-07-22_16-23-58_1_122.txt
2025-07-22, 16:23:58, 1
Index	Phase	Displacement	Time	Pos X	Pos Y	Pos Z	Rot A	Rot B	Piezo Z	Force A	Force B	Gripper	Voltage A	Voltage B	Temperature	Amplitude force	Amplitude pos	Stiffness	Phase shift	Phase excitation	Force A raw	Displacement raw	HMax	HMax raw	Real Force	Real Stiffness	Contact Depth	Area	Hardness	Reduced Mod.
[#]	[#]	[um]	[s]	[um]	[um]	[um]	[m°]	[m°]	[um]	[uN]	[uN]	[V]	[V]	[V]	[°C]	[uN]	[um]	[N/m]	[°]	[°]	[uN]	[um]	[um]	[um]	[uN]	[N/m]	[um]	[um^2]	[MPa]	[MPa]
122	1.000000	0.002559	7.36623e+06	-44739.1	955.819	-29775.3	0.000000	0.000000	6.002714	-0.065088	NaN	0.000000	0.001582	0.001766	28.1026	0.087932	0.000994	88.4818	-95.4385	176.828	-0.084572	0.001291	-1.049792	-1.051060	-0.065088	88.4818	-1.049240	-1.042806E+14	6.241588E-16	NaN
122	1.000000	0.010540	7.36623e+06	-44739.1	955.819	-29775.3	0.000000	0.000000	6.010698	-0.013425	NaN	0.000000	0.001597	0.001726	28.102	0.101115	0.000855	118.24	159.979	179.432	-0.004403	0.009239	-1.041811	-1.043112	-0.013425	118.24	-1.041726	-8.263707E+13	1.624543E-16	NaN
122	1.000000	0.018530	7.36623e+06	-44739.1	955.819	-29775.3	0.000000	0.000000	6.018689	0.027335	NaN	0.000000	0.001575	0.001742	28.1012	0.169239	0.001834	92.2884	-161.572	175.733	-0.040725	0.017222	-1.033821	-1.035129	0.027335	92.2884	-1.034043	-6.514235E+13	-4.196195E-16	NaN
122	1.000000	0.026557	7.36623e+06	-44739.1	955.818	-29775.3	0.000000	0.000000	6.026716	0.020576	NaN	0.000000	0.001574	0.001762	28.1008	0.103716	0.001791	57.925	-5.473618	169.498	-0.026670	0.025257	-1.025794	-1.027094	0.020576	57.925	-1.026060	-5.087279E+13	-4.044681E-16	NaN
122	1.000000	0.034539	7.36623e+06	-44739.1	955.818	-29775.3	0.000000	0.000000	6.034696	-0.029324	NaN	0.000000	0.001580	0.001753	28.1014	0.092058	0.001848	49.8058	-41.3458	173.02	0.031724	0.033245	-1.017812	-1.019106	-0.029324	49.8058	-1.017371	-3.886614E+13	7.544788E-16	NaN
122	1.000000	0.042528	7.36623e+06	-44739.1	955.819	-29775.3	0.000000	0.000000	6.042687	0.006464	NaN	0.000000	0.001591	0.001765	28.1001	0.082148	0.001948	42.1727	157.158	175.831	-0.014752	0.041244	-1.009823	-1.011106	0.006464	42.1727	-1.009938	-3.087047E+13	-2.093992E-16	NaN
122	1.000000	0.050537	7.36623e+06	-44739.1	955.819	-29775.3	0.000000	0.000000	6.050692	-0.070448	NaN	0.000000	0.001571	0.001738	28.099	0.108138	0.001980	54.6181	42.2537	176.639	-0.009832	0.049233	-1.001814	-1.003118	-0.070448	54.6181	-1.000847	-2.328985E+13	3.024850E-15	NaN
122	1.000000	0.058540	7.36623e+06	-44739.1	955.818	-29775.3	0.000000	0.000000	6.058696	-0.044474	NaN	0.000000	0.001594	0.001719	28.0999	0.091879	0.001994	46.0729	-85.7228	173.659	0.009887	0.057222	-0.993811	-0.995129	-0.044474	46.0729	-0.993087	-1.830990E+13	2.428980E-15	NaN
122	1.000000	0.066531	7.36623e+06	-44739.1	955.818	-29775.3	0.000000	0.000000	6.066690	0.001384	NaN	0.000000	0.001576	0.001710	28.0984	0.036900	0.001910	19.3236	-128.966	173.479	-0.080655	0.065144	-0.985819	-0.987206	0.001384	19.3236	-0.985873	-1.463949E+13	-9.454478E-17	NaN
122	1.000000	0.074513	7.36623e+06	-44739.1	955.818	-29775.3	0.000000	0.000000	6.074670	-0.041980	NaN	0.000000	0.001565	0.001708	28.0996	0.050606	0.001973	25.6465	164.225	177.566	-0.093070	0.073200	-0.977838	-0.979151	-0.041980	25.6465	-0.976610	-1.098352E+13	3.822115E-15	NaN
122	1.000000	0.082542	7.36623e+06	-44739.1	955.818	-29775.3	0.000000	0.000000	6.082701	0.019703	NaN	0.000000	0.001551	0.001705	28.0995	0.068597	0.002103	32.6193	134.103	178.17	-0.062482	0.081288	-0.969809	-0.971063	0.019703	32.6193	-0.970262	-9.019679E+12	-2.184455E-15	NaN
122	1.000000	0.090546	7.36623e+06	-44739.1	955.818	-29775.3	0.000000	0.000000	6.090700	-0.099302	NaN	0.000000	0.001596	0.001704	28.0994	0.093025	0.001956	47.5525	-83.2637	175.602	-0.041019	0.089221	-0.961805	-0.963130	-0.099302	47.5525	-0.960239	-6.608314E+12	1.502681E-14	NaN
122	1.000000	0.098533	7.36623e+06	-44739.1	955.819	-29775.3	0.000000	0.000000	6.098687	-0.097962	NaN	0.000000	0.001586	0.001750	28.1001	0.095698	0.001849	51.7674	59.9134	179.297	0.003429	0.097181	-0.953818	-0.955170	-0.097962	51.7674	-0.952399	-5.180527E+12	1.890974E-14	NaN
122	1.000000	0.106562	7.36623e+06	-44739.1	955.819	-29775.3	0.000000	0.000000	6.106715	-0.121113	NaN	0.000000	0.001597	0.001730	28.1002	0.145629	0.002010	72.465	55.0111	179.006	-0.081550	0.105195	-0.945789	-0.947156	-0.121113	72.465	-0.944536	-4.058102E+12	2.984478E-14	NaN
122	1.000000	0.114555	7.36623e+06	-44739.1	955.819	-29775.3	0.000000	0.000000	6.114714	0.011983	NaN	0.000000	0.001612	0.001736	28.1008	0.043847	0.002042	21.4772	-55.3681	175.564	0.006003	0.113257	-0.937796	-0.939094	0.011983	21.4772	-0.938214	-3.334581E+12	-3.593489E-15	NaN
122	1.000000	0.122554	7.36623e+06	-44739.1	955.818	-29775.3	0.000000	0.000000	6.122714	0.036700	NaN	0.000000	0.001580	0.001764	28.0982	0.062237	0.001953	31.8611	170.253	175.415	-0.000740	0.121200	-0.929797	-0.931151	0.036700	31.8611	-0.930661	-2.637017E+12	-1.391723E-14	NaN
122	1.000000	0.130547	7.36623e+06	-44739.1	955.818	-29775.3	0.000000	0.000000	6.130701	-0.113762	NaN	0.000000	0.001568	0.001752	28.0992	0.080615	0.002012	40.0713	-126.138	174.023	-0.120638	0.129281	-0.921804	-0.923069	-0.113762	40.0713	-0.919674	-1.874169E+12	6.069997E-14	NaN
122	1.000000	0.138563	7.36623e+06	-44739.1	955.818	-29775.3	0.000000	0.000000	6.138722	0.013133	NaN	0.000000	0.001594	0.001765	28.0987	0.065738	0.001966	33.4339	87.0877	175.164	-0.066468	0.137275	-0.913787	-0.915076	0.013133	33.4339	-0.914082	-1.575047E+12	-8.338130E-15	NaN
122	1.000000	0.146576	7.36623e+06	-44739.1	955.818	-29775.3	0.000000	0.000000	6.146733	-0.051545	NaN	0.000000	0.001612	0.001771	28.0989	0.169680	0.001932	87.8314	46.0796	176.855	-0.075409	0.145194	-0.905775	-0.907157	-0.051545	87.8314	-0.905335	-1.199888E+12	4.295800E-14	NaN
122	1.000000	0.154551	7.36623e+06	-44739.1	955.818	-29775.3	0.000000	0.000000	6.154708	-0.054120	NaN	0.000000	0.001597	0.001738	28.0999	0.052563	0.001984	26.4923	19.8308	177.373	0.029700	0.153207	-0.897800	-0.899144	-0.054120	26.4923	-0.896267	-9.049538E+11	5.980372E-14	NaN
122	1.000000	0.162579	7.36623e+06	-44739.1	955.819	-29775.3	0.000000	0.000000	6.162733	-0.096800	NaN	0.000000	0.001627	0.001724	28.0999	0.060271	0.001971	30.5821	-105.348	174.055	-0.099752	0.161256	-0.889772	-0.891094	-0.096800	30.5821	-0.887398	-6.866599E+11	1.409725E-13	NaN
122	1.000000	0.170585	7.36623e+06	-44739.1	955.818	-29775.4	0.000000	0.000000	6.170740	-0.073793	NaN	0.000000	0.001636	0.001723	28.1011	0.059414	0.002079	28.5737	18.8947	178.743	-0.080071	0.169257	-0.881766	-0.883093	-0.073793	28.5737	-0.879829	-5.424929E+11	1.360251E-13	NaN
122	1.000000	0.178543	7.36623e+06	-44739.1	955.818	-29775.4	0.000000	0.000000	6.178701	-0.020894	NaN	0.000000	0.001556	0.001717	28.1004	0.104465	0.001904	54.8538	43.3159	177.862	0.007290	0.177304	-0.873808	-0.875046	-0.020894	54.8538	-0.873522	-4.457506E+11	4.687452E-14	NaN
122	1.000000	0.186578	7.36623e+06	-44739.1	955.819	-29775.4	0.000000	0.000000	6.186736	-0.016841	NaN	0.000000	0.001587	0.001708	28.1007	0.092857	0.001950	47.6122	-20.4054	179.231	0.002943	0.185280	-0.865773	-0.867070	-0.016841	47.6122	-0.865507	-3.472609E+11	4.849728E-14	NaN
122	1.000000	0.194594	7.36623e+06	-44739.1	955.819	-29775.4	0.000000	0.000000	6.194750	-0.066832	NaN	0.000000	0.001576	0.001723	28.1008	0.084391	0.001997	42.258	60.7419	176.455	-0.098931	0.193299	-0.857756	-0.859052	-0.066832	42.258	-0.856570	-2.628425E+11	2.542671E-13	NaN
122	1.000000	0.202571	7.36623e+06	-44739.1	955.818	-29775.4	0.000000	0.000000	6.202731	0.031182	NaN	0.000000	0.001595	0.001757	28.1011	0.090633	0.001976	45.8625	-32.9488	173.712	0.037471	0.201252	-0.849780	-0.851099	0.031182	45.8625	-0.850290	-2.161046E+11	-1.442932E-13	NaN
122	1.000000	0.210556	7.36623e+06	-44739.1	955.819	-29775.4	0.000000	0.000000	6.210715	0.011313	NaN	0.000000	0.001587	0.001740	28.0997	0.050975	0.001990	25.6158	143.351	175.451	0.009411	0.209277	-0.841794	-0.843074	0.011313	25.6158	-0.842126	-1.675286E+11	-6.752896E-14	NaN
122	1.000000	0.218597	7.36623e+06	-44739.1	955.818	-29775.4	0.000000	0.000000	6.218751	-0.117670	NaN	0.000000	0.001565	0.001730	28.0993	0.022793	0.001874	12.1629	-45.9278	173.597	0.009638	0.217258	-0.833754	-0.835093	-0.117670	12.1629	-0.826498	-1.028760E+11	1.143806E-12	NaN
122	1.000000	0.226620	7.36623e+06	-44739.1	955.819	-29775.4	0.000000	0.000000	6.226778	-0.021593	NaN	0.000000	0.001576	0.001759	28.0997	0.071253	0.001923	37.0454	-42.37	173.711	-0.071659	0.225315	-0.825731	-0.827036	-0.021593	37.0454	-0.825294	-9.908005E+10	2.179331E-13	NaN
122	1.000000	0.234620	7.36623e+06	-44739.1	955.819	-29775.4	0.000000	0.000000	6.234778	-0.021173	NaN	0.000000	0.001558	0.001784	28.1001	0.021729	0.001988	10.9293	-103.056	176.335	0.014766	0.233331	-0.817731	-0.819019	-0.021173	10.9293	-0.816278	-7.477077E+10	2.831724E-13	NaN
122	1.000000	0.242575	7.36623e+06	-44739.1	955.818	-29775.4	0.000000	0.000000	6.242734	0.000175	NaN	0.000000	0.001580	0.001762	28.101	0.031241	0.001843	16.9551	-7.334724	173.369	-0.017952	0.241306	-0.809775	-0.811045	0.000175	16.9551	-0.809783	-6.104179E+10	-2.871525E-15	NaN
122	1.000000	0.250628	7.36623e+06	-44739.1	955.818	-29775.4	0.000000	0.000000	6.250786	-0.021207	NaN	0.000000	0.001578	0.001754	28.1002	0.082787	0.001964	42.1516	82.0272	176.703	0.067755	0.249288	-0.801723	-0.803062	-0.021207	42.1516	-0.801345	-4.689451E+10	4.522304E-13	NaN
122	1.000000	0.258615	7.36623e+06	-44739.1	955.819	-29775.4	0.000000	0.000000	6.258771	-0.069360	NaN	0.000000	0.001612	0.001747	28.1009	0.119221	0.002050	58.1679	4.745503	177.55	-0.028353	0.257293	-0.793736	-0.795057	-0.069360	58.1679	-0.792841	-3.594780E+10	1.929478E-12	NaN
122	1.000000	0.266609	7.36623e+06	-44739.1	955.819	-29775.4	0.000000	0.000000	6.266768	0.026805	NaN	0.000000	0.001627	0.001761	28.1012	0.035547	0.002029	17.5207	-130.213	173.384	0.020099	0.265322	-0.785742	-0.787029	0.026805	17.5207	-0.786890	-2.984255E+10	-8.982263E-13	NaN
122	1.000000	0.274603	7.36623e+06	-44739.1	955.818	-29775.4	0.000000	0.000000	6.274759	-0.063647	NaN	0.000000	0.001577	0.001731	28.101	0.072016	0.001947	36.9793	23.2117	175.45	-0.012361	0.273326	-0.777748	-0.779025	-0.063647	36.9793	-0.776457	-2.153192E+10	2.955933E-12	NaN
122	1.000000	0.282630	7.36623e+06	-44739.1	955.818	-29775.4	0.000000	0.000000	6.282789	0.011600	NaN	0.000000	0.001600	0.001750	28.1004	0.040857	0.002055	19.8862	-55.5422	179.208	0.076674	0.281296	-0.769720	-0.771055	0.011600	19.8862	-0.770158	-1.767874E+10	-6.561654E-13	NaN
122	1.000000	0.290626	7.36623e+06	-44739.1	955.819	-29775.4	0.000000	0.000000	6.290785	0.012018	NaN	0.000000	0.001632	0.001748	28.0981	0.057970	0.001899	30.5256	164.748	175.481	-0.068126	0.289249	-0.761725	-0.763102	0.012018	30.5256	-0.762020	-1.370185E+10	-8.771121E-13	NaN
122	1.000000	0.298608	7.36623e+06	-44739.1	955.819	-29775.4	0.000000	0.000000	6.298765	-0.046287	NaN	0.000000	0.001618	0.001736	28.0986	0.112237	0.001885	59.5419	64.0643	175.841	-0.025871	0.297339	-0.753743	-0.755012	-0.046287	59.5419	-0.753159	-1.038063E+10	4.458965E-12	NaN
122	1.000000	0.306639	7.36623e+06	-44739.1	955.819	-29775.4	0.000000	0.000000	6.306797	-0.004895	NaN	0.000000	0.001581	0.001733	28.0985	0.118416	0.002027	58.4326	-0.656578	179.516	0.034189	0.305282	-0.745712	-0.747069	-0.004895	58.4326	-0.745649	-8.203319E+9	5.966693E-13	NaN
122	1.000000	0.314644	7.36623e+06	-44739.1	955.818	-29775.4	0.000000	0.000000	6.314800	-0.068522	NaN	0.000000	0.001613	0.001750	28.0982	0.106332	0.002041	52.1076	-141.13	-179.783	-0.010586	0.313340	-0.737707	-0.739011	-0.068522	52.1076	-0.736721	-6.199887E+9	1.105216E-11	NaN
122	1.000000	0.322647	7.36623e+06	-44739.1	955.819	-29775.4	0.000000	0.000000	6.322804	-0.033494	NaN	0.000000	0.001643	0.001760	28.099	0.011068	0.001932	5.728398	105.369	172.72	-0.109117	0.321359	-0.729704	-0.730992	-0.033494	5.728398	-0.725319	-4.335111E+9	7.726155E-12	NaN
122	1.000000	0.330648	7.36623e+06	-44739.1	955.819	-29775.4	0.000000	0.000000	6.330805	-0.040450	NaN	0.000000	0.001608	0.001730	28.0989	0.079020	0.002073	38.1136	-11.2875	175.278	-0.036014	0.329346	-0.721703	-0.723005	-0.040450	38.1136	-0.720907	-3.774322E+9	1.071724E-11	NaN
122	1.000000	0.338661	7.36623e+06	-44739.1	955.818	-29775.4	0.000000	0.000000	6.338816	-0.083462	NaN	0.000000	0.001641	0.001768	28.0984	0.041606	0.002090	19.9064	42.3807	172.607	-0.006719	0.337320	-0.713690	-0.715030	-0.083462	19.9064	-0.710545	-2.725778E+9	3.061954E-11	NaN
122	1.000000	0.346649	7.36623e+06	-44739.1	955.818	-29775.4	0.000000	0.000000	6.346807	-0.017018	NaN	0.000000	0.001655	0.001762	28.0993	0.072338	0.002056	35.1801	135.422	174.199	-0.058891	0.345272	-0.705701	-0.707079	-0.017018	35.1801	-0.705338	-2.314316E+9	7.353427E-12	NaN
122	1.000000	0.354662	7.36623e+06	-44739.1	955.818	-29775.4	0.000000	0.000000	6.354822	0.036482	NaN	0.000000	0.001686	0.001728	28.0989	0.147608	0.002090	70.6143	-145.85	175.315	-0.009775	0.353332	-0.697689	-0.699019	0.036482	70.6143	-0.698076	-1.841866E+9	-1.980706E-11	NaN
122	1.000000	0.362664	7.36623e+06	-44739.1	955.818	-29775.4	0.000000	0.000000	6.362823	0.009693	NaN	0.000000	0.001664	0.001747	28.0983	0.049371	0.002015	24.5042	-24.1553	178.458	-0.020912	0.361343	-0.689686	-0.691007	0.009693	24.5042	-0.689983	-1.427861E+9	-6.788743E-12	NaN
122	1.000000	0.370662	7.36623e+06	-44739.1	955.818	-29775.4	0.000000	0.000000	6.370819	-0.032280	NaN	0.000000	0.001619	0.001748	28.098	0.146719	0.001870	78.4762	173.39	176.559	-0.015800	0.369356	-0.681689	-0.682995	-0.032280	78.4762	-0.681380	-1.089138E+9	2.963801E-11	NaN
122	1.000000	0.378656	7.36623e+06	-44739.1	955.819	-29775.4	0.000000	0.000000	6.378810	-0.098615	NaN	0.000000	0.001601	0.001731	28.0982	0.044668	0.001955	22.8433	-132.895	175.565	-0.007544	0.377400	-0.673695	-0.674951	-0.098615	22.8433	-0.670457	-7.720517E+8	1.277316E-10	NaN
122	1.000000	0.386691	7.36623e+06	-44739.1	955.819	-29775.4	0.000000	0.000000	6.386846	-0.083441	NaN	0.000000	0.001602	0.001766	28.0978	0.113230	0.002028	55.8313	-52.9203	177.705	-0.000480	0.385359	-0.665660	-0.666991	-0.083441	55.8313	-0.664539	-6.406680E+8	1.302406E-10	NaN
122	1.000000	0.394664	7.36623e+06	-44739.1	955.818	-29775.4	0.000000	0.000000	6.394823	0.004209	NaN	0.000000	0.001629	0.001784	28.0974	0.092280	0.001920	48.0701	159.36	174.949	-0.001392	0.393343	-0.657686	-0.659007	0.004209	48.0701	-0.657752	-5.172206E+8	-8.138539E-12	NaN
122	1.000000	0.402684	7.36623e+06	-44739.1	955.819	-29775.4	0.000000	0.000000	6.402845	0.067652	NaN	0.000000	0.001596	0.001755	28.099	0.082945	0.002191	37.8587	5.610452	174.56	0.053379	0.401340	-0.649667	-0.651010	0.067652	37.8587	-0.651007	-4.180606E+8	-1.618232E-10	NaN
122	1.000000	0.410665	7.36623e+06	-44739.1	955.818	-29775.4	0.000000	0.000000	6.410821	-0.060370	NaN	0.000000	0.001598	0.001766	28.0987	0.048813	0.002200	22.1882	37.7667	174.867	-0.071697	0.409394	-0.641685	-0.642957	-0.060370	22.1882	-0.639645	-2.920223E+8	2.067308E-10	NaN
122	1.000000	0.418674	7.36623e+06	-44739.1	955.819	-29775.4	0.000000	0.000000	6.418830	-0.049955	NaN	0.000000	0.001619	0.001776	28.0982	0.152870	0.001985	77.0141	-129.353	175.18	-0.001145	0.417344	-0.633677	-0.635007	-0.049955	77.0141	-0.633190	-2.381393E+8	2.097721E-10	NaN
122	1.000000	0.426673	7.36623e+06	-44739.1	955.818	-29775.4	0.000000	0.000000	6.426829	-0.073529	NaN	0.000000	0.001623	0.001767	28.1001	0.121607	0.001911	63.6461	-20.1544	171.763	-0.063271	0.425364	-0.625677	-0.626987	-0.073529	63.6461	-0.624811	-1.827037E+8	4.024512E-10	NaN
122	1.000000	0.434683	7.36623e+06	-44739.1	955.818	-29775.4	0.000000	0.000000	6.434841	-0.018268	NaN	0.000000	0.001592	0.001745	28.1	0.018758	0.001925	9.744106	80.1919	172.837	0.005051	0.433373	-0.617667	-0.618978	-0.018268	9.744106	-0.616261	-1.393912E+8	1.310574E-10	NaN
122	1.000000	0.442703	7.36623e+06	-44739.1	955.819	-29775.4	0.000000	0.000000	6.442860	-0.030358	NaN	0.000000	0.001582	0.001790	28.0997	0.089274	0.002078	42.9678	-94.5724	177.155	0.009710	0.441431	-0.609648	-0.610920	-0.030358	42.9678	-0.609118	-1.111683E+8	2.730818E-10	NaN
122	1.000000	0.450690	7.36623e+06	-44739.1	955.818	-29775.4	0.000000	0.000000	6.450844	-0.094163	NaN	0.000000	0.001584	0.001739	28.0982	0.029663	0.002022	14.6726	-161.828	175.493	-0.121375	0.449356	-0.601661	-0.602995	-0.094163	14.6726	-0.596848	-7.534293E+7	1.249791E-9	NaN
122	1.000000	0.458704	7.36623e+06	-44739.1	955.818	-29775.4	0.000000	0.000000	6.458861	-0.028191	NaN	0.000000	0.001574	0.001740	28.0992	0.042062	0.001984	21.1978	-46.0608	172.68	0.015215	0.457358	-0.593647	-0.594993	-0.028191	21.1978	-0.592649	-6.594600E+7	4.274852E-10	NaN
122	1.000000	0.466671	7.36623e+06	-44739.1	955.819	-29775.4	0.000000	0.000000	6.466824	-0.137829	NaN	0.000000	0.001616	0.001716	28.0987	0.050877	0.001989	25.5782	123.383	174.183	-0.136256	0.465365	-0.585680	-0.586986	-0.137829	25.5782	-0.581638	-4.648757E+7	2.964864E-9	NaN
122	1.000000	0.474715	7.36623e+06	-44739.1	955.819	-29775.4	0.000000	0.000000	6.474873	-0.016792	NaN	0.000000	0.001573	0.001751	28.0981	0.095931	0.002079	46.1445	-173.323	178.98	-0.052710	0.473424	-0.577636	-0.578927	-0.016792	46.1445	-0.577363	-4.058083E+7	4.137956E-10	NaN
122	1.000000	0.482749	7.36623e+06	-44739.1	955.818	-29775.4	0.000000	0.000000	6.482903	-0.100280	NaN	0.000000	0.001537	0.001752	28.1	0.051776	0.002101	24.6384	122.784	178.375	-0.089503	0.481395	-0.569602	-0.570955	-0.100280	24.6384	-0.566549	-2.877025E+7	3.485539E-9	NaN
122	1.000000	0.490702	7.36623e+06	-44739.1	955.818	-29775.4	0.000000	0.000000	6.490858	-0.068076	NaN	0.000000	0.001544	0.001738	28.0996	0.111457	0.001933	57.6625	159.103	177.797	-0.074226	0.489374	-0.561649	-0.562977	-0.068076	57.6625	-0.560763	-2.392975E+7	2.844839E-9	NaN
122	1.000000	0.498723	7.36623e+06	-44739.1	955.819	-29775.4	0.000000	0.000000	6.498879	-0.072402	NaN	0.000000	0.001543	0.001728	28.0999	0.157873	0.001873	84.2706	160.722	177.711	-0.000322	0.497391	-0.553627	-0.554960	-0.072402	84.2706	-0.552983	-1.867524E+7	3.876877E-9	NaN
122	1.000000	0.506772	7.36623e+06	-44739.1	955.819	-29775.4	0.000000	0.000000	6.506928	-0.077838	NaN	0.000000	0.001552	0.001752	28.0998	0.034616	0.001947	17.781	80.8417	178.681	-0.047943	0.505386	-0.545578	-0.546964	-0.077838	17.781	-0.542295	-1.327963E+7	5.861447E-9	NaN
122	1.000000	0.514750	7.36623e+06	-44739.1	955.818	-29775.4	0.000000	0.000000	6.514908	-0.022440	NaN	0.000000	0.001580	0.001769	28.0991	0.070242	0.001895	37.0622	-173.611	177.232	-0.039587	0.513419	-0.537600	-0.538932	-0.022440	37.0622	-0.537146	-1.126609E+7	1.991850E-9	NaN
122	1.000000	0.522705	7.36623e+06	-44739.1	955.818	-29775.4	0.000000	0.000000	6.522864	0.003941	NaN	0.000000	0.001567	0.001754	28.0991	0.074885	0.002149	34.8418	2.473786	174.061	-0.022195	0.521387	-0.529645	-0.530964	0.003941	34.8418	-0.529730	-8.88846e+06	-4.434329E-10	NaN
122	1.000000	0.530759	7.36623e+06	-44739.1	955.818	-29775.4	0.000000	0.000000	6.530916	-0.032135	NaN	0.000000	0.001544	0.001787	28.0984	0.041323	0.002009	20.5737	-93.4226	173.505	-0.056688	0.529441	-0.521591	-0.522910	-0.032135	20.5737	-0.520420	-6.5984e+06	4.870184E-9	NaN
122	1.000000	0.538737	7.36623e+06	-44739.1	955.818	-29775.4	0.000000	0.000000	6.538894	-0.039590	NaN	0.000000	0.001587	0.001784	28.0982	0.128004	0.002086	61.373	34.1818	175.842	-0.000946	0.537403	-0.513614	-0.514947	-0.039590	61.373	-0.513130	-5.22402e+06	7.578546E-9	NaN
122	1.000000	0.546743	7.36623e+06	-44739.1	955.817	-29775.4	0.000000	0.000000	6.546899	-0.061415	NaN	0.000000	0.001565	0.001762	28.0991	0.078094	0.001979	39.4592	124.991	175.609	-0.056108	0.545365	-0.505608	-0.506986	-0.061415	39.4592	-0.504440	-3.95315e+06	1.553571E-8	NaN
122	1.000000	0.554676	7.36623e+06	-44739.1	955.818	-29775.4	0.000000	0.000000	6.554830	-0.113526	NaN	0.000000	0.001585	0.001763	28.0978	0.087567	0.001985	44.1187	73.0272	176.552	-0.132270	0.553435	-0.497675	-0.498916	-0.113526	44.1187	-0.495745	-2.98973e+06	3.797189E-8	NaN
122	1.000000	0.562748	7.36623e+06	-44739.1	955.818	-29775.4	0.000000	0.000000	6.562906	-0.021454	NaN	0.000000	0.001579	0.001745	28.0962	0.036976	0.001922	19.2422	-146.309	174.354	0.025906	0.561377	-0.489602	-0.490973	-0.021454	19.2422	-0.488766	-2.38864e+06	8.981689E-9	NaN
122	1.000000	0.570745	7.36623e+06	-44739.1	955.819	-29775.4	0.000000	0.000000	6.570901	-0.067078	NaN	0.000000	0.001531	0.001761	28.098	0.062642	0.001849	33.8742	138.04	171.669	-0.036127	0.569460	-0.481606	-0.482891	-0.067078	33.8742	-0.480120	-1.80806e+06	3.709951E-8	NaN
122	1.000000	0.578786	7.36623e+06	-44739.1	955.818	-29775.4	0.000000	0.000000	6.578942	-0.062557	NaN	0.000000	0.001566	0.001735	28.0979	0.106642	0.002091	51.0104	74.5577	174.465	-0.124668	0.577444	-0.473565	-0.474907	-0.062557	51.0104	-0.472645	-1.42067e+06	4.403316E-8	NaN
122	1.000000	0.586773	7.36623e+06	-44739.1	955.818	-29775.4	0.000000	0.000000	6.586930	-0.045460	NaN	0.000000	0.001581	0.001731	28.0979	0.121789	0.001937	62.8781	17.805	176.31	-0.070201	0.585471	-0.465578	-0.466880	-0.045460	62.8781	-0.465036	-1.11109e+06	4.091473E-8	NaN
122	1.000000	0.594773	7.36623e+06	-44739.1	955.819	-29775.4	0.000000	0.000000	6.594926	-0.129644	NaN	0.000000	0.001583	0.001752	28.0974	0.109606	0.001882	58.2274	-159.243	176.953	-0.142740	0.593450	-0.457578	-0.458901	-0.129644	58.2274	-0.455908	-826974	1.567691E-7	NaN
122	1.000000	0.602774	7.36623e+06	-44739.1	955.819	-29775.4	0.000000	0.000000	6.602931	-0.039827	NaN	0.000000	0.001572	0.001741	28.0968	0.073156	0.001864	39.2517	54.6753	175.141	-0.024305	0.601492	-0.449577	-0.450858	-0.039827	39.2517	-0.448816	-657157	6.060542E-8	NaN
122	1.000000	0.610737	7.36623e+06	-44739.1	955.819	-29775.4	0.000000	0.000000	6.610896	0.009950	NaN	0.000000	0.001574	0.001739	28.097	0.063621	0.002048	31.0669	145.707	172.898	0.001985	0.609452	-0.441613	-0.442899	0.009950	31.0669	-0.441854	-524229	-1.898086E-8	NaN
122	1.000000	0.618769	7.36623e+06	-44739.1	955.819	-29775.4	0.000000	0.000000	6.618926	-0.056670	NaN	0.000000	0.001574	0.001756	28.0963	0.065732	0.001878	34.9952	-103.214	173.443	-0.062167	0.617471	-0.433581	-0.434879	-0.056670	34.9952	-0.432367	-385065	1.471703E-7	NaN
122	1.000000	0.626781	7.36623e+06	-44739.1	955.819	-29775.4	0.000000	0.000000	6.626937	-0.045377	NaN	0.000000	0.001585	0.001748	28.0965	0.061950	0.001954	31.7124	-80.2016	174.508	0.016573	0.625512	-0.425570	-0.426839	-0.045377	31.7124	-0.424497	-297958	1.522917E-7	NaN
122	1.000000	0.634785	7.36623e+06	-44739.1	955.818	-29775.4	0.000000	0.000000	6.634942	-0.035493	NaN	0.000000	0.001613	0.001782	28.0962	0.156158	0.001941	80.4544	-23.1245	178.218	-0.005610	0.633462	-0.417566	-0.418889	-0.035493	80.4544	-0.417235	-235064	1.509948E-7	NaN
122	1.000000	0.642794	7.36623e+06	-44739.1	955.818	-29775.4	0.000000	0.000000	6.642950	-0.069901	NaN	0.000000	0.001612	0.001769	28.0966	0.036396	0.002050	17.7581	-128.996	175.97	-0.090236	0.641434	-0.409557	-0.410916	-0.069901	17.7581	-0.406604	-165993	4.211070E-7	NaN
122	1.000000	0.650764	7.36623e+06	-44739.1	955.819	-29775.4	0.000000	0.000000	6.650921	-0.055094	NaN	0.000000	0.001597	0.001757	28.0982	0.065653	0.001964	33.4325	-14.9126	175.932	-0.087876	0.649451	-0.401586	-0.402900	-0.055094	33.4325	-0.400351	-135205	4.074876E-7	NaN
122	1.000000	0.658784	7.36623e+06	-44739.1	955.818	-29775.4	0.000000	0.000000	6.658941	-0.031577	NaN	0.000000	0.001628	0.001755	28.0976	0.029746	0.002027	14.6726	168.808	175.887	-0.081839	0.657483	-0.393567	-0.394868	-0.031577	14.6726	-0.391953	-102586	3.078072E-7	NaN
122	1.000000	0.666782	7.36623e+06	-44739.1	955.818	-29775.4	0.000000	0.000000	6.666938	-0.046642	NaN	0.000000	0.001613	0.001767	28.0965	0.100077	0.002030	49.2907	94.9067	177.693	-0.058138	0.665500	-0.385569	-0.386851	-0.046642	49.2907	-0.384859	-81202.7	5.743857E-7	NaN
122	1.000000	0.674788	7.36623e+06	-44739.1	955.819	-29775.4	0.000000	0.000000	6.674945	-0.020456	NaN	0.000000	0.001576	0.001765	28.0967	0.069089	0.001977	34.9485	162.989	173.158	-0.005301	0.673476	-0.377563	-0.378875	-0.020456	34.9485	-0.377124	-62892.1	3.252534E-7	NaN
122	1.000000	0.682797	7.36623e+06	-44739.1	955.819	-29775.4	0.000000	0.000000	6.682953	-0.076597	NaN	0.000000	0.001614	0.001756	28.0968	0.066799	0.001869	35.7496	130.209	175.497	-0.083049	0.681440	-0.369553	-0.370911	-0.076597	35.7496	-0.367946	-46402.5	1.650699E-6	NaN
122	1.000000	0.690814	7.36623e+06	-44739.1	955.818	-29775.4	0.000000	0.000000	6.690973	0.023330	NaN	0.000000	0.001654	0.001816	28.097	0.116478	0.002035	57.2442	26.7853	176.374	-0.038814	0.689513	-0.361537	-0.362838	0.023330	57.2442	-0.361843	-37885.6	-6.158063E-7	NaN
122	1.000000	0.698812	7.36623e+06	-44739.1	955.818	-29775.4	0.000000	0.000000	6.698969	-0.042428	NaN	0.000000	0.001602	0.001722	28.0969	0.071121	0.001993	35.6833	-101.261	173.631	-0.091441	0.697577	-0.353539	-0.354774	-0.042428	35.6833	-0.352647	-27886.9	1.521443E-6	NaN
122	1.000000	0.706823	7.36623e+06	-44739.1	955.818	-29775.4	0.000000	0.000000	6.706980	-0.047994	NaN	0.000000	0.001607	0.001761	28.0966	0.042960	0.002063	20.8248	152.522	177.708	-0.015431	0.705508	-0.345527	-0.346842	-0.047994	20.8248	-0.343799	-20743.5	2.313676E-6	NaN
122	1.000000	0.714789	7.36623e+06	-44739.1	955.818	-29775.4	0.000000	0.000000	6.714948	0.018598	NaN	0.000000	0.001650	0.001768	28.0969	0.037711	0.002135	17.6595	-102.728	175.15	-0.026263	0.713493	-0.337562	-0.338857	0.018598	17.6595	-0.338351	-17278.8	-1.076342E-6	NaN
122	1.000000	0.722810	7.36623e+06	-44739.1	955.818	-29775.4	0.000000	0.000000	6.722967	-0.030968	NaN	0.000000	0.001665	0.001746	28.0976	0.028426	0.001941	14.6439	72.1789	173.905	0.025997	0.721467	-0.329541	-0.330884	-0.030968	14.6439	-0.327955	-12175.4	2.543486E-6	NaN
122	1.000000	0.730794	7.36623e+06	-44739.1	955.819	-29775.4	0.000000	0.000000	6.730948	-0.109903	NaN	0.000000	0.001699	0.001724	28.0983	0.095433	0.001822	52.3794	92.1928	179.031	-0.028570	0.729526	-0.321557	-0.322824	-0.109903	52.3794	-0.319983	-9298.04	1.182006E-5	NaN
122	1.000000	0.738797	7.36623e+06	-44739.1	955.818	-29775.4	0.000000	0.000000	6.738951	-0.087204	NaN	0.000000	0.001685	0.001770	28.0976	0.058370	0.001839	31.7473	110.966	172.899	-0.079833	0.737491	-0.313554	-0.314860	-0.087204	31.7473	-0.311494	-6968.8	1.251355E-5	NaN
122	1.000000	0.746830	7.36623e+06	-44739.1	955.818	-29775.4	0.000000	0.000000	6.746986	-0.068909	NaN	0.000000	0.001647	0.001831	28.0989	0.133170	0.001999	66.6207	-175.207	177.528	-0.064077	0.745475	-0.305521	-0.306876	-0.068909	66.6207	-0.304745	-5535.66	1.244824E-5	NaN
122	1.000000	0.754812	7.36623e+06	-44739.1	955.819	-29775.4	0.000000	0.000000	6.754968	-0.068751	NaN	0.000000	0.001619	0.001802	28.0982	0.080214	0.001951	41.1165	69.4174	174.346	-0.021628	0.753487	-0.297539	-0.298864	-0.068751	41.1165	-0.296285	-4142.52	1.659635E-5	NaN
122	1.000000	0.762811	7.36623e+06	-44739.1	955.819	-29775.4	0.000000	0.000000	6.762970	0.011421	NaN	0.000000	0.001595	0.001787	28.0978	0.054482	0.002064	26.398	164.233	174.766	-0.010664	0.761491	-0.289540	-0.290860	0.011421	26.398	-0.289865	-3321.04	-3.438962E-6	NaN
122	1.000000	0.770816	7.36623e+06	-44739.1	955.818	-29775.4	0.000000	0.000000	6.770970	-0.101619	NaN	0.000000	0.001568	0.001803	28.0977	0.019622	0.001933	10.1492	11.0039	176.46	-0.001080	0.769482	-0.281535	-0.282869	-0.101619	10.1492	-0.274025	-1917.07	5.300747E-5	NaN
122	1.000000	0.778861	7.36623e+06	-44739.1	955.818	-29775.4	0.000000	0.000000	6.779018	-0.039786	NaN	0.000000	0.001555	0.001768	28.0974	0.077556	0.001991	38.9549	44.0609	175.006	-0.038230	0.777532	-0.273489	-0.274819	-0.039786	38.9549	-0.272723	-1831.89	2.171882E-5	NaN
122	1.000000	0.786804	7.36623e+06	-44739.1	955.819	-29775.4	0.000000	0.000000	6.786961	-0.039443	NaN	0.000000	0.001535	0.001772	28.0964	0.040836	0.002120	19.2618	141.514	178.858	-0.106116	0.785537	-0.265547	-0.266814	-0.039443	19.2618	-0.264011	-1349.86	2.922017E-5	NaN
122	1.000000	0.794839	7.36623e+06	-44739.1	955.818	-29775.4	0.000000	0.000000	6.794996	-0.039160	NaN	0.000000	0.001567	0.001765	28.097	0.085879	0.002065	41.5972	-130.308	176.752	-0.086885	0.793517	-0.257511	-0.258834	-0.039160	41.5972	-0.256805	-1046.85	3.740695E-5	NaN
122	1.000000	0.802850	7.36623e+06	-44739.1	955.819	-29775.4	0.000000	0.000000	6.803005	-0.077357	NaN	0.000000	0.001569	0.001760	28.0967	0.086014	0.001958	43.9367	47.5939	175.346	-0.100571	0.801497	-0.249501	-0.250854	-0.077357	43.9367	-0.248181	-770.555	0.000100	NaN
122	1.000000	0.810841	7.36623e+06	-44739.1	955.818	-29775.4	0.000000	0.000000	6.810998	-0.045881	NaN	0.000000	0.001562	0.001764	28.0981	0.111300	0.002149	51.7813	-46.8639	175.437	0.012916	0.809562	-0.241510	-0.242789	-0.045881	51.7813	-0.240845	-592.578	7.742618E-5	NaN
122	1.000000	0.818838	7.36623e+06	-44739.1	955.818	-29775.4	0.000000	0.000000	6.818992	-0.092447	NaN	0.000000	0.001555	0.001733	28.0981	0.085443	0.002062	41.4344	-8.691482	176.844	-0.004656	0.817532	-0.233513	-0.234819	-0.092447	41.4344	-0.231840	-428.093	0.000216	NaN
122	1.000000	0.826848	7.36623e+06	-44739.1	955.818	-29775.4	0.000000	0.000000	6.827005	-0.041095	NaN	0.000000	0.001508	0.001797	28.098	0.058359	0.001955	29.8538	178.944	176.325	-0.096687	0.825551	-0.225502	-0.226800	-0.041095	29.8538	-0.224470	-327.275	0.000126	NaN
122	1.000000	0.834848	7.36623e+06	-44739.1	955.818	-29775.4	0.000000	0.000000	6.835003	-0.075095	NaN	0.000000	0.001584	0.001766	28.0972	0.029439	0.001901	15.488	-173.143	175.113	-0.150404	0.833558	-0.217503	-0.218793	-0.075095	15.488	-0.213867	-221.449	0.000339	NaN
122	1.000000	0.842848	7.36623e+06	-44739.1	955.819	-29775.4	0.000000	0.000000	6.843003	-0.086276	NaN	0.000000	0.001609	0.001736	28.0963	0.086553	0.001972	43.8916	154.749	179.447	-0.048899	0.841567	-0.209503	-0.210784	-0.086276	43.8916	-0.208028	-178.174	0.000484	NaN
122	1.000000	0.850844	7.36623e+06	-44739.1	955.818	-29775.4	0.000000	0.000000	6.851001	-0.046107	NaN	0.000000	0.001598	0.001748	28.0963	0.058324	0.002018	28.9057	-75.1295	174.596	-0.007357	0.849535	-0.201507	-0.202816	-0.046107	28.9057	-0.200310	-133.291	0.000346	NaN
122	1.000000	0.858867	7.36623e+06	-44739.1	955.819	-29775.4	0.000000	0.000000	6.859026	0.010306	NaN	0.000000	0.001623	0.001773	28.0951	0.065668	0.001882	34.9011	12.5575	172.636	-0.005412	0.857526	-0.193484	-0.194825	0.010306	34.9011	-0.193705	-103.689	-9.939049E-5	NaN
122	1.000000	0.866897	7.36623e+06	-44739.1	955.819	-29775.4	0.000000	0.000000	6.867055	-0.010625	NaN	0.000000	0.001571	0.001741	28.0954	0.084721	0.002119	39.9835	96.2558	175.801	-0.037644	0.865558	-0.185454	-0.186793	-0.010625	39.9835	-0.185255	-74.89	0.000142	NaN
122	1.000000	0.874876	7.36623e+06	-44739.1	955.819	-29775.4	0.000000	0.000000	6.875035	0.020216	NaN	0.000000	0.001548	0.001753	28.0951	0.119953	0.001977	60.682	141.452	172.975	-0.092588	0.873541	-0.177475	-0.178810	0.020216	60.682	-0.177725	-55.8053	-0.000362	NaN
122	1.000000	0.882895	7.36623e+06	-44739.1	955.818	-29775.4	0.000000	0.000000	6.883051	-0.081238	NaN	0.000000	0.001608	0.001750	28.0966	0.015349	0.001922	7.986770	97.2905	174.552	-0.101405	0.881531	-0.169455	-0.170820	-0.081238	7.986770	-0.161827	-29.5374	0.002750	NaN
122	1.000000	0.890871	7.36623e+06	-44739.1	955.819	-29775.4	0.000000	0.000000	6.891029	-0.012695	NaN	0.000000	0.001615	0.001750	28.0965	0.069858	0.001986	35.1759	38.7381	178.426	-0.039331	0.889575	-0.161479	-0.162775	-0.012695	35.1759	-0.161209	-28.8027	0.000441	NaN
122	1.000000	0.898901	7.36623e+06	-44739.1	955.818	-29775.4	0.000000	0.000000	6.899058	-0.046436	NaN	0.000000	0.001607	0.001757	28.0964	0.084850	0.001947	43.5817	-167.421	174.584	-0.074076	0.897590	-0.153449	-0.154760	-0.046436	43.5817	-0.152650	-20.2379	0.002295	NaN
122	1.000000	0.906913	7.36623e+06	-44739.1	955.818	-29775.4	0.000000	0.000000	6.907072	0.022298	NaN	0.000000	0.001605	0.001784	28.0966	0.055834	0.001990	28.0586	-133.911	177.017	-0.027091	0.905527	-0.145438	-0.146824	0.022298	28.0586	-0.146034	-15.3203	-0.001455	NaN
122	1.000000	0.914874	7.36623e+06	-44739.1	955.817	-29775.4	0.000000	0.000000	6.915031	-0.030145	NaN	0.000000	0.001559	0.001770	28.0968	0.047141	0.002019	23.3471	-107.417	179.51	-0.048308	0.913621	-0.137477	-0.138730	-0.030145	23.3471	-0.136508	-10.1627	0.002966	NaN
122	1.000000	0.922892	7.36623e+06	-44739.1	955.818	-29775.4	0.000000	0.000000	6.923049	-0.020635	NaN	0.000000	0.001584	0.001732	28.095	0.055793	0.001993	27.9923	-103.746	177.398	-0.051806	0.921559	-0.129459	-0.130792	-0.020635	27.9923	-0.128906	-7.256411	0.002844	NaN
122	1.000000	0.930883	7.36623e+06	-44739.1	955.818	-29775.4	0.000000	0.000000	6.931040	-0.033764	NaN	0.000000	0.001594	0.001772	28.0953	0.104775	0.001987	52.7249	-146.482	175.189	-0.040484	0.929505	-0.121468	-0.122846	-0.033764	52.7249	-0.120987	-5.057922	0.006676	NaN
122	1.000000	0.938909	7.36623e+06	-44739.1	955.818	-29775.4	0.000000	0.000000	6.939070	0.047702	NaN	0.000000	0.001572	0.001762	28.0953	0.157926	0.002015	78.3772	145.285	175.524	-0.115618	0.937575	-0.113442	-0.114776	0.047702	78.3772	-0.113898	-3.625238	-0.013158	NaN
122	1.000000	0.946891	7.36623e+06	-44739.1	955.818	-29775.4	0.000000	0.000000	6.947048	-0.034990	NaN	0.000000	0.001594	0.001796	28.0947	0.105187	0.002022	52.0325	-46.6724	171.232	-0.035686	0.945585	-0.105459	-0.106766	-0.034990	52.0325	-0.104955	-2.345323	0.014919	NaN
122	1.000000	0.954908	7.36623e+06	-44739.1	955.819	-29775.4	0.000000	0.000000	6.955068	0.024990	NaN	0.000000	0.001607	0.001777	28.0955	0.145744	0.002061	70.7284	73.5685	173.487	0.059538	0.953559	-0.097443	-0.098792	0.024990	70.7284	-0.097708	-1.624226	-0.015386	NaN
122	1.000000	0.962934	7.36623e+06	-44739.1	955.818	-29775.4	0.000000	0.000000	6.963091	-0.035785	NaN	0.000000	0.001574	0.001761	28.0959	0.049995	0.001935	25.8353	-59.6453	174.399	-0.042219	0.961624	-0.089417	-0.090727	-0.035785	25.8353	-0.088378	-0.989867	0.036151	NaN
122	1.000000	0.970932	7.36623e+06	-44739.1	955.818	-29775.4	0.000000	0.000000	6.971089	-0.031899	NaN	0.000000	0.001608	0.001765	28.0971	0.071701	0.001988	36.0716	-88.5932	174.519	-0.101093	0.969554	-0.081419	-0.082797	-0.031899	36.0716	-0.080756	-0.646448	0.049345	NaN
122	1.000000	0.978907	7.36623e+06	-44739.1	955.818	-29775.4	0.000000	0.000000	6.979064	-0.042030	NaN	0.000000	0.001565	0.001749	28.0974	0.089551	0.001989	45.0297	-80.5234	175.53	-0.048099	0.977594	-0.073444	-0.074756	-0.042030	45.0297	-0.072744	-0.403359	0.104201	NaN
122	1.000000	0.986937	7.36623e+06	-44739.1	955.818	-29775.4	0.000000	0.000000	6.987094	-0.038100	NaN	0.000000	0.001598	0.001731	28.0973	0.069961	0.001931	36.2268	-163.97	173.522	0.003706	0.985566	-0.065414	-0.066784	-0.038100	36.2268	-0.064625	-0.243309	0.156592	NaN
122	1.000000	0.994905	7.36623e+06	-44739.1	955.818	-29775.4	0.000000	0.000000	6.995063	-0.019627	NaN	0.000000	0.001590	0.001755	28.0965	0.055085	0.002035	27.0739	80.9445	176.034	-0.058404	0.993555	-0.057445	-0.058796	-0.019627	27.0739	-0.056902	-0.146470	0.133998	NaN
122	1.000000	1.002936	7.36623e+06	-44739.1	955.818	-29775.4	0.000000	0.000000	7.003091	-0.100373	NaN	0.000000	0.001555	0.001779	28.0958	0.118393	0.002023	58.5213	-3.871816	175.982	-0.069782	1.001580	-0.049415	-0.050771	-0.100373	58.5213	-0.048128	-0.080068	1.253603	NaN
122	1.000000	1.010925	7.36623e+06	-44739.1	955.818	-29775.4	0.000000	0.000000	7.011081	-0.062163	NaN	0.000000	0.001538	0.001763	28.0958	0.085194	0.002019	42.2051	177.751	173.677	-0.075906	1.009577	-0.041426	-0.042774	-0.062163	42.2051	-0.040321	-0.046249	1.344107	NaN
122	1.000000	1.018956	7.36624e+06	-44739.1	955.818	-29775.4	0.000000	0.000000	7.019115	0.010164	NaN	0.000000	0.001572	0.001757	28.0968	0.083294	0.001975	42.169	-2.175603	176.144	0.022214	1.017622	-0.033395	-0.034729	0.010164	42.169	-0.033575	-0.029094	-0.349342	NaN
122	1.000000	1.026951	7.36624e+06	-44739.1	955.818	-29775.4	0.000000	0.000000	7.027105	-0.105975	NaN	0.000000	0.001548	0.001789	28.0954	0.038652	0.002045	18.9008	-56.4819	174.068	-0.052397	1.025622	-0.025400	-0.026729	-0.105975	18.9008	-0.021195	-0.013470	7.867175	NaN
122	1.000000	1.034918	7.36624e+06	-44739.1	955.818	-29775.4	0.000000	0.000000	7.035076	-0.014883	NaN	0.000000	0.001563	0.001817	28.0955	0.094003	0.002051	45.8352	-19.5283	176.008	0.129222	1.033635	-0.017433	-0.018715	-0.014883	45.8352	-0.017189	-0.010632	1.399870	NaN
122	1.000000	1.042919	7.36624e+06	-44739.1	955.818	-29775.4	0.000000	0.000000	7.043074	-0.081114	NaN	0.000000	0.001553	0.001760	28.0967	0.035852	0.002064	17.3697	17.8546	172.807	-0.068605	1.041620	-0.009432	-0.010731	-0.081114	17.3697	-0.005929	-0.003993	20.3137	NaN
122	1.000000	1.050946	7.36624e+06	-44739.1	955.818	-29775.4	0.000000	0.000000	7.051104	-0.020983	NaN	0.000000	0.001568	0.001775	28.0972	0.098806	0.001922	51.4068	64.0449	176.66	-0.109950	1.049664	-0.001405	-0.002687	-0.020983	51.4068	-0.001099	-0.000804	26.0943	NaN
122	1.000000	1.058811	7.36624e+06	-44739.1	955.818	-29775.4	0.000000	0.000000	7.059332	8.819118	NaN	0.000000	0.001625	0.001765	28.0962	8.616802	0.001642	5246.21	12.2691	166.346	6.826884	1.057599	0.006460	0.005249	8.819118	5246.21	0.005200	0.004316	2043.22	72956.4
122	2.000000	1.061539	7.36624e+06	-44739.1	955.817	-29775.4	0.000000	0.000000	7.062250	13.4615	NaN	0.000000	0.001582	0.001788	28.0965	12.0966	0.001639	7380.05	5.410479	168.235	12.1368	1.061158	0.009188	0.008808	13.4615	7380.05	0.007820	0.006858	1962.98	81422.5
122	2.000000	1.063525	7.36624e+06	-44739.1	955.818	-29775.4	0.000000	0.000000	7.064366	16.5974	NaN	0.000000	0.001548	0.001789	28.0962	14.3069	0.001766	8100.21	7.339209	165.331	15.386	1.063192	0.011174	0.010841	16.5974	8100.21	0.009638	0.008782	1890.02	78973.7
122	2.000000	1.065459	7.36624e+06	-44739.1	955.818	-29775.4	0.000000	0.000000	7.066485	21.1014	NaN	0.000000	0.001576	0.001736	28.0959	16.869	0.001749	9647.3	3.268680	167.097	20.2364	1.065155	0.013109	0.012804	21.1014	9647.3	0.011468	0.010859	1943.18	84582.3
122	2.000000	1.067446	7.36624e+06	-44739.1	955.818	-29775.4	0.000000	0.000000	7.068743	27.7065	NaN	0.000000	0.001596	0.001682	28.0951	18.0725	0.001653	10934.8	4.369246	165.129	26.7039	1.067164	0.015095	0.014813	27.7065	10934.8	0.013195	0.012953	2138.99	87780.3
122	2.000000	1.069442	7.36624e+06	-44739.1	955.818	-29775.4	0.000000	0.000000	7.070898	31.5741	NaN	0.000000	0.001594	0.001685	28.0955	20.3972	0.001617	12614.1	1.911569	165.658	29.8803	1.069146	0.017091	0.016795	31.5741	12614.1	0.015214	0.015572	2027.65	92354.9
122	2.000000	1.071505	7.36624e+06	-44739.1	955.818	-29775.4	0.000000	0.000000	7.073173	36.7229	NaN	0.000000	0.001608	0.001688	28.0947	23.1054	0.001802	12818.6	4.584213	165.588	36.1011	1.071137	0.019154	0.018786	36.7229	12818.6	0.017005	0.018053	2034.15	87163.9
122	2.000000	1.073430	7.36624e+06	-44739.1	955.819	-29775.4	0.000000	0.000000	7.075394	43.9112	NaN	0.000000	0.001602	0.001665	28.0938	24.9742	0.001730	14434.8	1.944684	165.136	41.8937	1.073082	0.021079	0.020731	43.9112	14434.8	0.018798	0.020688	2122.5	91689.8
122	2.000000	1.075440	7.36624e+06	-44739.1	955.818	-29775.4	0.000000	0.000000	7.077634	49.523	NaN	0.000000	0.001598	0.001696	28.0956	27.9192	0.001825	15302.3	6.605077	160.813	48.5168	1.075121	0.023089	0.022770	49.523	15302.3	0.020662	0.023593	2099.05	91020.3
122	2.000000	1.077442	7.36624e+06	-44739.1	955.817	-29775.4	0.000000	0.000000	7.079910	56.1906	NaN	0.000000	0.001622	0.001685	28.0952	28.4655	0.001743	16330	2.265426	165.033	56.1079	1.077115	0.025091	0.024764	56.1906	16330	0.022510	0.026642	2109.13	91407.2
122	2.000000	1.079410	7.36624e+06	-44739.1	955.818	-29775.4	0.000000	0.000000	7.082198	63.9756	NaN	0.000000	0.001586	0.001674	28.0953	31.8173	0.002012	15810.1	5.509805	162.316	61.8517	1.079123	0.027059	0.026773	63.9756	15810.1	0.024024	0.029265	2186.09	84437.2
122	2.000000	1.081408	7.36624e+06	-44739.1	955.818	-29775.4	0.000000	0.000000	7.084502	71.4152	NaN	0.000000	0.001568	0.001689	28.0955	32.6041	0.001823	17880.3	5.753739	160.142	70.2238	1.081057	0.029058	0.028706	71.4152	17880.3	0.026062	0.032976	2165.67	89959.6
122	2.000000	1.083425	7.36624e+06	-44739.1	955.818	-29775.4	0.000000	0.000000	7.086728	76.499	NaN	0.000000	0.001579	0.001695	28.0961	34.1379	0.001805	18916.9	7.824932	157.709	75.535	1.083109	0.031074	0.030758	76.499	18916.9	0.028041	0.036781	2079.84	90117.7
122	2.000000	1.085385	7.36624e+06	-44739.1	955.819	-29775.4	0.000000	0.000000	7.089087	86.1975	NaN	0.000000	0.001585	0.001711	28.0954	36.0841	0.001789	20173.8	3.319626	161.404	83.6506	1.085084	0.033034	0.032734	86.1975	20173.8	0.029830	0.040392	2134.04	91709.8
122	2.000000	1.087366	7.36624e+06	-44739.1	955.819	-29775.4	0.000000	0.000000	7.091365	93.4323	NaN	0.000000	0.001587	0.001693	28.0946	37.3247	0.001691	22076.1	5.644938	158.473	90.8311	1.087093	0.035015	0.034742	93.4323	22076.1	0.031841	0.044646	2092.72	95455.8
122	2.000000	1.089400	7.36624e+06	-44739.1	955.819	-29775.4	0.000000	0.000000	7.093615	98.6929	NaN	0.000000	0.001558	0.001673	28.0948	40.543	0.001932	20990.1	5.209874	159.525	97.0587	1.089101	0.037049	0.036750	98.6929	20990.1	0.033522	0.048362	2040.73	87204.5
122	2.000000	1.091403	7.36624e+06	-44739.1	955.818	-29775.4	0.000000	0.000000	7.096057	109.372	NaN	0.000000	0.001544	0.001687	28.0935	41.8551	0.001755	23850.9	4.332899	160.165	108.265	1.091143	0.039052	0.038792	109.372	23850.9	0.035613	0.053182	2056.55	94491.9
122	2.000000	1.093368	7.36624e+06	-44739.1	955.819	-29775.4	0.000000	0.000000	7.098580	122.95	NaN	0.000000	0.001517	0.001707	28.0939	42.5296	0.001673	25425.1	1.022322	162.351	120.061	1.093000	0.041017	0.040649	122.95	25425.1	0.037390	0.057457	2139.84	96908.7
122	2.000000	1.095437	7.36624e+06	-44739.1	955.818	-29775.4	0.000000	0.000000	7.100902	129.097	NaN	0.000000	0.001561	0.001660	28.0939	46.5928	0.001757	26513.2	2.649524	160.866	129.57	1.095167	0.043087	0.042816	129.097	26513.2	0.039435	0.062576	2063.06	96835.1
122	2.000000	1.097391	7.36624e+06	-44739.1	955.818	-29775.4	0.000000	0.000000	7.103292	139.686	NaN	0.000000	0.001585	0.001694	28.0944	46.958	0.001693	27736.6	5.002094	156.754	139.104	1.096982	0.045041	0.044631	139.686	27736.6	0.041264	0.067335	2074.51	97657.9
122	2.000000	1.099330	7.36624e+06	-44739.1	955.819	-29775.4	0.000000	0.000000	7.105708	151.292	NaN	0.000000	0.001571	0.001705	28.095	49.5825	0.001728	28693.3	3.380473	158.688	146.297	1.098997	0.046980	0.046646	151.292	28693.3	0.043025	0.072080	2098.96	97644.3
122	2.000000	1.101460	7.36624e+06	-44739.1	955.819	-29775.4	0.000000	0.000000	7.108175	159.518	NaN	0.000000	0.001601	0.001700	28.0947	51.8864	0.001812	28640.9	2.613953	159.787	160.16	1.101056	0.049109	0.048705	159.518	28640.9	0.044932	0.077394	2061.12	94060.3
122	2.000000	1.103402	7.36624e+06	-44739.1	955.818	-29775.4	0.000000	0.000000	7.110555	170.145	NaN	0.000000	0.001579	0.001715	28.0944	53.89	0.001675	32179.5	5.493440	155.33	169.18	1.103080	0.051052	0.050730	170.145	32179.5	0.047086	0.083620	2034.75	101671
122	2.000000	1.105404	7.36624e+06	-44739.1	955.818	-29775.4	0.000000	0.000000	7.112851	177.311	NaN	0.000000	0.001554	0.001699	28.0949	55.9974	0.001767	31699	0.909882	160.018	175.422	1.105220	0.053053	0.052869	177.311	31699	0.048858	0.088915	1994.16	97124.8
122	2.000000	1.107412	7.36624e+06	-44739.1	955.817	-29775.4	0.000000	0.000000	7.115622	195.877	NaN	0.000000	0.001594	0.001696	28.0953	58.1449	0.001674	34738.7	5.370325	155.305	196.815	1.107080	0.055061	0.054729	195.877	34738.7	0.050832	0.095003	2061.79	102972
122	2.000000	1.109350	7.36624e+06	-44739.1	955.818	-29775.4	0.000000	0.000000	7.118234	212.254	NaN	0.000000	0.001580	0.001718	28.0958	60.3106	0.001744	34590.7	2.843813	157.901	210.377	1.109033	0.057000	0.056682	212.254	34590.7	0.052398	0.099968	2123.22	99954.4
122	2.000000	1.111373	7.36624e+06	-44739.1	955.818	-29775.4	0.000000	0.000000	7.120695	222.938	NaN	0.000000	0.001677	0.001693	28.0946	63.2256	0.001778	35559.6	5.959591	154.981	222.122	1.111083	0.059022	0.058732	222.938	35559.6	0.054320	0.106231	2098.61	99679.1
122	2.000000	1.113338	7.36624e+06	-44739.1	955.818	-29775.4	0.000000	0.000000	7.123245	237.14	NaN	0.000000	0.001674	0.001683	28.0934	63.9414	0.002003	31922.8	2.429778	160.354	235.37	1.113039	0.060988	0.060688	237.14	31922.8	0.055416	0.109887	2158.04	87983.5
122	2.000000	1.115353	7.36624e+06	-44739.1	955.819	-29775.4	0.000000	0.000000	7.125886	252.365	NaN	0.000000	0.001702	0.001688	28.0957	66.9264	0.001745	38359.5	5.568385	154.56	250.277	1.114993	0.063003	0.062642	252.365	38359.5	0.058068	0.118973	2121.2	101607
122	2.000000	1.117390	7.36624e+06	-44739.1	955.818	-29775.4	0.000000	0.000000	7.128396	263.904	NaN	0.000000	0.001660	0.001688	28.0955	67.0338	0.001712	39146.1	4.515294	155.287	263.901	1.117003	0.065039	0.064652	263.904	39146.1	0.059983	0.125746	2098.7	100859
122	2.000000	1.119305	7.36624e+06	-44739.1	955.819	-29775.4	0.000000	0.000000	7.130747	274.502	NaN	0.000000	0.001671	0.001704	28.0964	69.5493	0.001803	38584.1	1.538432	158.347	269.859	1.119108	0.066954	0.066757	274.502	38584.1	0.061618	0.131675	2084.7	97147.2
122	2.000000	1.121368	7.36624e+06	-44739.1	955.819	-29775.4	0.000000	0.000000	7.133420	289.34	NaN	0.000000	0.001662	0.001703	28.096	71.8561	0.001768	40647.5	6.841406	153.403	286.757	1.120951	0.069017	0.068600	289.34	40647.5	0.063678	0.139328	2076.69	99492
122	2.000000	1.123384	7.36624e+06	-44739.1	955.819	-29775.4	0.000000	0.000000	7.135858	299.598	NaN	0.000000	0.001678	0.001686	28.0954	72.377	0.001572	46048.8	2.887633	155.689	298.13	1.123019	0.071033	0.070668	299.598	46048.8	0.066154	0.148794	2013.5	109068
122	2.000000	1.125367	7.36624e+06	-44739.1	955.819	-29775.4	0.000000	0.000000	7.138469	314.901	NaN	0.000000	0.001641	0.001693	28.0949	77.7487	0.001945	39980.6	6.979522	152.982	313.172	1.124999	0.073016	0.072648	314.901	39980.6	0.067109	0.152525	2064.58	93530
122	2.000000	1.127430	7.36624e+06	-44739.1	955.82	-29775.4	0.000000	0.000000	7.141081	328.253	NaN	0.000000	0.001637	0.001733	28.0937	78.1566	0.001740	44913.3	6.119338	153.058	332.746	1.127058	0.075079	0.074708	328.253	44913.3	0.069597	0.162454	2020.59	101808
122	2.000000	1.129300	7.36624e+06	-44739.1	955.819	-29775.4	0.000000	0.000000	7.143843	349.949	NaN	0.000000	0.001689	0.001712	28.0947	79.792	0.001731	46088.5	6.831061	151.831	344.404	1.128961	0.076949	0.076611	349.949	46088.5	0.071254	0.169227	2067.93	102360
122	2.000000	1.131441	7.36624e+06	-44739.1	955.819	-29775.4	0.000000	0.000000	7.146372	359.391	NaN	0.000000	0.001643	0.001714	28.0946	82.4334	0.001724	47806.7	4.436181	154.898	362.023	1.131039	0.079090	0.078688	359.391	47806.7	0.073452	0.178413	2014.38	103407
122	2.000000	1.133359	7.36624e+06	-44739.1	955.819	-29775.4	0.000000	0.000000	7.148963	375.744	NaN	0.000000	0.001657	0.001670	28.0937	83.6544	0.001790	46730	3.839893	155.18	375.25	1.133027	0.081008	0.080677	375.744	46730	0.074978	0.184923	2031.89	99282.6
122	2.000000	1.135323	7.36624e+06	-44739.1	955.819	-29775.4	0.000000	0.000000	7.151625	392.742	NaN	0.000000	0.001649	0.001696	28.095	86.8977	0.001797	48351.2	5.762591	152.955	390.662	1.135119	0.082972	0.082768	392.742	48351.2	0.076880	0.193195	2032.88	100504
122	2.000000	1.137287	7.36624e+06	-44739.1	955.819	-29775.4	0.000000	0.000000	7.154355	411.381	NaN	0.000000	0.001677	0.001674	28.0955	85.7985	0.001791	47899.2	1.863893	157.263	406.884	1.136971	0.084936	0.084620	411.381	47899.2	0.078494	0.200349	2053.33	97770.5
122	2.000000	1.139314	7.36624e+06	-44739.1	955.819	-29775.4	0.000000	0.000000	7.156861	423.03	NaN	0.000000	0.001619	0.001668	28.0953	89.8278	0.001856	48404.1	2.021932	156.368	418.228	1.139027	0.086963	0.086676	423.03	48404.1	0.080408	0.208985	2024.21	96738.2
122	2.000000	1.141341	7.36624e+06	-44739.1	955.82	-29775.4	0.000000	0.000000	7.159848	446.364	NaN	0.000000	0.001634	0.001704	28.0942	91.6413	0.001856	49364.7	6.465012	152.973	442.861	1.140982	0.088990	0.088631	446.364	49364.7	0.082209	0.217267	2054.45	96759.4
122	2.000000	1.143426	7.36624e+06	-44739.1	955.82	-29775.4	0.000000	0.000000	7.162533	460.979	NaN	0.000000	0.001622	0.001687	28.0943	92.7692	0.001763	52613.1	4.651664	153.348	465.26	1.142991	0.091075	0.090640	460.979	52613.1	0.084504	0.228042	2021.47	100661
122	2.000000	1.145315	7.36624e+06	-44739.1	955.819	-29775.4	0.000000	0.000000	7.165164	479.026	NaN	0.000000	0.001624	0.001691	28.0939	95.4103	0.001882	50684.7	4.694206	154.51	476.594	1.145016	0.092965	0.092665	479.026	50684.7	0.085876	0.234600	2041.89	95606.4
122	2.000000	1.147303	7.36624e+06	-44739.1	955.819	-29775.4	0.000000	0.000000	7.168136	502.954	NaN	0.000000	0.001635	0.001682	28.0928	95.219	0.001709	55727.2	1.097910	157.187	499.508	1.146895	0.094953	0.094544	502.954	55727.2	0.088184	0.245822	2046.01	102690
122	2.000000	1.149217	7.36624e+06	-44739.1	955.819	-29775.4	0.000000	0.000000	7.170881	523.196	NaN	0.000000	0.001642	0.001667	28.0919	99.0118	0.001776	55743.4	6.625259	151.531	515.981	1.148981	0.096866	0.096630	523.196	55743.4	0.089827	0.253963	2060.13	101061
122	2.000000	1.151282	7.36624e+06	-44739.1	955.819	-29775.4	0.000000	0.000000	7.173589	538.814	NaN	0.000000	0.001673	0.001687	28.0932	101.519	0.001865	54428.8	7.589815	151.405	531.725	1.150892	0.098931	0.098542	538.814	54428.8	0.091507	0.262415	2053.29	97075
122	2.000000	1.153294	7.36624e+06	-44739.1	955.819	-29775.4	0.000000	0.000000	7.176028	549.219	NaN	0.000000	0.001704	0.001678	28.092	102.463	0.001847	55480.9	5.825263	152.447	544.879	1.152987	0.100943	0.100636	549.219	55480.9	0.093518	0.272706	2013.96	97066.4
122	2.000000	1.155294	7.36624e+06	-44739.1	955.818	-29775.4	0.000000	0.000000	7.178908	570.632	NaN	0.000000	0.001680	0.001660	28.0932	104.383	0.001824	57223.7	6.575197	151.296	566.864	1.154944	0.102943	0.102593	570.632	57223.7	0.095464	0.282835	2017.54	98306.6
122	2.000000	1.157357	7.36624e+06	-44739.1	955.819	-29775.4	0.000000	0.000000	7.181913	593.526	NaN	0.000000	0.001632	0.001646	28.0928	104.986	0.001801	58307.8	5.240874	152.731	593.692	1.157029	0.105006	0.104679	593.526	58307.8	0.097372	0.292935	2026.13	98426.9
122	2.000000	1.158334	7.36624e+06	-44739.1	955.819	-29775.4	0.000000	0.000000	7.183403	605.997	NaN	0.000000	0.001687	0.001684	28.1007	107.214	0.001776	60351.2	5.706436	152.315	603.914	1.157928	0.105984	0.105578	605.997	60351.2	0.098453	0.298730	2028.58	100883