File: remote_trans/data/nanoindenter/0828-1/data/Data_2025-08-06,11h17m57s/2025-07-22_16-23-58_1_562.txt
2025-07-22, 16:23:58, 1
Index	Phase	Displacement	Time	Pos X	Pos Y	Pos Z	Rot A	Rot B	Piezo Z	Force A	Force B	Gripper	Voltage A	Voltage B	Temperature	Amplitude force	Amplitude pos	Stiffness	Phase shift	Phase excitation	Force A raw	Displacement raw	HMax	HMax raw	Real Force	Real Stiffness	Contact Depth	Area	Hardness	Reduced Mod.
[#]	[#]	[um]	[s]	[um]	[um]	[um]	[m°]	[m°]	[um]	[uN]	[uN]	[V]	[V]	[V]	[°C]	[uN]	[um]	[N/m]	[°]	[°]	[uN]	[um]	[um]	[um]	[uN]	[N/m]	[um]	[um^2]	[MPa]	[MPa]
562	1.000000	0.002790	7.37054e+06	-48989.1	1005.82	-29760.4	0.000000	0.000000	6.002716	0.048849	NaN	0.000000	0.001550	0.001725	28.08	0.170803	0.000981	174.057	22.5897	170.868	0.043785	0.001564	-1.155552	-1.156777	0.048849	174.057	-1.155762	-2.805875E+15	-1.740969E-17	NaN
562	1.000000	0.012892	7.37055e+06	-48989.1	1005.82	-29760.4	0.000000	0.000000	6.012815	-0.038145	NaN	0.000000	0.001558	0.001715	28.0801	0.006048	0.001255	4.818112	57.4511	-1.280940	-0.018091	0.011414	-1.145450	-1.146927	-0.038145	4.818112	-1.139512	-1.699003E+15	2.245151E-17	NaN
562	1.000000	0.022770	7.37055e+06	-48989.1	1005.82	-29760.4	0.000000	0.000000	6.022696	0.029483	NaN	0.000000	0.001549	0.001715	28.0798	0.122042	0.001802	67.7211	-43.4729	176.37	0.067634	0.021437	-1.135572	-1.136904	0.029483	67.7211	-1.135898	-1.519599E+15	-1.940188E-17	NaN
562	1.000000	0.032747	7.37055e+06	-48989.1	1005.82	-29760.4	0.000000	0.000000	6.032673	0.021089	NaN	0.000000	0.001520	0.001690	28.0803	0.149215	0.002014	74.0865	-62.8325	-1.915576	0.109258	0.031426	-1.125594	-1.126916	0.021089	74.0865	-1.125808	-1.112718E+15	-1.895229E-17	NaN
562	1.000000	0.042775	7.37055e+06	-48989.1	1005.82	-29760.4	0.000000	0.000000	6.042698	-0.025578	NaN	0.000000	0.001515	0.001720	28.0814	0.035879	0.001815	19.7697	-80.4257	177.037	-0.077661	0.041426	-1.115566	-1.116916	-0.025578	19.7697	-1.114596	-7.869804E+14	3.250083E-17	NaN
562	1.000000	0.052761	7.37055e+06	-48989.1	1005.82	-29760.4	0.000000	0.000000	6.052686	0.025169	NaN	0.000000	0.001522	0.001753	28.0815	0.156988	0.001984	79.1198	-142.353	-0.119204	0.005815	0.051427	-1.105581	-1.106915	0.025169	79.1198	-1.105820	-6.000439E+14	-4.194514E-17	NaN
562	1.000000	0.062737	7.37055e+06	-48989.1	1005.82	-29760.4	0.000000	0.000000	6.062665	0.097561	NaN	0.000000	0.001538	0.001751	28.0809	0.109529	0.002001	54.7317	-50.4507	174.715	0.020269	0.061447	-1.095605	-1.096895	0.097561	54.7317	-1.096942	-4.560473E+14	-2.139278E-16	NaN
562	1.000000	0.072771	7.37055e+06	-48989.1	1005.82	-29760.4	0.000000	0.000000	6.072695	-0.003730	NaN	0.000000	0.001519	0.001736	28.0811	0.129685	0.002026	64.0093	19.3786	-9.952506	-0.072887	0.071428	-1.085571	-1.086914	-0.003730	64.0093	-1.085527	-3.204398E+14	1.164180E-17	NaN
562	1.000000	0.082750	7.37055e+06	-48989.1	1005.82	-29760.4	0.000000	0.000000	6.082676	0.044911	NaN	0.000000	0.001525	0.001707	28.0812	0.065192	0.001942	33.564	-170.081	177.353	0.089319	0.081432	-1.075592	-1.076909	0.044911	33.564	-1.076595	-2.431005E+14	-1.847422E-16	NaN
562	1.000000	0.092760	7.37055e+06	-48989.1	1005.82	-29760.4	0.000000	0.000000	6.092686	0.048797	NaN	0.000000	0.001549	0.001727	28.0809	0.044291	0.002015	21.9835	34.3345	-1.634825	0.054649	0.091404	-1.065582	-1.066938	0.048797	21.9835	-1.067246	-1.820509E+14	-2.680402E-16	NaN
562	1.000000	0.102765	7.37055e+06	-48989.1	1005.82	-29760.4	0.000000	0.000000	6.102691	0.037398	NaN	0.000000	0.001537	0.001731	28.081	0.033237	0.001955	17.0051	174.68	176.392	0.045628	0.101435	-1.055576	-1.056907	0.037398	17.0051	-1.057226	-1.335164E+14	-2.800987E-16	NaN
562	1.000000	0.112761	7.37055e+06	-48989.1	1005.82	-29760.4	0.000000	0.000000	6.112686	0.037244	NaN	0.000000	0.001515	0.001703	28.0811	0.028205	0.002019	13.9721	137.086	-1.366976	0.012703	0.111468	-1.045581	-1.046873	0.037244	13.9721	-1.047580	-9.905681E+13	-3.759891E-16	NaN
562	1.000000	0.122761	7.37055e+06	-48989.1	1005.82	-29760.4	0.000000	0.000000	6.122686	0.023263	NaN	0.000000	0.001498	0.001730	28.0809	0.021910	0.001989	11.0184	58.3771	173.596	-0.000291	0.121489	-1.035581	-1.036853	0.023263	11.0184	-1.037164	-7.175199E+13	-3.242105E-16	NaN
562	1.000000	0.132783	7.37055e+06	-48989.1	1005.82	-29760.4	0.000000	0.000000	6.132709	0.048532	NaN	0.000000	0.001482	0.001721	28.081	0.086406	0.002034	42.4845	6.039281	-4.364580	0.073668	0.131455	-1.025559	-1.026887	0.048532	42.4845	-1.026416	-5.143590E+13	-9.435345E-16	NaN
562	1.000000	0.142789	7.37055e+06	-48989.1	1005.82	-29760.4	0.000000	0.000000	6.142715	0.031843	NaN	0.000000	0.001512	0.001716	28.081	0.025344	0.001948	13.009	179.236	178.2	0.074667	0.141455	-1.015552	-1.016886	0.031843	13.009	-1.017388	-3.888750E+13	-8.188439E-16	NaN
562	1.000000	0.152818	7.37055e+06	-48989.1	1005.82	-29760.4	0.000000	0.000000	6.152745	0.080839	NaN	0.000000	0.001521	0.001731	28.0812	0.067858	0.002082	32.5926	-128.126	-6.456092	0.053102	0.151446	-1.005524	-1.006895	0.080839	32.5926	-1.007384	-2.852156E+13	-2.834308E-15	NaN
562	1.000000	0.162788	7.37055e+06	-48989.1	1005.82	-29760.4	0.000000	0.000000	6.162714	0.048023	NaN	0.000000	0.001503	0.001725	28.0809	0.060600	0.001899	31.9182	59.0997	175.502	0.043105	0.161477	-0.995554	-0.996865	0.048023	31.9182	-0.996682	-2.046890E+13	-2.346123E-15	NaN
562	1.000000	0.172805	7.37055e+06	-48989.1	1005.82	-29760.4	0.000000	0.000000	6.172731	0.052163	NaN	0.000000	0.001519	0.001732	28.0798	0.088801	0.001867	47.5602	-150.156	-0.661583	0.050295	0.171495	-0.985537	-0.986847	0.052163	47.5602	-0.986359	-1.486200E+13	-3.509834E-15	NaN
562	1.000000	0.182798	7.37055e+06	-48989.1	1005.82	-29760.4	0.000000	0.000000	6.182725	0.079801	NaN	0.000000	0.001519	0.001726	28.0798	0.062130	0.001852	33.5512	-159.039	177.851	0.053078	0.181541	-0.975544	-0.976801	0.079801	33.5512	-0.977328	-1.123071E+13	-7.105644E-15	NaN
562	1.000000	0.192815	7.37055e+06	-48989.1	1005.82	-29760.4	0.000000	0.000000	6.192740	0.026213	NaN	0.000000	0.001540	0.001734	28.0798	0.034340	0.002143	16.0277	100.889	0.840551	-0.023364	0.191478	-0.965527	-0.966864	0.026213	16.0277	-0.966753	-8.089166E+12	-3.240504E-15	NaN
562	1.000000	0.202810	7.37055e+06	-48989.1	1005.82	-29760.4	0.000000	0.000000	6.202736	0.048946	NaN	0.000000	0.001530	0.001741	28.0797	0.081380	0.002057	39.5536	-103.512	177.054	-0.018755	0.201478	-0.955532	-0.956864	0.048946	39.5536	-0.956460	-5.876788E+12	-8.328673E-15	NaN
562	1.000000	0.212817	7.37055e+06	-48989.1	1005.82	-29760.4	0.000000	0.000000	6.212744	0.071363	NaN	0.000000	0.001531	0.001653	28.0799	0.083393	0.001924	43.3354	110.476	-2.979303	0.121468	0.211501	-0.945525	-0.946841	0.071363	43.3354	-0.946760	-4.348380E+12	-1.641135E-14	NaN
562	1.000000	0.222842	7.37055e+06	-48989.1	1005.82	-29760.4	0.000000	0.000000	6.222768	0.033930	NaN	0.000000	0.001518	0.001741	28.0802	0.162307	0.001921	84.5118	-70.5873	174.211	-0.054666	0.221511	-0.935499	-0.936831	0.033930	84.5118	-0.935800	-3.093652E+12	-1.096767E-14	NaN
562	1.000000	0.232813	7.37055e+06	-48989.1	1005.82	-29760.4	0.000000	0.000000	6.232739	0.051257	NaN	0.000000	0.001534	0.001713	28.0798	0.105741	0.001944	54.3922	129.292	-4.944630	0.055234	0.231501	-0.925529	-0.926841	0.051257	54.3922	-0.926236	-2.298210E+12	-2.230298E-14	NaN
562	1.000000	0.242868	7.37055e+06	-48989.1	1005.82	-29760.4	0.000000	0.000000	6.242792	-0.023806	NaN	0.000000	0.001501	0.001693	28.0797	0.144175	0.002104	68.5289	167.657	173.716	-0.008283	0.241514	-0.915473	-0.916827	-0.023806	68.5289	-0.915213	-1.631404E+12	1.459224E-14	NaN
562	1.000000	0.252854	7.37055e+06	-48989.1	1005.82	-29760.4	0.000000	0.000000	6.252778	-0.002149	NaN	0.000000	0.001497	0.001752	28.0798	0.040558	0.002069	19.6015	43.078	-5.249914	0.030502	0.251444	-0.905488	-0.906898	-0.002149	19.6015	-0.905405	-1.202539E+12	1.787082E-15	NaN
562	1.000000	0.262826	7.37055e+06	-48989.1	1005.82	-29760.4	0.000000	0.000000	6.262750	-0.010641	NaN	0.000000	0.001535	0.001723	28.0801	0.049876	0.002125	23.466	-3.583129	176.187	-0.027748	0.261564	-0.895515	-0.896778	-0.010641	23.466	-0.895175	-8.747064E+11	1.216542E-14	NaN
562	1.000000	0.272835	7.37055e+06	-48989.1	1005.82	-29760.4	0.000000	0.000000	6.272762	0.054558	NaN	0.000000	0.001537	0.001742	28.0798	0.056149	0.002069	27.1322	-150.633	-2.892463	0.078871	0.271442	-0.885506	-0.886900	0.054558	27.1322	-0.887015	-6.785100E+11	-8.040850E-14	NaN
562	1.000000	0.282865	7.37055e+06	-48989.1	1005.82	-29760.4	0.000000	0.000000	6.282790	0.011763	NaN	0.000000	0.001499	0.001731	28.0798	0.102223	0.002001	51.0903	-47.4811	-179.26	0.061296	0.281456	-0.875477	-0.876886	0.011763	51.0903	-0.875649	-4.762864E+11	-2.469809E-14	NaN
562	1.000000	0.292862	7.37055e+06	-48989.1	1005.82	-29760.4	0.000000	0.000000	6.292791	0.092056	NaN	0.000000	0.001551	0.001746	28.08	0.051363	0.002061	24.9245	-101.627	-2.845631	0.105733	0.291502	-0.865479	-0.866840	0.092056	24.9245	-0.868249	-3.782290E+11	-2.433869E-13	NaN
562	1.000000	0.302829	7.37055e+06	-48989.1	1005.82	-29760.4	0.000000	0.000000	6.302754	0.018197	NaN	0.000000	0.001520	0.001744	28.0799	0.089201	0.001996	44.6954	-110.668	177.335	-0.006574	0.301537	-0.855513	-0.856804	0.018197	44.6954	-0.855818	-2.567499E+11	-7.087541E-14	NaN
562	1.000000	0.312865	7.37055e+06	-48989.1	1005.82	-29760.4	0.000000	0.000000	6.312790	0.022812	NaN	0.000000	0.001539	0.001739	28.0811	0.077468	0.001988	38.9655	43.0659	-2.697476	0.044271	0.311520	-0.845477	-0.846821	0.022812	38.9655	-0.845916	-1.885492E+11	-1.209856E-13	NaN
562	1.000000	0.322881	7.37055e+06	-48989.1	1005.82	-29760.4	0.000000	0.000000	6.322805	-0.006273	NaN	0.000000	0.001593	0.001706	28.0813	0.117149	0.001962	59.7066	166.483	175.676	-0.040725	0.321545	-0.835461	-0.836797	-0.006273	59.7066	-0.835382	-1.357454E+11	4.621227E-14	NaN
562	1.000000	0.332898	7.37055e+06	-48989.1	1005.82	-29760.4	0.000000	0.000000	6.332823	0.015369	NaN	0.000000	0.001537	0.001710	28.0813	0.028715	0.001916	14.99	10.9522	-5.430663	0.089159	0.331561	-0.825444	-0.826781	0.015369	14.99	-0.826212	-1.019633E+11	-1.507280E-13	NaN
562	1.000000	0.342873	7.37055e+06	-48989.1	1005.82	-29760.4	0.000000	0.000000	6.342797	-0.023596	NaN	0.000000	0.001494	0.001749	28.0813	0.038103	0.001905	19.9968	161.244	177.604	0.020648	0.341551	-0.815468	-0.816791	-0.023596	19.9968	-0.814583	-7.091606E+10	3.327319E-13	NaN
562	1.000000	0.352867	7.37055e+06	-48989.1	1005.82	-29760.4	0.000000	0.000000	6.352791	-0.003495	NaN	0.000000	0.001566	0.001731	28.0811	0.053341	0.001946	27.4098	-90.3667	-4.779551	0.067000	0.351560	-0.805474	-0.806781	-0.003495	27.4098	-0.805379	-5.319434E+10	6.570041E-14	NaN
562	1.000000	0.362867	7.37055e+06	-48989.1	1005.82	-29760.4	0.000000	0.000000	6.362794	0.064592	NaN	0.000000	0.001570	0.001712	28.0814	0.020366	0.002102	9.687669	124.774	173.152	-0.023796	0.361573	-0.795475	-0.796769	0.064592	9.687669	-0.800475	-4.563685E+10	-1.415357E-12	NaN
562	1.000000	0.372893	7.37055e+06	-48989.1	1005.82	-29760.4	0.000000	0.000000	6.372816	-0.025666	NaN	0.000000	0.001572	0.001732	28.0812	0.081366	0.002039	39.8982	-74.2599	-4.093022	-0.049686	0.371581	-0.785448	-0.786760	-0.025666	39.8982	-0.784966	-2.809983E+10	9.133740E-13	NaN
562	1.000000	0.382895	7.37055e+06	-48989.1	1005.82	-29760.4	0.000000	0.000000	6.382815	-0.089761	NaN	0.000000	0.001590	0.001754	28.0811	0.032731	0.001965	16.6539	39.3073	179.666	-0.125905	0.381518	-0.775447	-0.776823	-0.089761	16.6539	-0.771404	-1.838229E+10	4.883012E-12	NaN
562	1.000000	0.392897	7.37055e+06	-48989.1	1005.82	-29760.4	0.000000	0.000000	6.392821	-0.021884	NaN	0.000000	0.001600	0.001770	28.0812	0.026454	0.001895	13.9583	-118.458	-1.275778	0.017508	0.391592	-0.765444	-0.766750	-0.021884	13.9583	-0.764268	-1.470158E+10	1.488556E-12	NaN
562	1.000000	0.402941	7.37055e+06	-48989.1	1005.82	-29760.4	0.000000	0.000000	6.402867	0.046916	NaN	0.000000	0.001585	0.001728	28.0812	0.029480	0.002155	13.6772	-20.5024	-176.293	0.011393	0.401571	-0.755401	-0.756771	0.046916	13.6772	-0.757974	-1.207075E+10	-3.886712E-12	NaN
562	1.000000	0.412899	7.37055e+06	-48989.1	1005.82	-29760.4	0.000000	0.000000	6.412825	0.034972	NaN	0.000000	0.001590	0.001744	28.0811	0.053322	0.001965	27.138	-87.9958	-4.387044	0.066602	0.411555	-0.745443	-0.746786	0.034972	27.138	-0.746409	-8.401065E+9	-4.162800E-12	NaN
562	1.000000	0.422886	7.37055e+06	-48989.1	1005.82	-29760.4	0.000000	0.000000	6.422812	0.040085	NaN	0.000000	0.001565	0.001741	28.0811	0.042750	0.001909	22.3897	-50.2285	174.104	0.015027	0.421592	-0.735456	-0.736749	0.040085	22.3897	-0.736798	-6.215026E+9	-6.449624E-12	NaN
562	1.000000	0.432936	7.37055e+06	-48989.1	1005.82	-29760.4	0.000000	0.000000	6.432862	0.040414	NaN	0.000000	0.001573	0.001732	28.0811	0.134809	0.001916	70.3462	151.41	-3.496049	0.041968	0.431575	-0.725405	-0.726767	0.040414	70.3462	-0.725836	-4.406052E+9	-9.172298E-12	NaN
562	1.000000	0.442929	7.37055e+06	-48989.1	1005.82	-29760.4	0.000000	0.000000	6.442853	0.008410	NaN	0.000000	0.001551	0.001757	28.0809	0.103211	0.001987	51.93	-46.692	177.961	0.009904	0.441586	-0.715413	-0.716756	0.008410	51.93	-0.715534	-3.188325E+9	-2.637618E-12	NaN
562	1.000000	0.452933	7.37055e+06	-48989.1	1005.82	-29760.4	0.000000	0.000000	6.452858	0.019322	NaN	0.000000	0.001584	0.001765	28.0797	0.114530	0.002011	56.9635	21.8202	-7.885167	0.055330	0.451547	-0.705409	-0.706795	0.019322	56.9635	-0.705663	-2.338041E+9	-8.264248E-12	NaN
562	1.000000	0.462909	7.37055e+06	-48989.1	1005.82	-29760.4	0.000000	0.000000	6.462838	0.112974	NaN	0.000000	0.001553	0.001699	28.0801	0.063315	0.002137	29.6334	-28.1657	179.132	0.072159	0.461603	-0.695433	-0.696739	0.112974	29.6334	-0.698292	-1.854416E+9	-6.092168E-11	NaN
562	1.000000	0.472911	7.37055e+06	-48989.1	1005.82	-29760.4	0.000000	0.000000	6.472831	-0.086103	NaN	0.000000	0.001606	0.001733	28.0799	0.048296	0.002099	23.0096	167.24	-3.883600	0.049496	0.471544	-0.685431	-0.686798	-0.086103	23.0096	-0.682624	-1.132645E+9	7.601902E-11	NaN
562	1.000000	0.482954	7.37055e+06	-48989.1	1005.82	-29760.4	0.000000	0.000000	6.482883	0.097726	NaN	0.000000	0.001622	0.001701	28.0798	0.050483	0.001932	26.1315	64.3186	177.566	0.123667	0.481596	-0.675387	-0.676745	0.097726	26.1315	-0.678192	-9.850967E+8	-9.920457E-11	NaN
562	1.000000	0.492941	7.37055e+06	-48989.1	1005.82	-29760.4	0.000000	0.000000	6.492866	0.016571	NaN	0.000000	0.001563	0.001722	28.08	0.073242	0.001928	37.9791	145.044	-4.257510	0.015009	0.491602	-0.665401	-0.666740	0.016571	37.9791	-0.665728	-6.651321E+8	-2.491420E-11	NaN
562	1.000000	0.502946	7.37055e+06	-48989.1	1005.82	-29760.4	0.000000	0.000000	6.502872	0.027915	NaN	0.000000	0.001594	0.001724	28.0799	0.088203	0.001874	47.0722	-12.5392	176.021	0.075232	0.501556	-0.655395	-0.656785	0.027915	47.0722	-0.655840	-4.869422E+8	-5.732788E-11	NaN
562	1.000000	0.512959	7.37055e+06	-48989.1	1005.82	-29760.4	0.000000	0.000000	6.512885	0.047586	NaN	0.000000	0.001609	0.001752	28.08	0.032708	0.001943	16.8332	150.762	-1.320620	0.071066	0.511589	-0.645383	-0.646753	0.047586	16.8332	-0.647503	-3.742837E+8	-1.271396E-10	NaN
562	1.000000	0.522944	7.37055e+06	-48989.1	1005.82	-29760.4	0.000000	0.000000	6.522870	0.044805	NaN	0.000000	0.001579	0.001709	28.0798	0.067897	0.002020	33.6106	3.816949	178.293	0.087848	0.521673	-0.635398	-0.636668	0.044805	33.6106	-0.636398	-2.635448E+8	-1.700080E-10	NaN
562	1.000000	0.532944	7.37055e+06	-48989.1	1005.82	-29760.4	0.000000	0.000000	6.532869	0.032519	NaN	0.000000	0.001599	0.001731	28.0798	0.039844	0.002040	19.5277	137.856	-3.090831	0.009517	0.531550	-0.625398	-0.626792	0.032519	19.5277	-0.626647	-1.936289E+8	-1.679430E-10	NaN
562	1.000000	0.542947	7.37055e+06	-48989.1	1005.82	-29760.4	0.000000	0.000000	6.542872	0.015502	NaN	0.000000	0.001568	0.001773	28.08	0.055959	0.002027	27.6064	-27.5967	178.522	0.060998	0.541667	-0.615395	-0.616675	0.015502	27.6064	-0.615816	-1.374403E+8	-1.127924E-10	NaN
562	1.000000	0.552956	7.37055e+06	-48989.1	1005.82	-29760.4	0.000000	0.000000	6.552884	0.083250	NaN	0.000000	0.001537	0.001788	28.0802	0.039912	0.001994	20.0115	-143.291	-4.681402	0.027860	0.551587	-0.605386	-0.606754	0.083250	20.0115	-0.608506	-1.090322E+8	-7.635384E-10	NaN
562	1.000000	0.562957	7.37055e+06	-48989.1	1005.82	-29760.4	0.000000	0.000000	6.562885	0.089609	NaN	0.000000	0.001564	0.001755	28.0798	0.073675	0.001991	37.0039	152.465	174.189	0.028636	0.561644	-0.595384	-0.596698	0.089609	37.0039	-0.597201	-7.619048E+7	-1.176119E-9	NaN
562	1.000000	0.572970	7.37055e+06	-48989.1	1005.82	-29760.4	0.000000	0.000000	6.572895	0.034616	NaN	0.000000	0.001572	0.001727	28.0801	0.050352	0.001965	25.6223	121.056	-4.053349	0.072162	0.571661	-0.585372	-0.586680	0.034616	25.6223	-0.586385	-5.405325E+7	-6.404049E-10	NaN
562	1.000000	0.582963	7.37055e+06	-48989.1	1005.82	-29760.4	0.000000	0.000000	6.582889	0.059263	NaN	0.000000	0.001577	0.001733	28.0814	0.032195	0.002116	15.2153	-159.195	177.337	0.024997	0.581653	-0.575379	-0.576688	0.059263	15.2153	-0.578300	-4.180827E+7	-1.417495E-9	NaN
562	1.000000	0.592952	7.37055e+06	-48989.1	1005.82	-29760.4	0.000000	0.000000	6.592880	0.077050	NaN	0.000000	0.001568	0.001732	28.081	0.087984	0.001959	44.9112	-74.261	-5.716576	0.083047	0.591648	-0.565389	-0.566693	0.077050	44.9112	-0.566676	-2.888664E+7	-2.667325E-9	NaN
562	1.000000	0.602988	7.37055e+06	-48989.1	1005.82	-29760.4	0.000000	0.000000	6.602912	0.005934	NaN	0.000000	0.001576	0.001702	28.0812	0.092179	0.001921	47.9781	107.537	177.639	0.026186	0.601629	-0.555354	-0.556712	0.005934	47.9781	-0.555447	-2.020083E+7	-2.937264E-10	NaN
562	1.000000	0.613002	7.37055e+06	-48989.1	1005.82	-29760.4	0.000000	0.000000	6.612927	0.025885	NaN	0.000000	0.001550	0.001729	28.0808	0.125599	0.001967	63.8368	19.031	-1.312048	0.033483	0.611650	-0.545340	-0.546692	0.025885	63.8368	-0.545644	-1.477746E+7	-1.751644E-9	NaN
562	1.000000	0.622988	7.37055e+06	-48989.1	1005.82	-29760.4	0.000000	0.000000	6.622915	0.073080	NaN	0.000000	0.001557	0.001741	28.0813	0.093748	0.001966	47.675	-146.868	175.654	0.073222	0.621689	-0.535353	-0.536653	0.073080	47.675	-0.536503	-1.103694E+7	-6.621428E-9	NaN
562	1.000000	0.632997	7.37055e+06	-48989.1	1005.82	-29760.4	0.000000	0.000000	6.632923	0.025961	NaN	0.000000	0.001562	0.001724	28.0814	0.104320	0.002044	51.0389	33.0841	-0.186366	-0.011087	0.631646	-0.525344	-0.526696	0.025961	51.0389	-0.525726	-7.81981e+06	-3.319950E-9	NaN
562	1.000000	0.642999	7.37055e+06	-48989.1	1005.82	-29760.4	0.000000	0.000000	6.642927	0.091734	NaN	0.000000	0.001544	0.001712	28.0812	0.041301	0.001985	20.8086	140.475	177.805	0.037987	0.641681	-0.515343	-0.516660	0.091734	20.8086	-0.518649	-6.23458e+06	-1.471378E-8	NaN
562	1.000000	0.653012	7.37055e+06	-48989.1	1005.82	-29760.4	0.000000	0.000000	6.652937	0.014382	NaN	0.000000	0.001577	0.001699	28.0814	0.111788	0.002076	53.8574	-35.5685	-3.186295	-0.084032	0.651686	-0.505330	-0.506656	0.014382	53.8574	-0.505530	-4.09384e+06	-3.513026E-9	NaN
562	1.000000	0.663004	7.37055e+06	-48989.1	1005.82	-29760.4	0.000000	0.000000	6.662929	0.026946	NaN	0.000000	0.001554	0.001720	28.0814	0.023698	0.001939	12.2243	-61.8891	176.415	-0.049055	0.661742	-0.495338	-0.496599	0.026946	12.2243	-0.496991	-3.1119e+06	-8.659034E-9	NaN
562	1.000000	0.673006	7.37055e+06	-48989.1	1005.82	-29760.4	0.000000	0.000000	6.672932	0.040763	NaN	0.000000	0.001534	0.001722	28.0812	0.021875	0.001914	11.4268	-0.345715	-3.457529	0.046105	0.671667	-0.485336	-0.486674	0.040763	11.4268	-0.488011	-2.3313e+06	-1.748515E-8	NaN
562	1.000000	0.683028	7.37055e+06	-48989.1	1005.82	-29760.4	0.000000	0.000000	6.682956	0.087593	NaN	0.000000	0.001535	0.001721	28.0813	0.069134	0.002092	33.0518	77.5632	177.119	0.088832	0.681704	-0.475314	-0.476638	0.087593	33.0518	-0.477301	-1.65096e+06	-5.305558E-8	NaN
562	1.000000	0.693020	7.37055e+06	-48989.1	1005.82	-29760.4	0.000000	0.000000	6.692946	0.046349	NaN	0.000000	0.001538	0.001722	28.0815	0.018861	0.002088	9.032915	111.274	-2.300954	-0.014786	0.691632	-0.465322	-0.466709	0.046349	9.032915	-0.469170	-1.26989e+06	-3.649850E-8	NaN
562	1.000000	0.703050	7.37055e+06	-48989.1	1005.82	-29760.4	0.000000	0.000000	6.702975	0.029965	NaN	0.000000	0.001533	0.001704	28.0811	0.048160	0.002063	23.3496	80.3401	178.784	0.076894	0.701667	-0.455292	-0.456674	0.029965	23.3496	-0.456254	-836301	-3.583078E-8	NaN
562	1.000000	0.713015	7.37055e+06	-48989.1	1005.82	-29760.4	0.000000	0.000000	6.712942	0.059356	NaN	0.000000	0.001521	0.001740	28.0812	0.072079	0.001926	37.42	-130.135	-1.158228	0.021626	0.711732	-0.445327	-0.446609	0.059356	37.42	-0.446516	-609909	-9.731898E-8	NaN
562	1.000000	0.723042	7.37055e+06	-48989.1	1005.82	-29760.4	0.000000	0.000000	6.722964	-0.056382	NaN	0.000000	0.001487	0.001727	28.0801	0.076360	0.002191	34.8529	108.719	179.4	-0.101001	0.721708	-0.435300	-0.436634	-0.056382	34.8529	-0.434087	-407237	1.384489E-7	NaN
562	1.000000	0.733039	7.37055e+06	-48989.1	1005.82	-29760.4	0.000000	0.000000	6.732961	-0.060121	NaN	0.000000	0.001545	0.001733	28.0798	0.039562	0.002049	19.3113	125.141	-2.253873	-0.010047	0.731745	-0.425302	-0.426597	-0.060121	19.3113	-0.422967	-283453	2.121007E-7	NaN
562	1.000000	0.743052	7.37055e+06	-48989.1	1005.82	-29760.4	0.000000	0.000000	6.742976	0.002757	NaN	0.000000	0.001547	0.001756	28.0799	0.035558	0.002100	16.933	-141.639	174.312	-0.025865	0.741751	-0.415290	-0.416591	0.002757	16.933	-0.415412	-221466	-1.244696E-8	NaN
562	1.000000	0.753034	7.37055e+06	-48989.1	1005.82	-29760.4	0.000000	0.000000	6.752960	0.025723	NaN	0.000000	0.001527	0.001712	28.0799	0.019958	0.002050	9.735627	171.205	-3.933027	0.067530	0.751674	-0.405307	-0.406668	0.025723	9.735627	-0.407289	-169758	-1.515254E-7	NaN
562	1.000000	0.763062	7.37055e+06	-48989.1	1005.82	-29760.4	0.000000	0.000000	6.762986	-0.005716	NaN	0.000000	0.001520	0.001730	28.0803	0.048839	0.001995	24.4812	-179.262	177.434	-0.010951	0.761752	-0.395280	-0.396589	-0.005716	24.4812	-0.395105	-113797	5.022819E-8	NaN
562	1.000000	0.773049	7.37055e+06	-48989.1	1005.82	-29760.4	0.000000	0.000000	6.772977	0.069600	NaN	0.000000	0.001504	0.001685	28.08	0.080378	0.002132	37.7034	-109.485	-2.271313	0.099664	0.771696	-0.385292	-0.386646	0.069600	37.7034	-0.386677	-86219.1	-8.072432E-7	NaN
562	1.000000	0.783051	7.37055e+06	-48989.1	1005.82	-29760.4	0.000000	0.000000	6.782975	0.002660	NaN	0.000000	0.001492	0.001680	28.0802	0.061243	0.002050	29.8771	-37.3282	177.119	-0.100008	0.781788	-0.375291	-0.376554	0.002660	29.8771	-0.375358	-59321.8	-4.484738E-8	NaN
562	1.000000	0.793050	7.37055e+06	-48989.1	1005.82	-29760.4	0.000000	0.000000	6.792975	0.014479	NaN	0.000000	0.001530	0.001715	28.08	0.104621	0.001990	52.5761	-145.669	1.547193	-0.050826	0.791714	-0.365291	-0.366628	0.014479	52.5761	-0.365498	-42779.7	-3.384657E-7	NaN
562	1.000000	0.803056	7.37055e+06	-48989.1	1005.82	-29760.4	0.000000	0.000000	6.802981	0.033251	NaN	0.000000	0.001516	0.001722	28.0802	0.040802	0.001994	20.4626	-54.9011	175.991	-0.056258	0.801740	-0.355286	-0.356602	0.033251	20.4626	-0.356505	-31716.3	-1.048377E-6	NaN
562	1.000000	0.813046	7.37055e+06	-48989.1	1005.82	-29760.4	0.000000	0.000000	6.812973	0.053099	NaN	0.000000	0.001532	0.001662	28.08	0.089060	0.001987	44.8105	-19.578	-4.002598	0.034965	0.811746	-0.345295	-0.346596	0.053099	44.8105	-0.346184	-22468.6	-2.363242E-6	NaN
562	1.000000	0.823078	7.37055e+06	-48989.1	1005.82	-29760.4	0.000000	0.000000	6.823003	0.006766	NaN	0.000000	0.001509	0.001709	28.0802	0.052921	0.002015	26.2618	-147.252	176.503	0.048611	0.821733	-0.335263	-0.336608	0.006766	26.2618	-0.335456	-15676.7	-4.316232E-7	NaN
562	1.000000	0.833096	7.37055e+06	-48989.1	1005.82	-29760.4	0.000000	0.000000	6.833021	-0.006917	NaN	0.000000	0.001490	0.001697	28.0799	0.019024	0.002045	9.303669	-103.182	-4.508470	0.008414	0.831742	-0.325245	-0.326600	-0.006917	9.303669	-0.324687	-10903.1	6.344170E-7	NaN
562	1.000000	0.843105	7.37055e+06	-48989.1	1005.82	-29760.4	0.000000	0.000000	6.843031	0.034253	NaN	0.000000	0.001540	0.001669	28.0797	0.100665	0.002043	49.2738	-165.035	179.46	0.096386	0.841771	-0.315236	-0.316570	0.034253	49.2738	-0.315758	-8056.15	-4.251836E-6	NaN
562	1.000000	0.853106	7.37055e+06	-48989.1	1005.82	-29760.4	0.000000	0.000000	6.853029	-0.029623	NaN	0.000000	0.001575	0.001675	28.0804	0.127845	0.002112	60.5193	-14.3368	-0.918870	-0.017795	0.851709	-0.305235	-0.306633	-0.029623	60.5193	-0.304868	-5559.02	5.328795E-6	NaN
562	1.000000	0.863096	7.37055e+06	-48989.1	1005.82	-29760.4	0.000000	0.000000	6.863021	0.021727	NaN	0.000000	0.001578	0.001677	28.0814	0.055927	0.002060	27.151	-131.727	176.406	-0.048908	0.861761	-0.295245	-0.296581	0.021727	27.151	-0.295846	-4080.48	-5.324602E-6	NaN
562	1.000000	0.873117	7.37055e+06	-48989.1	1005.82	-29760.4	0.000000	0.000000	6.873042	0.016014	NaN	0.000000	0.001579	0.001652	28.0817	0.042416	0.002086	20.3381	97.5015	-1.944865	0.051063	0.871747	-0.285225	-0.286595	0.016014	20.3381	-0.285815	-2887.46	-5.546001E-6	NaN
562	1.000000	0.883092	7.37055e+06	-48989.1	1005.82	-29760.4	0.000000	0.000000	6.883017	0.037790	NaN	0.000000	0.001554	0.001638	28.0812	0.077915	0.002101	37.0846	-160.353	179.051	-0.033661	0.881804	-0.275250	-0.276537	0.037790	37.0846	-0.276014	-2054.72	-1.839162E-5	NaN
562	1.000000	0.893082	7.37055e+06	-48989.1	1005.82	-29760.4	0.000000	0.000000	6.893011	0.107495	NaN	0.000000	0.001556	0.001643	28.0812	0.062965	0.001994	31.5821	171.264	0.828113	0.119534	0.891783	-0.265260	-0.266559	0.107495	31.5821	-0.267812	-1542.63	-6.968301E-5	NaN
562	1.000000	0.903117	7.37055e+06	-48989.1	1005.82	-29760.4	0.000000	0.000000	6.903047	0.130539	NaN	0.000000	0.001559	0.001658	28.0813	0.021131	0.002027	10.4242	-26.5027	177.206	0.077137	0.901796	-0.255224	-0.256545	0.130539	10.4242	-0.264616	-1378.9	-9.466900E-5	NaN
562	1.000000	0.913118	7.37055e+06	-48989.1	1005.82	-29760.4	0.000000	0.000000	6.913044	0.046104	NaN	0.000000	0.001583	0.001623	28.0813	0.034461	0.001956	17.6223	15.1171	-2.846434	0.043790	0.911726	-0.245224	-0.246615	0.046104	17.6223	-0.247186	-743.683	-6.199382E-5	NaN
562	1.000000	0.923118	7.37055e+06	-48989.1	1005.82	-29760.4	0.000000	0.000000	6.923044	0.047486	NaN	0.000000	0.001561	0.001625	28.0813	0.086395	0.001968	43.8964	-109.206	179.378	0.015839	0.921775	-0.235223	-0.236567	0.047486	43.8964	-0.236035	-498.298	-9.529697E-5	NaN
562	1.000000	0.933124	7.37055e+06	-48989.1	1005.82	-29760.4	0.000000	0.000000	6.933048	-0.006895	NaN	0.000000	0.001564	0.001604	28.0812	0.084783	0.002040	41.5585	70.6753	-6.794343	0.021316	0.931749	-0.225217	-0.226592	-0.006895	41.5585	-0.225093	-334.821	2.059274E-5	NaN
562	1.000000	0.943137	7.37055e+06	-48989.1	1005.82	-29760.4	0.000000	0.000000	6.943063	0.017555	NaN	0.000000	0.001573	0.001641	28.0814	0.062158	0.002086	29.793	174.349	175.565	0.045995	0.941832	-0.215204	-0.216509	0.017555	29.793	-0.215646	-236.538	-7.421618E-5	NaN
562	1.000000	0.953142	7.37055e+06	-48989.1	1005.82	-29760.4	0.000000	0.000000	6.953069	0.073898	NaN	0.000000	0.001554	0.001630	28.0812	0.025344	0.002100	12.0678	167.05	-3.303595	0.075406	0.951752	-0.205200	-0.206589	0.073898	12.0678	-0.209793	-190.31	-0.000388	NaN
562	1.000000	0.963128	7.37055e+06	-48989.1	1005.82	-29760.4	0.000000	0.000000	6.963055	0.073481	NaN	0.000000	0.001563	0.001645	28.0812	0.056619	0.002004	28.2536	-88.9327	173.179	0.050173	0.961806	-0.195214	-0.196535	0.073481	28.2536	-0.197164	-118.302	-0.000621	NaN
562	1.000000	0.973136	7.37055e+06	-48989.1	1005.82	-29760.4	0.000000	0.000000	6.973061	0.009674	NaN	0.000000	0.001546	0.001644	28.0814	0.125787	0.002084	60.3594	-100.802	-3.832522	0.013695	0.971804	-0.185205	-0.186537	0.009674	60.3594	-0.185325	-75.0957	-0.000129	NaN
562	1.000000	0.983130	7.37055e+06	-48989.1	1005.82	-29760.4	0.000000	0.000000	6.983055	0.026098	NaN	0.000000	0.001573	0.001652	28.0813	0.033874	0.002137	15.8539	129.87	179.461	0.023090	0.981840	-0.175212	-0.176502	0.026098	15.8539	-0.176447	-53.0641	-0.000492	NaN
562	1.000000	0.993137	7.37055e+06	-48989.1	1005.82	-29760.4	0.000000	0.000000	6.993065	0.104129	NaN	0.000000	0.001555	0.001662	28.0801	0.106233	0.001959	54.2385	89.3395	-5.023208	0.055560	0.991801	-0.165205	-0.166540	0.104129	54.2385	-0.166645	-35.9034	-0.002900	NaN
562	1.000000	1.003149	7.37055e+06	-48989.1	1005.82	-29760.4	0.000000	0.000000	7.003075	0.033874	NaN	0.000000	0.001578	0.001657	28.08	0.060566	0.001957	30.9552	44.4088	175.337	-0.016176	1.001833	-0.155193	-0.156508	0.033874	30.9552	-0.156013	-23.2697	-0.001456	NaN
562	1.000000	1.013153	7.37055e+06	-48989.1	1005.82	-29760.4	0.000000	0.000000	7.013077	-0.004354	NaN	0.000000	0.001548	0.001657	28.0802	0.063988	0.002082	30.731	-60.6062	-1.451141	0.037192	1.011826	-0.145189	-0.146515	-0.004354	30.731	-0.145083	-14.7128	0.000296	NaN
562	1.000000	1.023147	7.37055e+06	-48989.1	1005.82	-29760.4	0.000000	0.000000	7.023074	0.073656	NaN	0.000000	0.001533	0.001669	28.0797	0.044779	0.001871	23.9306	-57.2057	176.346	0.092002	1.021848	-0.135195	-0.136493	0.073656	23.9306	-0.137503	-10.614	-0.006940	NaN
562	1.000000	1.033194	7.37055e+06	-48989.1	1005.82	-29760.4	0.000000	0.000000	7.033117	-0.026869	NaN	0.000000	0.001519	0.001640	28.0799	0.092944	0.002054	45.2594	-116.543	-4.523139	-0.001405	1.031800	-0.125147	-0.126542	-0.026869	45.2594	-0.124702	-5.999229	0.004479	NaN
562	1.000000	1.043140	7.37055e+06	-48989.1	1005.82	-29760.4	0.000000	0.000000	7.043065	0.019260	NaN	0.000000	0.001506	0.001664	28.0798	0.108991	0.001977	55.1193	-175.918	174.606	-0.056875	1.041849	-0.115202	-0.116492	0.019260	55.1193	-0.115464	-3.905339	-0.004932	NaN
562	1.000000	1.053179	7.37055e+06	-48989.1	1005.82	-29760.4	0.000000	0.000000	7.053103	-0.002449	NaN	0.000000	0.001501	0.001650	28.0801	0.019571	0.001973	9.916810	-65.5606	-0.688573	-0.039967	1.051808	-0.105163	-0.106534	-0.002449	9.916810	-0.104977	-2.347930	0.001043	NaN
562	1.000000	1.063185	7.37055e+06	-48989.1	1005.82	-29760.4	0.000000	0.000000	7.063111	0.052546	NaN	0.000000	0.001515	0.001674	28.0799	0.041635	0.002077	20.0459	128.119	176.902	0.038075	1.061911	-0.095157	-0.096430	0.052546	20.0459	-0.097123	-1.575773	-0.033346	NaN
562	1.000000	1.073177	7.37055e+06	-48989.1	1005.82	-29760.4	0.000000	0.000000	7.073105	0.078887	NaN	0.000000	0.001496	0.001649	28.0802	0.036475	0.002168	16.8239	145.603	-1.596696	0.055413	1.071862	-0.085164	-0.086479	0.078887	16.8239	-0.088681	-1.006341	-0.078390	NaN
562	1.000000	1.083179	7.37055e+06	-48989.1	1005.82	-29760.4	0.000000	0.000000	7.083105	0.031882	NaN	0.000000	0.001544	0.001664	28.0798	0.071017	0.001809	39.2493	38.6595	174.783	0.013084	1.081881	-0.075163	-0.076460	0.031882	39.2493	-0.075772	-0.483543	-0.065934	NaN
562	1.000000	1.093174	7.37055e+06	-48989.1	1005.82	-29760.4	0.000000	0.000000	7.093098	0.009170	NaN	0.000000	0.001522	0.001628	28.0802	0.041251	0.001939	21.2693	99.1171	-0.315626	0.086369	1.091826	-0.065168	-0.066516	0.009170	21.2693	-0.065491	-0.257147	-0.035659	NaN
562	1.000000	1.103198	7.37055e+06	-48989.1	1005.82	-29760.4	0.000000	0.000000	7.103121	-0.046727	NaN	0.000000	0.001528	0.001669	28.0799	0.075548	0.002080	36.3275	93.3284	178.911	0.039206	1.101867	-0.055143	-0.056474	-0.046727	36.3275	-0.054179	-0.121762	0.383758	NaN
562	1.000000	1.113195	7.37055e+06	-48989.1	1005.82	-29760.4	0.000000	0.000000	7.113122	0.043899	NaN	0.000000	0.001521	0.001700	28.0802	0.067974	0.001976	34.4016	-153.276	-2.706143	0.042019	1.111834	-0.045146	-0.046508	0.043899	34.4016	-0.046103	-0.069457	-0.632032	NaN
562	1.000000	1.123206	7.37055e+06	-48989.1	1005.82	-29760.4	0.000000	0.000000	7.123131	0.027041	NaN	0.000000	0.001500	0.001670	28.08	0.159564	0.001878	84.9527	72.7242	178.399	0.020728	1.121915	-0.035136	-0.036427	0.027041	84.9527	-0.035374	-0.032849	-0.823202	NaN
562	1.000000	1.133189	7.37055e+06	-48989.1	1005.82	-29760.4	0.000000	0.000000	7.133115	0.046038	NaN	0.000000	0.001515	0.001625	28.0813	0.072736	0.001873	38.8403	-169.562	1.800349	-0.001700	1.131826	-0.025153	-0.026515	0.046038	38.8403	-0.026042	-0.017968	-2.562213	NaN
562	1.000000	1.143221	7.37055e+06	-48989.1	1005.82	-29760.4	0.000000	0.000000	7.143146	0.013818	NaN	0.000000	0.001489	0.001634	28.0811	0.040157	0.001925	20.8649	-53.8983	178.094	-0.004660	1.141868	-0.015121	-0.016474	0.013818	20.8649	-0.015617	-0.009648	-1.432167	NaN
562	1.000000	1.153223	7.37055e+06	-48989.1	1005.82	-29760.4	0.000000	0.000000	7.153153	0.142162	NaN	0.000000	0.001514	0.001660	28.0813	0.145361	0.001944	74.7598	9.298399	-3.807354	0.009410	1.151858	-0.005119	-0.006484	0.142162	74.7598	-0.006545	-0.004367	-32.5512	NaN
562	1.000000	1.163076	7.37055e+06	-48989.1	1005.82	-29760.4	0.000000	0.000000	7.163360	8.736661	NaN	0.000000	0.001485	0.001669	28.0813	8.529928	0.001741	4899.63	13.2584	167.293	6.748875	1.161870	0.004735	0.003528	8.736661	4899.63	0.003397	0.002717	3215.6	85880.6
562	2.000000	1.166310	7.37055e+06	-48989.1	1005.82	-29760.4	0.000000	0.000000	7.166748	12.4836	NaN	0.000000	0.001462	0.001661	28.0814	11.5678	0.001582	7312.64	8.312293	-12.517	11.5832	1.165958	0.007968	0.007616	12.4836	7312.64	0.006688	0.005727	2179.65	88281.6
562	2.000000	1.168756	7.37055e+06	-48989.1	1005.82	-29760.4	0.000000	0.000000	7.169339	16.0237	NaN	0.000000	0.001492	0.001639	28.081	14.248	0.001714	8312.93	9.410550	165.078	15.0831	1.168510	0.010414	0.010168	16.0237	8312.93	0.008968	0.008057	1988.72	84612.1
562	2.000000	1.171263	7.37055e+06	-48989.1	1005.82	-29760.4	0.000000	0.000000	7.171960	18.8041	NaN	0.000000	0.001502	0.001636	28.0813	16.9556	0.001821	9311.45	8.199791	-14.1789	18.5322	1.170947	0.012921	0.012605	18.8041	9311.45	0.011407	0.010787	1743.24	81911
562	2.000000	1.173702	7.37055e+06	-48989.1	1005.82	-29760.4	0.000000	0.000000	7.174672	25.4312	NaN	0.000000	0.001469	0.001684	28.0813	19.7923	0.001729	11447.4	7.499997	164.014	24.2338	1.173400	0.015360	0.015059	25.4312	11447.4	0.013694	0.013583	1872.22	89737.4
562	2.000000	1.176265	7.37055e+06	-48989.1	1005.82	-29760.4	0.000000	0.000000	7.177416	29.8364	NaN	0.000000	0.001507	0.001665	28.0813	21.7491	0.001781	12210.1	7.012112	-14.8112	28.9429	1.175832	0.017923	0.017490	29.8364	12210.1	0.016091	0.016767	1779.45	86151.5
562	2.000000	1.178724	7.37055e+06	-48989.1	1005.82	-29760.4	0.000000	0.000000	7.180035	33.734	NaN	0.000000	0.001488	0.001674	28.0812	24.2002	0.001796	13475.1	4.389777	165.337	32.3659	1.178444	0.020382	0.020102	33.734	13475.1	0.018505	0.020247	1666.11	86521.1
562	2.000000	1.181158	7.37055e+06	-48989.1	1005.82	-29760.4	0.000000	0.000000	7.182809	41.9909	NaN	0.000000	0.001479	0.001680	28.0814	26.2375	0.001724	15214.9	5.261738	-15.786	39.2701	1.180823	0.022816	0.022481	41.9909	15214.9	0.020747	0.023729	1769.6	90240.9
562	2.000000	1.183694	7.37055e+06	-48989.1	1005.82	-29760.4	0.000000	0.000000	7.185555	47.1099	NaN	0.000000	0.001507	0.001676	28.0811	28.9433	0.001711	16917.2	2.898678	164.782	45.889	1.183414	0.025352	0.025072	47.1099	16917.2	0.023263	0.027932	1686.59	92480.4
562	2.000000	1.186196	7.37055e+06	-48989.1	1005.82	-29760.4	0.000000	0.000000	7.188430	56.1598	NaN	0.000000	0.001515	0.001665	28.0816	30.989	0.001647	18816.3	3.131646	-15.6949	54.5799	1.185884	0.027855	0.027542	56.1598	18816.3	0.025616	0.032147	1747	95882.9
562	2.000000	1.188712	7.37055e+06	-48989.1	1005.82	-29760.4	0.000000	0.000000	7.191178	61.8167	NaN	0.000000	0.001534	0.001701	28.0805	34.5655	0.001690	20455.9	10.5393	154.39	61.9032	1.188298	0.030370	0.029956	61.8167	20455.9	0.028104	0.036905	1675.02	97285.6
562	2.000000	1.191202	7.37055e+06	-48989.1	1005.82	-29760.4	0.000000	0.000000	7.194090	72.0961	NaN	0.000000	0.001529	0.001707	28.0805	36.3526	0.001745	20835.1	2.473184	-16.1395	71.7216	1.190785	0.032860	0.032444	72.0961	20835.1	0.030265	0.041294	1745.91	93675.2
562	2.000000	1.193691	7.37055e+06	-48989.1	1005.82	-29760.4	0.000000	0.000000	7.196985	81.9508	NaN	0.000000	0.001478	0.001761	28.0799	40.3619	0.001970	20487.1	8.741559	158.321	81.8312	1.193323	0.035350	0.034981	81.9508	20487.1	0.032349	0.045754	1791.11	87506.2
562	2.000000	1.196193	7.37055e+06	-48989.1	1005.82	-29760.4	0.000000	0.000000	7.199762	88.6368	NaN	0.000000	0.001529	0.001732	28.0801	41.479	0.001838	22562.2	3.874874	-17.7367	88.3001	1.195803	0.037852	0.037462	88.6368	22562.2	0.034905	0.051525	1720.25	90812
562	2.000000	1.198684	7.37055e+06	-48989.1	1005.82	-29760.4	0.000000	0.000000	7.202624	97.6603	NaN	0.000000	0.001516	0.001698	28.0799	43.1923	0.001791	24116.7	2.852021	161.924	97.3909	1.198357	0.040342	0.040015	97.6603	24116.7	0.037305	0.057249	1705.88	92088.9
562	2.000000	1.201137	7.37055e+06	-48989.1	1005.82	-29760.4	0.000000	0.000000	7.205570	109.663	NaN	0.000000	0.001520	0.001715	28.0802	46.2729	0.001842	25121.2	2.222617	-17.8891	106.979	1.200863	0.042795	0.042521	109.663	25121.2	0.039521	0.062797	1746.31	91589
562	2.000000	1.203686	7.37055e+06	-48989.1	1005.82	-29760.4	0.000000	0.000000	7.208556	120.275	NaN	0.000000	0.001553	0.001680	28.0798	48.8161	0.001766	27643.2	6.169185	157.246	119.703	1.203403	0.045344	0.045061	120.275	27643.2	0.042081	0.069518	1730.13	95788.7
562	2.000000	1.206212	7.37055e+06	-48989.1	1005.82	-29760.4	0.000000	0.000000	7.211523	131.01	NaN	0.000000	0.001586	0.001721	28.08	50.5233	0.001747	28912.3	5.962017	-22.214	130.537	1.205809	0.047870	0.047468	131.01	28912.3	0.044472	0.076096	1721.65	95758.3
562	2.000000	1.208626	7.37055e+06	-48989.1	1005.82	-29760.4	0.000000	0.000000	7.214480	144.206	NaN	0.000000	0.001525	0.001692	28.08	53.2759	0.001853	28751.4	9.144938	154.945	141.471	1.208251	0.050285	0.049909	144.206	28751.4	0.046523	0.081970	1759.24	91749.6
562	2.000000	1.211136	7.37055e+06	-48989.1	1005.82	-29760.4	0.000000	0.000000	7.217366	153.363	NaN	0.000000	0.001538	0.001716	28.0803	55.6544	0.001809	30759.6	6.212050	-23.8046	149.613	1.210818	0.052794	0.052476	153.363	30759.6	0.049055	0.089515	1713.27	93930.6
562	2.000000	1.213665	7.37055e+06	-48989.1	1005.82	-29760.4	0.000000	0.000000	7.220632	171.277	NaN	0.000000	0.001606	0.001700	28.08	57.9343	0.001826	31735.9	2.964741	159.825	170.495	1.213339	0.055324	0.054998	171.277	31735.9	0.051276	0.096398	1776.78	93387.9
562	2.000000	1.216151	7.37055e+06	-48989.1	1005.82	-29760.4	0.000000	0.000000	7.223573	182.341	NaN	0.000000	0.001572	0.001717	28.0801	59.6155	0.001834	32510.5	5.162465	-21.8233	180.265	1.215882	0.057809	0.057540	182.341	32510.5	0.053603	0.103874	1755.4	92160
562	2.000000	1.218589	7.37055e+06	-48989.1	1005.82	-29760.4	0.000000	0.000000	7.226638	197.61	NaN	0.000000	0.001652	0.001735	28.0802	61.1824	0.001717	35634.8	4.698726	156.619	193.462	1.218280	0.060247	0.059939	197.61	35634.8	0.056088	0.112156	1761.93	97215.7
562	2.000000	1.221100	7.37055e+06	-48989.1	1005.82	-29760.4	0.000000	0.000000	7.229536	207.026	NaN	0.000000	0.001655	0.001714	28.0803	64.9934	0.001846	35213.4	4.768187	-23.1934	202.747	1.220797	0.062758	0.062455	207.026	35213.4	0.058349	0.119954	1725.88	92891.2
562	2.000000	1.223640	7.37055e+06	-48989.1	1005.82	-29760.4	0.000000	0.000000	7.232705	222.307	NaN	0.000000	0.001562	0.001713	28.0814	66.9789	0.001862	35964.6	3.752888	158.406	221.311	1.223381	0.065299	0.065040	222.307	35964.6	0.060663	0.128195	1734.13	91772.5
562	2.000000	1.226099	7.37055e+06	-48989.1	1005.82	-29760.4	0.000000	0.000000	7.235587	232.589	NaN	0.000000	0.001546	0.001683	28.0813	67.8349	0.001677	40452.5	1.156839	-20.3574	226.466	1.225832	0.067758	0.067490	232.589	40452.5	0.063445	0.138452	1679.93	99327.5
562	2.000000	1.228624	7.37055e+06	-48989.1	1005.82	-29760.4	0.000000	0.000000	7.238666	246.081	NaN	0.000000	0.001562	0.001721	28.0814	70.8466	0.001799	39385.8	5.631931	155.616	243.587	1.228273	0.070282	0.069932	246.081	39385.8	0.065596	0.146637	1678.16	93970.6
562	2.000000	1.231128	7.37055e+06	-48989.1	1005.82	-29760.4	0.000000	0.000000	7.241668	258.192	NaN	0.000000	0.001525	0.001741	28.0815	74.204	0.001818	40807.3	6.394216	-25.9203	256.162	1.230794	0.072786	0.072453	258.192	40807.3	0.068041	0.156210	1652.85	94331.4
562	2.000000	1.233625	7.37055e+06	-48989.1	1005.82	-29760.4	0.000000	0.000000	7.244821	274.143	NaN	0.000000	0.001595	0.001713	28.0812	77.1409	0.001863	41410	3.507525	156.846	271.871	1.233314	0.075283	0.074973	274.143	41410	0.070318	0.165385	1657.61	93031.7
562	2.000000	1.236132	7.37055e+06	-48989.1	1005.82	-29760.4	0.000000	0.000000	7.247744	284.241	NaN	0.000000	0.001533	0.001714	28.0813	77.9581	0.001801	43289.1	6.431056	-25.7359	280.73	1.235810	0.077791	0.077468	284.241	43289.1	0.072866	0.175941	1615.54	94290.4
562	2.000000	1.238560	7.37055e+06	-48989.1	1005.82	-29760.4	0.000000	0.000000	7.251098	306.792	NaN	0.000000	0.001576	0.001723	28.0812	79.5954	0.001916	41535	3.257210	157.554	302.999	1.238269	0.080218	0.079927	306.792	41535	0.074678	0.183638	1670.64	88553.6
562	2.000000	1.241259	7.37055e+06	-48989.1	1005.82	-29760.4	0.000000	0.000000	7.253671	303.712	NaN	0.000000	0.001571	0.001709	28.0814	82.8433	0.001857	44610.7	3.883368	-23.8275	309.086	1.241040	0.082917	0.082698	303.712	44610.7	0.077811	0.197307	1539.28	91757.4
562	2.000000	1.243576	7.37055e+06	-48989.1	1005.82	-29760.4	0.000000	0.000000	7.257206	333.326	NaN	0.000000	0.001575	0.001749	28.0813	84.9903	0.001847	46015	2.437683	157.694	328.748	1.243281	0.085235	0.084940	333.326	46015	0.079802	0.206229	1616.29	92575.8
562	2.000000	1.246111	7.37055e+06	-48989.1	1005.82	-29760.4	0.000000	0.000000	7.260617	354.629	NaN	0.000000	0.001562	0.001712	28.0817	87.4969	0.001854	47182.1	7.839752	-27.6994	352.184	1.245852	0.087770	0.087510	354.629	47182.1	0.082133	0.216913	1634.89	92556.7
562	2.000000	1.248614	7.37055e+06	-48989.1	1005.82	-29760.4	0.000000	0.000000	7.263906	373.777	NaN	0.000000	0.001590	0.001691	28.0813	88.961	0.001877	47386	3.426445	156.484	371.92	1.248284	0.090272	0.089942	373.777	47386	0.084356	0.227339	1644.14	90800
562	2.000000	1.251087	7.37055e+06	-48989.1	1005.82	-29760.4	0.000000	0.000000	7.267140	392.257	NaN	0.000000	0.001559	0.001689	28.0812	90.6401	0.001837	49331.8	2.904065	-22.3539	389.575	1.250672	0.092746	0.092330	392.257	49331.8	0.086782	0.238977	1641.4	92198.1
562	2.000000	1.253640	7.37055e+06	-48989.1	1005.82	-29760.4	0.000000	0.000000	7.270191	404.36	NaN	0.000000	0.001575	0.001691	28.0813	92.9891	0.001705	54541	5.466576	152.972	402.169	1.253304	0.095299	0.094962	404.36	54541	0.089738	0.253522	1594.97	98966.4
562	2.000000	1.256111	7.37055e+06	-48989.1	1005.82	-29760.4	0.000000	0.000000	7.273557	426.133	NaN	0.000000	0.001560	0.001719	28.0815	94.8927	0.001662	57108.3	3.726937	-25.2731	423.825	1.255872	0.097770	0.097531	426.133	57108.3	0.092173	0.265806	1603.17	101202
562	2.000000	1.258631	7.37055e+06	-48989.1	1005.82	-29760.4	0.000000	0.000000	7.276327	432.205	NaN	0.000000	0.001474	0.001678	28.08	98.3663	0.001855	53014.9	6.800781	151.45	430.411	1.258440	0.100290	0.100099	432.205	53014.9	0.094175	0.276106	1565.36	92179.2
562	2.000000	1.261012	7.37055e+06	-48989.1	1005.82	-29760.4	0.000000	0.000000	7.279993	463.477	NaN	0.000000	0.001518	0.001714	28.08	99.0701	0.001706	58060.7	2.728803	-24.3333	457.227	1.260770	0.102670	0.102429	463.477	58060.7	0.096683	0.289271	1602.22	98628.7
562	2.000000	1.262590	7.37055e+06	-48989.1	1005.82	-29760.4	0.000000	0.000000	7.281906	471.611	NaN	0.000000	0.001488	0.001708	28.08	99.5462	0.001712	58145.5	1.302752	157.146	469.618	1.262380	0.104249	0.104039	471.611	58145.5	0.098165	0.297185	1586.93	97448.7