File: remote_trans/data/nanoindenter/0828-1/data/Data_2025-08-06,11h17m57s/2025-07-22_16-23-58_1_673.txt
2025-07-22, 16:23:58, 1
Index	Phase	Displacement	Time	Pos X	Pos Y	Pos Z	Rot A	Rot B	Piezo Z	Force A	Force B	Gripper	Voltage A	Voltage B	Temperature	Amplitude force	Amplitude pos	Stiffness	Phase shift	Phase excitation	Force A raw	Displacement raw	HMax	HMax raw	Real Force	Real Stiffness	Contact Depth	Area	Hardness	Reduced Mod.
[#]	[#]	[um]	[s]	[um]	[um]	[um]	[m°]	[m°]	[um]	[uN]	[uN]	[V]	[V]	[V]	[°C]	[uN]	[um]	[N/m]	[°]	[°]	[uN]	[um]	[um]	[um]	[uN]	[N/m]	[um]	[um^2]	[MPa]	[MPa]
673	1.000000	0.002970	7.37163e+06	-43439.1	1005.82	-29779.2	0.000000	0.000000	6.002782	-0.032044	NaN	0.000000	0.001603	0.001756	28.0798	0.080383	0.000938	85.6908	-155.156	-163.189	-0.010652	0.001718	-1.009627	-1.010879	-0.032044	85.6908	-1.009346	-3.030983E+13	1.057204E-15	NaN
673	1.000000	0.010952	7.37163e+06	-43439.1	1005.82	-29779.2	0.000000	0.000000	6.010768	0.076681	NaN	0.000000	0.001601	0.001724	28.0799	0.048656	0.000992	49.0432	102.07	-160.258	-0.004050	0.009678	-1.001645	-1.002919	0.076681	49.0432	-1.002817	-2.475703E+13	-3.097330E-15	NaN
673	1.000000	0.018954	7.37163e+06	-43439.1	1005.82	-29779.2	0.000000	0.000000	6.018768	0.041612	NaN	0.000000	0.001600	0.001763	28.0796	0.039289	0.001574	24.9602	-172.227	-163.503	0.027768	0.017634	-0.993643	-0.994963	0.041612	24.9602	-0.994893	-1.936474E+13	-2.148829E-15	NaN
673	1.000000	0.026970	7.37163e+06	-43439.1	1005.82	-29779.2	0.000000	0.000000	6.026786	0.077101	NaN	0.000000	0.001547	0.001753	28.0798	0.079191	0.001846	42.8906	-69.106	-163.641	-0.002683	0.025629	-0.985627	-0.986968	0.077101	42.8906	-0.986976	-1.514878E+13	-5.089564E-15	NaN
673	1.000000	0.034924	7.37163e+06	-43439.1	1005.82	-29779.2	0.000000	0.000000	6.034738	0.024237	NaN	0.000000	0.001544	0.001777	28.0808	0.078010	0.001852	42.1289	-49.5565	-166.533	-0.005964	0.033633	-0.977673	-0.978964	0.024237	42.1289	-0.978105	-1.150464E+13	-2.106708E-15	NaN
673	1.000000	0.042972	7.37163e+06	-43439.1	1005.82	-29779.2	0.000000	0.000000	6.042784	-0.020607	NaN	0.000000	0.001628	0.001781	28.0811	0.057177	0.001895	30.1669	88.0569	-166.488	-0.025725	0.041660	-0.969625	-0.970937	-0.020607	30.1669	-0.969113	-8.703682E+12	2.367636E-15	NaN
673	1.000000	0.050937	7.37163e+06	-43439.1	1005.82	-29779.2	0.000000	0.000000	6.050749	-0.012522	NaN	0.000000	0.001626	0.001752	28.0811	0.081861	0.001959	41.7976	-158.736	-166.663	0.073386	0.049650	-0.961660	-0.962947	-0.012522	41.7976	-0.961436	-6.858443E+12	1.825724E-15	NaN
673	1.000000	0.058928	7.37163e+06	-43439.1	1005.82	-29779.2	0.000000	0.000000	6.058742	0.033583	NaN	0.000000	0.001618	0.001758	28.0811	0.016442	0.002005	8.200278	-110.797	-163.537	-0.015450	0.057598	-0.953669	-0.954999	0.033583	8.200278	-0.956740	-5.928170E+12	-5.664915E-15	NaN
673	1.000000	0.066947	7.37163e+06	-43439.1	1005.82	-29779.2	0.000000	0.000000	6.066761	0.018082	NaN	0.000000	0.001576	0.001784	28.0807	0.020101	0.002048	9.814455	-54.3615	-166.82	0.016597	0.065622	-0.945650	-0.946975	0.018082	9.814455	-0.947032	-4.385258E+12	-4.123448E-15	NaN
673	1.000000	0.074947	7.37163e+06	-43439.1	1005.82	-29779.2	0.000000	0.000000	6.074762	0.052703	NaN	0.000000	0.001572	0.001747	28.081	0.034687	0.002031	17.0792	-17.9024	-161.202	-0.005162	0.073638	-0.937650	-0.938959	0.052703	17.0792	-0.939964	-3.520891E+12	-1.496864E-14	NaN
673	1.000000	0.082923	7.37163e+06	-43439.1	1005.82	-29779.2	0.000000	0.000000	6.082736	0.004975	NaN	0.000000	0.001571	0.001731	28.0809	0.032724	0.001908	17.1493	166.549	-162.663	0.050374	0.081595	-0.929674	-0.931002	0.004975	17.1493	-0.929891	-2.574712E+12	-1.932272E-15	NaN
673	1.000000	0.090974	7.37163e+06	-43439.1	1005.82	-29779.2	0.000000	0.000000	6.090786	-0.003214	NaN	0.000000	0.001586	0.001752	28.0808	0.158912	0.001921	82.7221	147.855	-163.543	-0.040322	0.089648	-0.921623	-0.922949	-0.003214	82.7221	-0.921594	-1.989439E+12	1.615625E-15	NaN
673	1.000000	0.098928	7.37163e+06	-43439.1	1005.82	-29779.2	0.000000	0.000000	6.098740	-0.008019	NaN	0.000000	0.001622	0.001752	28.0812	0.106966	0.002177	49.1452	-149.236	-162.905	-0.053638	0.097618	-0.913669	-0.914979	-0.008019	49.1452	-0.913547	-1.549054E+12	5.176999E-15	NaN
673	1.000000	0.106958	7.37163e+06	-43439.1	1005.82	-29779.2	0.000000	0.000000	6.106770	-0.000102	NaN	0.000000	0.001564	0.001772	28.0808	0.054664	0.002118	25.8078	114.407	-162.322	0.026945	0.105676	-0.905639	-0.906921	-0.000102	25.8078	-0.905637	-1.211213E+12	8.385558E-17	NaN
673	1.000000	0.114983	7.37163e+06	-43439.1	1005.82	-29779.2	0.000000	0.000000	6.114796	-0.004994	NaN	0.000000	0.001555	0.001783	28.081	0.069166	0.001886	36.6711	60.8391	-167.312	-0.050209	0.113609	-0.897614	-0.898988	-0.004994	36.6711	-0.897512	-9.406830E+11	5.308483E-15	NaN
673	1.000000	0.122952	7.37163e+06	-43439.1	1005.82	-29779.2	0.000000	0.000000	6.122765	0.003409	NaN	0.000000	0.001559	0.001728	28.0807	0.116176	0.001971	58.9565	103.79	-162.678	-0.074707	0.121556	-0.889645	-0.891041	0.003409	58.9565	-0.889688	-7.373929E+11	-4.622732E-15	NaN
673	1.000000	0.130969	7.37163e+06	-43439.1	1005.82	-29779.2	0.000000	0.000000	6.130782	-0.003120	NaN	0.000000	0.001541	0.001792	28.0808	0.098885	0.001946	50.8214	-89.5253	-167.67	0.084300	0.129674	-0.881628	-0.882923	-0.003120	50.8214	-0.881582	-5.729248E+11	5.445713E-15	NaN
673	1.000000	0.138973	7.37163e+06	-43439.1	1005.82	-29779.2	0.000000	0.000000	6.138787	0.038535	NaN	0.000000	0.001541	0.001774	28.0808	0.091687	0.002168	42.285	58.0367	-162.786	0.102667	0.137685	-0.873624	-0.874912	0.038535	42.285	-0.874308	-4.567947E+11	-8.436015E-14	NaN
673	1.000000	0.146950	7.37163e+06	-43439.1	1005.82	-29779.2	0.000000	0.000000	6.146763	0.008850	NaN	0.000000	0.001572	0.001771	28.0807	0.056162	0.001964	28.5988	157.587	-166.3	-0.009864	0.145656	-0.865647	-0.866941	0.008850	28.5988	-0.865879	-3.513062E+11	-2.519119E-14	NaN
673	1.000000	0.154993	7.37163e+06	-43439.1	1005.82	-29779.2	0.000000	0.000000	6.154806	-0.004711	NaN	0.000000	0.001581	0.001738	28.0809	0.033926	0.002052	16.5348	-51.3676	-164.656	-0.028489	0.153637	-0.857604	-0.858960	-0.004711	16.5348	-0.857390	-2.696440E+11	1.747236E-14	NaN
673	1.000000	0.162987	7.37163e+06	-43439.1	1005.82	-29779.2	0.000000	0.000000	6.162799	-0.012004	NaN	0.000000	0.001549	0.001739	28.0806	0.057682	0.001942	29.7004	114.134	-164.315	-0.094306	0.161671	-0.849610	-0.850926	-0.012004	29.7004	-0.849307	-2.095829E+11	5.727377E-14	NaN
673	1.000000	0.170981	7.37163e+06	-43439.1	1005.82	-29779.2	0.000000	0.000000	6.170792	-0.051566	NaN	0.000000	0.001570	0.001731	28.0792	0.067334	0.001901	35.4292	169.906	-164.586	-0.060506	0.169679	-0.841616	-0.842918	-0.051566	35.4292	-0.840525	-1.593679E+11	3.235682E-13	NaN
673	1.000000	0.178989	7.37163e+06	-43439.1	1005.82	-29779.2	0.000000	0.000000	6.178801	-0.014049	NaN	0.000000	0.001570	0.001742	28.0796	0.039534	0.002056	19.2256	-21.555	-163.3	-0.019817	0.177711	-0.833608	-0.834886	-0.014049	19.2256	-0.833060	-1.262568E+11	1.112744E-13	NaN
673	1.000000	0.186961	7.37163e+06	-43439.1	1005.82	-29779.2	0.000000	0.000000	6.186775	0.021328	NaN	0.000000	0.001556	0.001748	28.0799	0.048440	0.001910	25.366	55.4823	-164.557	-0.054500	0.185699	-0.825636	-0.826898	0.021328	25.366	-0.826266	-1.021349E+11	-2.088206E-13	NaN
673	1.000000	0.195022	7.37163e+06	-43439.1	1005.82	-29779.2	0.000000	0.000000	6.194836	0.033462	NaN	0.000000	0.001555	0.001747	28.0798	0.068041	0.002043	33.3033	-160.014	-162.935	0.082870	0.193698	-0.817575	-0.818899	0.033462	33.3033	-0.818329	-7.971680E+10	-4.197549E-13	NaN
673	1.000000	0.203001	7.37163e+06	-43439.1	1005.82	-29779.2	0.000000	0.000000	6.202815	0.022324	NaN	0.000000	0.001545	0.001763	28.0794	0.157183	0.002018	77.9089	-58.0697	-165.586	0.028483	0.201677	-0.809596	-0.810920	0.022324	77.9089	-0.809811	-6.109489E+10	-3.653982E-13	NaN
673	1.000000	0.211003	7.37163e+06	-43439.1	1005.82	-29779.2	0.000000	0.000000	6.210816	0.006038	NaN	0.000000	0.001599	0.001761	28.0795	0.086598	0.001899	45.6074	-144.846	-163.007	-0.004780	0.209738	-0.801594	-0.802859	0.006038	45.6074	-0.801694	-4.740786E+10	-1.273660E-13	NaN
673	1.000000	0.218992	7.37163e+06	-43439.1	1005.82	-29779.2	0.000000	0.000000	6.218805	0.000130	NaN	0.000000	0.001570	0.001774	28.0796	0.046040	0.001989	23.1452	74.8779	-163.235	-0.005530	0.217724	-0.793605	-0.794873	0.000130	23.1452	-0.793609	-3.682100E+10	-3.529708E-15	NaN
673	1.000000	0.226977	7.37163e+06	-43439.1	1005.82	-29779.2	0.000000	0.000000	6.226791	0.025124	NaN	0.000000	0.001573	0.001754	28.0796	0.018875	0.002083	9.062544	16.1397	-164.28	0.051550	0.225729	-0.785620	-0.786868	0.025124	9.062544	-0.787699	-3.060815E+10	-8.208318E-13	NaN
673	1.000000	0.235023	7.37163e+06	-43439.1	1005.82	-29779.2	0.000000	0.000000	6.234836	-0.010245	NaN	0.000000	0.001550	0.001747	28.0796	0.130721	0.001968	66.4212	-72.7608	-161.547	0.008386	0.233688	-0.777574	-0.778909	-0.010245	66.4212	-0.777458	-2.221709E+10	4.611353E-13	NaN
673	1.000000	0.242997	7.37163e+06	-43439.1	1005.82	-29779.2	0.000000	0.000000	6.242808	-0.036753	NaN	0.000000	0.001557	0.001749	28.0798	0.084309	0.002028	41.5744	-48.0718	-162.563	0.035251	0.241685	-0.769600	-0.770912	-0.036753	41.5744	-0.768937	-1.701603E+10	2.159914E-12	NaN
673	1.000000	0.251013	7.37163e+06	-43439.1	1005.82	-29779.2	0.000000	0.000000	6.250827	0.038455	NaN	0.000000	0.001598	0.001754	28.0799	0.126595	0.002012	62.9283	-51.2661	-165.13	0.073377	0.249730	-0.761584	-0.762867	0.038455	62.9283	-0.762042	-1.371151E+10	-2.804565E-12	NaN
673	1.000000	0.259018	7.37163e+06	-43439.1	1005.82	-29779.2	0.000000	0.000000	6.258832	0.027978	NaN	0.000000	0.001574	0.001756	28.0798	0.114680	0.001995	57.4787	-135.01	-163.478	0.036272	0.257682	-0.753579	-0.754915	0.027978	57.4787	-0.753944	-1.063888E+10	-2.629750E-12	NaN
673	1.000000	0.267033	7.37163e+06	-43439.1	1005.82	-29779.2	0.000000	0.000000	6.266847	0.022773	NaN	0.000000	0.001566	0.001760	28.0797	0.057460	0.001893	30.3464	-85.8075	-165.797	0.064395	0.265696	-0.745564	-0.746901	0.022773	30.3464	-0.746127	-8.327001E+9	-2.734832E-12	NaN
673	1.000000	0.275033	7.37163e+06	-43439.1	1005.82	-29779.2	0.000000	0.000000	6.274849	0.075520	NaN	0.000000	0.001557	0.001738	28.0795	0.143698	0.002023	71.0268	-12.756	-162.194	0.040925	0.273706	-0.737564	-0.738891	0.075520	71.0268	-0.738361	-6.527286E+9	-1.156995E-11	NaN
673	1.000000	0.283056	7.37163e+06	-43439.1	1005.82	-29779.2	0.000000	0.000000	6.282866	-0.071363	NaN	0.000000	0.001589	0.001780	28.0797	0.090614	0.001988	45.5733	-91.1512	-165.793	0.027040	0.281755	-0.729541	-0.730842	-0.071363	45.5733	-0.728367	-4.770329E+9	1.495982E-11	NaN
673	1.000000	0.291045	7.37163e+06	-43439.1	1005.82	-29779.2	0.000000	0.000000	6.290856	-0.040693	NaN	0.000000	0.001556	0.001717	28.0797	0.070521	0.002083	33.8615	4.511268	-165.132	-0.032803	0.289727	-0.721552	-0.722870	-0.040693	33.8615	-0.720651	-3.744088E+9	1.086870E-11	NaN
673	1.000000	0.299038	7.37163e+06	-43439.1	1005.82	-29779.2	0.000000	0.000000	6.298850	-0.020037	NaN	0.000000	0.001537	0.001784	28.0797	0.048731	0.001998	24.3888	-121.329	-165.904	0.012458	0.297736	-0.713559	-0.714861	-0.020037	24.3888	-0.712943	-2.939033E+9	6.817408E-12	NaN
673	1.000000	0.307033	7.37163e+06	-43439.1	1005.82	-29779.2	0.000000	0.000000	6.306847	0.016409	NaN	0.000000	0.001595	0.001769	28.081	0.008723	0.001958	4.455397	80.9915	-163.198	0.053718	0.305737	-0.705564	-0.706860	0.016409	4.455397	-0.708326	-2.542157E+9	-6.454606E-12	NaN
673	1.000000	0.315038	7.37163e+06	-43439.1	1005.82	-29779.2	0.000000	0.000000	6.314851	-0.001076	NaN	0.000000	0.001566	0.001741	28.0808	0.079736	0.001931	41.2889	1.504097	-162.281	-0.096853	0.313756	-0.697559	-0.698841	-0.001076	41.2889	-0.697539	-1.811033E+9	5.944086E-13	NaN
673	1.000000	0.323045	7.37163e+06	-43439.1	1005.82	-29779.2	0.000000	0.000000	6.322855	-0.052073	NaN	0.000000	0.001557	0.001775	28.0811	0.043488	0.001983	21.9353	94.8408	-165.409	0.035151	0.321775	-0.689552	-0.690822	-0.052073	21.9353	-0.687772	-1.331879E+9	3.909768E-11	NaN
673	1.000000	0.331037	7.37163e+06	-43439.1	1005.82	-29779.2	0.000000	0.000000	6.330849	-0.007234	NaN	0.000000	0.001595	0.001716	28.081	0.037106	0.001899	19.5431	-148.289	-165.282	0.039687	0.329770	-0.681561	-0.682827	-0.007234	19.5431	-0.681283	-1.085801E+9	6.662087E-12	NaN
673	1.000000	0.339062	7.37163e+06	-43439.1	1005.82	-29779.2	0.000000	0.000000	6.338876	0.019949	NaN	0.000000	0.001589	0.001739	28.081	0.158789	0.002152	73.7765	132.525	-160.127	0.077801	0.337759	-0.673535	-0.674838	0.019949	73.7765	-0.673738	-8.561372E+8	-2.330116E-11	NaN
673	1.000000	0.347048	7.37163e+06	-43439.1	1005.82	-29779.2	0.000000	0.000000	6.346861	0.003309	NaN	0.000000	0.001557	0.001783	28.081	0.072315	0.002046	35.3457	-174.942	-163.12	0.001561	0.345757	-0.665549	-0.666840	0.003309	35.3457	-0.665619	-6.628581E+8	-4.992759E-12	NaN
673	1.000000	0.355047	7.37163e+06	-43439.1	1005.82	-29779.2	0.000000	0.000000	6.354858	-0.038697	NaN	0.000000	0.001635	0.001739	28.0809	0.021490	0.001928	11.1476	167.747	-164.811	-0.059901	0.353698	-0.657550	-0.658899	-0.038697	11.1476	-0.654946	-4.734032E+8	8.174243E-11	NaN
673	1.000000	0.363056	7.37163e+06	-43439.1	1005.82	-29779.2	0.000000	0.000000	6.362870	0.036359	NaN	0.000000	0.001583	0.001760	28.0813	0.089783	0.002028	44.2679	118.665	-163.96	-0.019567	0.361771	-0.649541	-0.650826	0.036359	44.2679	-0.650157	-4.070005E+8	-8.933504E-11	NaN
673	1.000000	0.371073	7.37164e+06	-43439.1	1005.82	-29779.2	0.000000	0.000000	6.370884	-0.048644	NaN	0.000000	0.001588	0.001741	28.0806	0.048926	0.001874	26.1029	21.722	-165.75	-0.008797	0.369770	-0.641524	-0.642827	-0.048644	26.1029	-0.640127	-2.965012E+8	1.640588E-10	NaN
673	1.000000	0.379085	7.37164e+06	-43439.1	1005.82	-29779.2	0.000000	0.000000	6.378898	0.006987	NaN	0.000000	0.001583	0.001759	28.0806	0.083929	0.001962	42.7676	119.401	-163.817	0.005128	0.377733	-0.633512	-0.634864	0.006987	42.7676	-0.633634	-2.415037E+8	-2.893121E-11	NaN
673	1.000000	0.387067	7.37164e+06	-43439.1	1005.82	-29779.2	0.000000	0.000000	6.386878	-0.041831	NaN	0.000000	0.001613	0.001735	28.0806	0.075643	0.002012	37.5904	-89.8496	-166.151	0.070763	0.385757	-0.625530	-0.626840	-0.041831	37.5904	-0.624695	-1.820373E+8	2.297939E-10	NaN
673	1.000000	0.395060	7.37164e+06	-43439.1	1005.82	-29779.2	0.000000	0.000000	6.394874	0.018591	NaN	0.000000	0.001598	0.001754	28.0806	0.028960	0.002046	14.1511	-21.111	-162.383	0.003384	0.393771	-0.617537	-0.618826	0.018591	14.1511	-0.618522	-1.497322E+8	-1.241640E-10	NaN
673	1.000000	0.403098	7.37164e+06	-43439.1	1005.82	-29779.2	0.000000	0.000000	6.402914	0.066811	NaN	0.000000	0.001573	0.001723	28.0812	0.039730	0.002124	18.7081	-18.6092	-162.884	0.090657	0.401754	-0.609499	-0.610843	0.066811	18.7081	-0.612177	-1.224804E+8	-5.454862E-10	NaN
673	1.000000	0.411082	7.37164e+06	-43439.1	1005.82	-29779.2	0.000000	0.000000	6.410893	-0.064372	NaN	0.000000	0.001612	0.001778	28.0807	0.076010	0.002024	37.5559	-148.904	-164.226	-0.068164	0.409775	-0.601515	-0.602822	-0.064372	37.5559	-0.600229	-8.387204E+7	7.675076E-10	NaN
673	1.000000	0.419073	7.37164e+06	-43439.1	1005.82	-29779.2	0.000000	0.000000	6.418887	0.033259	NaN	0.000000	0.001594	0.001746	28.0809	0.022045	0.002026	10.8804	-85.574	-164.461	-0.029731	0.417761	-0.593524	-0.594836	0.033259	10.8804	-0.595817	-7.291864E+7	-4.561071E-10	NaN
673	1.000000	0.427110	7.37164e+06	-43439.1	1005.82	-29779.2	0.000000	0.000000	6.426924	0.029205	NaN	0.000000	0.001622	0.001698	28.0809	0.013955	0.001972	7.077486	-52.6573	-164.282	0.058690	0.425805	-0.585487	-0.586792	0.029205	7.077486	-0.588582	-5.795782E+7	-5.038925E-10	NaN
673	1.000000	0.435083	7.37164e+06	-43439.1	1005.82	-29779.2	0.000000	0.000000	6.434897	0.028603	NaN	0.000000	0.001614	0.001755	28.0808	0.049415	0.002003	24.6718	-86.043	-163.248	0.021002	0.433767	-0.577514	-0.578830	0.028603	24.6718	-0.578383	-4.191913E+7	-6.823339E-10	NaN
673	1.000000	0.443101	7.37164e+06	-43439.1	1005.82	-29779.2	0.000000	0.000000	6.442914	0.001496	NaN	0.000000	0.001583	0.001779	28.0797	0.021828	0.001983	11.0055	-10.6988	-162.887	-0.006171	0.441829	-0.569496	-0.570768	0.001496	11.0055	-0.569598	-3.170129E+7	-4.720602E-11	NaN
673	1.000000	0.451096	7.37164e+06	-43439.1	1005.82	-29779.2	0.000000	0.000000	6.450910	0.040283	NaN	0.000000	0.001591	0.001742	28.0796	0.071352	0.001923	37.0993	-78.8382	-165.884	0.065131	0.449754	-0.561501	-0.562843	0.040283	37.0993	-0.562316	-2.514248E+7	-1.602186E-9	NaN
673	1.000000	0.459117	7.37164e+06	-43439.1	1005.82	-29779.2	0.000000	0.000000	6.458930	0.003130	NaN	0.000000	0.001574	0.001742	28.0797	0.091565	0.001963	46.639	61.9533	-166.476	-0.007873	0.457807	-0.553480	-0.554790	0.003130	46.639	-0.553530	-1.900402E+7	-1.646939E-10	NaN
673	1.000000	0.467146	7.37164e+06	-43439.1	1005.82	-29779.2	0.000000	0.000000	6.466961	0.053145	NaN	0.000000	0.001607	0.001777	28.0795	0.098281	0.002064	47.6198	56.6916	-163.553	0.062367	0.465775	-0.545452	-0.546822	0.053145	47.6198	-0.546289	-1.508472E+7	-3.523074E-9	NaN
673	1.000000	0.475100	7.37164e+06	-43439.1	1005.82	-29779.2	0.000000	0.000000	6.474912	-0.019317	NaN	0.000000	0.001623	0.001769	28.0797	0.059802	0.002089	28.6272	-122.816	-163.617	0.003261	0.473782	-0.537497	-0.538815	-0.019317	28.6272	-0.536991	-1.121043E+7	1.723113E-9	NaN
673	1.000000	0.483119	7.37164e+06	-43439.1	1005.82	-29779.2	0.000000	0.000000	6.482932	-0.006708	NaN	0.000000	0.001602	0.001770	28.0796	0.068472	0.001969	34.7701	157.104	-166.116	0.000186	0.481807	-0.529478	-0.530790	-0.006708	34.7701	-0.529333	-8.77632e+06	7.643400E-10	NaN
673	1.000000	0.491135	7.37164e+06	-43439.1	1005.82	-29779.2	0.000000	0.000000	6.490950	0.051833	NaN	0.000000	0.001605	0.001755	28.0795	0.078994	0.002028	38.9569	-87.1933	-159.808	0.132569	0.489812	-0.521462	-0.522785	0.051833	38.9569	-0.522460	-7.04367e+06	-7.358789E-9	NaN
673	1.000000	0.499137	7.37164e+06	-43439.1	1005.82	-29779.2	0.000000	0.000000	6.498951	0.043390	NaN	0.000000	0.001603	0.001740	28.0796	0.095359	0.001957	48.726	148.38	-166.311	0.071380	0.497823	-0.513461	-0.514774	0.043390	48.726	-0.514128	-5.39387e+06	-8.044299E-9	NaN
673	1.000000	0.507145	7.37164e+06	-43439.1	1005.82	-29779.2	0.000000	0.000000	6.506958	-0.006990	NaN	0.000000	0.001598	0.001763	28.0795	0.015323	0.001947	7.870016	-90.124	-166.632	0.047149	0.505792	-0.505452	-0.506805	-0.006990	7.870016	-0.504786	-3.99721e+06	1.748828E-9	NaN
673	1.000000	0.515133	7.37164e+06	-43439.1	1005.82	-29779.2	0.000000	0.000000	6.514944	-0.050043	NaN	0.000000	0.001590	0.001779	28.0796	0.071262	0.002062	34.5558	147.425	-165.06	-0.030591	0.513843	-0.497464	-0.498754	-0.050043	34.5558	-0.496378	-3.05122e+06	1.640088E-8	NaN
673	1.000000	0.523176	7.37164e+06	-43439.1	1005.82	-29779.2	0.000000	0.000000	6.522989	-0.014838	NaN	0.000000	0.001598	0.001719	28.0795	0.054883	0.002031	27.0178	64.8219	-164.853	0.054258	0.521830	-0.489421	-0.490767	-0.014838	27.0178	-0.489009	-2.40736e+06	6.163680E-9	NaN
673	1.000000	0.531115	7.37164e+06	-43439.1	1005.82	-29779.2	0.000000	0.000000	6.530929	0.022690	NaN	0.000000	0.001595	0.001720	28.0794	0.089823	0.001961	45.8159	-90.03	-164.133	0.041360	0.529834	-0.481482	-0.482763	0.022690	45.8159	-0.481853	-1.91189e+06	-1.186763E-8	NaN
673	1.000000	0.539134	7.37164e+06	-43439.1	1005.82	-29779.2	0.000000	0.000000	6.538946	-0.022471	NaN	0.000000	0.001593	0.001762	28.0792	0.107063	0.002012	53.2174	93.4861	-165.094	0.038718	0.537922	-0.473463	-0.474675	-0.022471	53.2174	-0.473146	-1.44386e+06	1.556311E-8	NaN
673	1.000000	0.547102	7.37164e+06	-43439.1	1005.82	-29779.2	0.000000	0.000000	6.546917	0.049845	NaN	0.000000	0.001634	0.001734	28.0795	0.055257	0.001952	28.3068	155.264	-164.915	0.019451	0.545854	-0.465495	-0.466743	0.049845	28.3068	-0.466816	-1.17689e+06	-4.235321E-8	NaN
673	1.000000	0.555132	7.37164e+06	-43439.1	1005.82	-29779.2	0.000000	0.000000	6.554944	-0.032057	NaN	0.000000	0.001598	0.001723	28.0797	0.052232	0.001867	27.9833	-12.0022	-164.135	0.007447	0.553778	-0.457465	-0.458819	-0.032057	27.9833	-0.456606	-845869	3.789837E-8	NaN
673	1.000000	0.563150	7.37164e+06	-43439.1	1005.82	-29779.2	0.000000	0.000000	6.562961	-0.038522	NaN	0.000000	0.001605	0.001762	28.0795	0.091467	0.002072	44.1447	162.414	-162.303	0.009500	0.561833	-0.449447	-0.450764	-0.038522	44.1447	-0.448793	-656662	5.866355E-8	NaN
673	1.000000	0.571127	7.37164e+06	-43439.1	1005.82	-29779.2	0.000000	0.000000	6.570937	-0.059394	NaN	0.000000	0.001605	0.001741	28.0799	0.143159	0.001950	73.412	82.1013	-163.966	-0.107365	0.569851	-0.441470	-0.442746	-0.059394	73.412	-0.440863	-507632	1.170014E-7	NaN
673	1.000000	0.579186	7.37164e+06	-43439.1	1005.82	-29779.2	0.000000	0.000000	6.579000	0.040726	NaN	0.000000	0.001631	0.001742	28.0809	0.026643	0.002069	12.8748	-152.102	-165.419	0.000775	0.577873	-0.433411	-0.434724	0.040726	12.8748	-0.435784	-430358	-9.463224E-8	NaN
673	1.000000	0.587166	7.37164e+06	-43439.1	1005.82	-29779.2	0.000000	0.000000	6.586977	-0.049647	NaN	0.000000	0.001606	0.001756	28.0808	0.069350	0.001831	37.8793	-127.075	-162.722	-0.002153	0.585864	-0.425431	-0.426733	-0.049647	37.8793	-0.424448	-297485	1.668886E-7	NaN
673	1.000000	0.595160	7.37164e+06	-43439.1	1005.82	-29779.2	0.000000	0.000000	6.594971	-0.062144	NaN	0.000000	0.001640	0.001741	28.0807	0.106539	0.001920	55.5017	-150.297	-164.887	-0.045966	0.593854	-0.417437	-0.418743	-0.062144	55.5017	-0.416597	-230213	2.699428E-7	NaN
673	1.000000	0.603182	7.37164e+06	-43439.1	1005.82	-29779.2	0.000000	0.000000	6.602994	-0.012971	NaN	0.000000	0.001595	0.001735	28.0807	0.093859	0.002023	46.4043	-143.374	-161.338	0.023568	0.601896	-0.409415	-0.410701	-0.012971	46.4043	-0.409205	-180759	7.175574E-8	NaN
673	1.000000	0.611180	7.37164e+06	-43439.1	1005.82	-29779.2	0.000000	0.000000	6.610997	0.109095	NaN	0.000000	0.001586	0.001721	28.0811	0.101549	0.001911	53.1494	-179.952	-165.427	0.103457	0.609830	-0.401417	-0.402767	0.109095	53.1494	-0.402957	-147279	-7.407375E-7	NaN
673	1.000000	0.619206	7.37164e+06	-43439.1	1005.82	-29779.2	0.000000	0.000000	6.619021	0.041546	NaN	0.000000	0.001632	0.001703	28.0807	0.081685	0.001946	41.9706	-45.3824	-162.973	0.132601	0.617883	-0.393391	-0.394714	0.041546	41.9706	-0.394133	-110218	-3.769383E-7	NaN
673	1.000000	0.627189	7.37164e+06	-43439.1	1005.82	-29779.2	0.000000	0.000000	6.627002	0.006910	NaN	0.000000	0.001602	0.001723	28.0812	0.028845	0.002078	13.8814	108.563	-162.427	0.035903	0.625910	-0.385408	-0.386687	0.006910	13.8814	-0.385781	-83710	-8.255223E-8	NaN
673	1.000000	0.635187	7.37164e+06	-43439.1	1005.82	-29779.2	0.000000	0.000000	6.635000	-0.016072	NaN	0.000000	0.001610	0.001686	28.0808	0.075655	0.001997	37.8767	-142.074	-166.645	-0.088454	0.633924	-0.377410	-0.378673	-0.016072	37.8767	-0.377091	-62824.1	2.558281E-7	NaN
673	1.000000	0.643193	7.37164e+06	-43439.1	1005.82	-29779.2	0.000000	0.000000	6.643005	-0.012475	NaN	0.000000	0.001629	0.001701	28.0813	0.023943	0.002098	11.4113	-96.3538	-162.86	-0.080699	0.641832	-0.369404	-0.370765	-0.012475	11.4113	-0.368584	-47395.2	2.632077E-7	NaN
673	1.000000	0.651188	7.37164e+06	-43439.1	1005.82	-29779.2	0.000000	0.000000	6.650999	-0.027820	NaN	0.000000	0.001613	0.001666	28.0808	0.071342	0.002077	34.3447	-174.772	-164.214	-0.005928	0.649867	-0.361409	-0.362730	-0.027820	34.3447	-0.360802	-36596.1	7.601993E-7	NaN
673	1.000000	0.659190	7.37164e+06	-43439.1	1005.82	-29779.2	0.000000	0.000000	6.659003	0.001241	NaN	0.000000	0.001594	0.001681	28.0807	0.077072	0.001999	38.5556	-163.546	-166.176	0.023769	0.657940	-0.353407	-0.354657	0.001241	38.5556	-0.353431	-28626.7	-4.335040E-8	NaN
673	1.000000	0.667205	7.37164e+06	-43439.1	1005.82	-29779.2	0.000000	0.000000	6.667019	0.017826	NaN	0.000000	0.001576	0.001719	28.081	0.010741	0.001889	5.687134	-92.718	-166.375	0.032053	0.665904	-0.345392	-0.346693	0.017826	5.687134	-0.347743	-23671.5	-7.530559E-7	NaN
673	1.000000	0.675192	7.37164e+06	-43439.1	1005.82	-29779.2	0.000000	0.000000	6.675003	-0.040785	NaN	0.000000	0.001601	0.001710	28.081	0.018004	0.001975	9.113655	78.5265	-163.813	-0.018065	0.673902	-0.337405	-0.338695	-0.040785	9.113655	-0.334048	-14951.4	2.727821E-6	NaN
673	1.000000	0.683181	7.37164e+06	-43439.1	1005.82	-29779.2	0.000000	0.000000	6.682994	-0.014592	NaN	0.000000	0.001622	0.001731	28.081	0.112006	0.001897	59.045	-148.944	-163.417	-0.052657	0.681830	-0.329416	-0.330767	-0.014592	59.045	-0.329230	-12710.9	1.147989E-6	NaN
673	1.000000	0.691225	7.37164e+06	-43439.1	1005.82	-29779.2	0.000000	0.000000	6.691039	0.028688	NaN	0.000000	0.001631	0.001730	28.0809	0.077492	0.002021	38.3496	173.909	-165.199	0.007049	0.689932	-0.321372	-0.322665	0.028688	38.3496	-0.321933	-9933.04	-2.888186E-6	NaN
673	1.000000	0.699233	7.37164e+06	-43439.1	1005.82	-29779.2	0.000000	0.000000	6.699044	-0.043767	NaN	0.000000	0.001567	0.001741	28.0807	0.085875	0.002107	40.7628	166.892	-162.705	0.016582	0.697946	-0.313364	-0.314651	-0.043767	40.7628	-0.312559	-7226.02	6.056901E-6	NaN
673	1.000000	0.707212	7.37164e+06	-43439.1	1005.82	-29779.2	0.000000	0.000000	6.707023	-0.046132	NaN	0.000000	0.001617	0.001788	28.0809	0.093841	0.001929	48.641	-112.633	-165.729	-0.068269	0.705884	-0.305385	-0.306713	-0.046132	48.641	-0.304674	-5522.28	8.353755E-6	NaN
673	1.000000	0.715199	7.37164e+06	-43439.1	1005.82	-29779.2	0.000000	0.000000	6.715012	0.005391	NaN	0.000000	0.001595	0.001757	28.0795	0.056749	0.002053	27.6389	36.0849	-166.839	-0.055819	0.713937	-0.297399	-0.298660	0.005391	27.6389	-0.297545	-4325.73	-1.246274E-6	NaN
673	1.000000	0.723219	7.37164e+06	-43439.1	1005.82	-29779.2	0.000000	0.000000	6.723030	-0.043576	NaN	0.000000	0.001579	0.001747	28.0797	0.062157	0.002038	30.5028	27.1687	-164.034	0.019302	0.721926	-0.289378	-0.290671	-0.043576	30.5028	-0.288306	-3147.12	1.384634E-5	NaN
673	1.000000	0.731225	7.37164e+06	-43439.1	1005.82	-29779.2	0.000000	0.000000	6.731040	0.056207	NaN	0.000000	0.001637	0.001718	28.0794	0.143747	0.001873	76.7317	-106.195	-163.539	0.128995	0.729891	-0.281372	-0.282706	0.056207	76.7317	-0.281922	-2523.13	-2.227666E-5	NaN
673	1.000000	0.739224	7.37164e+06	-43439.1	1005.82	-29779.2	0.000000	0.000000	6.739036	-0.040757	NaN	0.000000	0.001635	0.001715	28.0799	0.117156	0.002040	57.4284	179.043	-168.642	-0.105850	0.737921	-0.273373	-0.274676	-0.040757	57.4284	-0.272840	-1839.38	2.215790E-5	NaN
673	1.000000	0.747214	7.37164e+06	-43439.1	1005.82	-29779.2	0.000000	0.000000	6.747026	-0.028213	NaN	0.000000	0.001669	0.001722	28.0796	0.079828	0.002059	38.7678	0.629065	-162.802	-0.006321	0.745979	-0.265383	-0.266618	-0.028213	38.7678	-0.264837	-1389.64	2.030247E-5	NaN
673	1.000000	0.755213	7.37164e+06	-43439.1	1005.82	-29779.2	0.000000	0.000000	6.755027	0.026366	NaN	0.000000	0.001653	0.001733	28.0796	0.065919	0.001997	33.0109	148.514	-165.917	0.026755	0.753900	-0.257384	-0.258697	0.026366	33.0109	-0.257983	-1091.37	-2.415889E-5	NaN
673	1.000000	0.763244	7.37164e+06	-43439.1	1005.82	-29779.2	0.000000	0.000000	6.763058	0.029775	NaN	0.000000	0.001623	0.001743	28.0794	0.084951	0.002001	42.4629	144.771	-162.021	-0.006382	0.761915	-0.249353	-0.250682	0.029775	42.4629	-0.249879	-818.636	-3.637172E-5	NaN
673	1.000000	0.771239	7.37164e+06	-43439.1	1005.82	-29779.2	0.000000	0.000000	6.771053	0.041328	NaN	0.000000	0.001653	0.001739	28.0797	0.048821	0.002023	24.1382	-146.103	-164.605	0.012733	0.769896	-0.241358	-0.242701	0.041328	24.1382	-0.242642	-632.074	-6.538544E-5	NaN
673	1.000000	0.779236	7.37164e+06	-43439.1	1005.82	-29779.2	0.000000	0.000000	6.779044	-0.098866	NaN	0.000000	0.001638	0.001725	28.0798	0.058265	0.001965	29.6454	-88.0223	-161.46	-0.111465	0.777931	-0.233362	-0.234666	-0.098866	29.6454	-0.230860	-413.139	0.000239	NaN
673	1.000000	0.787247	7.37164e+06	-43439.1	1005.82	-29779.2	0.000000	0.000000	6.787060	0.005671	NaN	0.000000	0.001623	0.001734	28.0794	0.068816	0.002126	32.3713	8.436478	-167.494	-0.040503	0.785963	-0.225350	-0.226634	0.005671	32.3713	-0.225481	-339.607	-1.669790E-5	NaN
673	1.000000	0.795268	7.37164e+06	-43439.1	1005.82	-29779.2	0.000000	0.000000	6.795080	-0.003099	NaN	0.000000	0.001595	0.001762	28.0796	0.098591	0.002098	46.9932	140.827	-165.248	-0.092929	0.793958	-0.217329	-0.218639	-0.003099	46.9932	-0.217280	-251.264	1.233336E-5	NaN
673	1.000000	0.803256	7.37164e+06	-43439.1	1005.82	-29779.2	0.000000	0.000000	6.803067	-0.044790	NaN	0.000000	0.001613	0.001731	28.0795	0.067523	0.002064	32.707	32.5693	-163.271	-0.059480	0.801917	-0.209341	-0.210680	-0.044790	32.707	-0.208314	-180.085	0.000249	NaN
673	1.000000	0.811267	7.37164e+06	-43439.1	1005.82	-29779.2	0.000000	0.000000	6.811079	-0.004558	NaN	0.000000	0.001594	0.001727	28.0795	0.015402	0.001916	8.037085	-87.4029	-166.105	-0.022398	0.809980	-0.201330	-0.202617	-0.004558	8.037085	-0.200905	-136.321	3.343654E-5	NaN
673	1.000000	0.819277	7.37164e+06	-43439.1	1005.82	-29779.2	0.000000	0.000000	6.819091	0.013052	NaN	0.000000	0.001613	0.001716	28.0797	0.072912	0.001994	36.5664	-158.234	-160.753	-0.052547	0.817976	-0.193320	-0.194622	0.013052	36.5664	-0.193587	-103.223	-0.000126	NaN
673	1.000000	0.827237	7.37164e+06	-43439.1	1005.82	-29779.2	0.000000	0.000000	6.827052	0.060869	NaN	0.000000	0.001621	0.001773	28.0796	0.020819	0.002038	10.2178	-85.7588	-166.441	0.108170	0.826007	-0.185360	-0.186590	0.060869	10.2178	-0.189828	-89.3629	-0.000681	NaN
673	1.000000	0.835269	7.37164e+06	-43439.1	1005.82	-29779.2	0.000000	0.000000	6.835083	0.022113	NaN	0.000000	0.001631	0.001715	28.0796	0.077854	0.002031	38.3311	-62.0827	-164.353	0.069011	0.833943	-0.177328	-0.178654	0.022113	38.3311	-0.177761	-55.8842	-0.000396	NaN
673	1.000000	0.843283	7.37164e+06	-43439.1	1005.82	-29779.2	0.000000	0.000000	6.843096	0.000856	NaN	0.000000	0.001666	0.001707	28.0797	0.015008	0.002003	7.492263	-55.6454	-164.069	0.021309	0.841974	-0.169314	-0.170623	0.000856	7.492263	-0.169400	-40.1038	-2.135698E-5	NaN
673	1.000000	0.851282	7.37164e+06	-43439.1	1005.82	-29779.2	0.000000	0.000000	6.851095	-0.007317	NaN	0.000000	0.001646	0.001708	28.0807	0.027058	0.002050	13.1979	-111.048	-163.913	0.006188	0.849989	-0.161315	-0.162608	-0.007317	13.1979	-0.160899	-28.441	0.000257	NaN
673	1.000000	0.859279	7.37164e+06	-43439.1	1005.82	-29779.2	0.000000	0.000000	6.859088	-0.082315	NaN	0.000000	0.001697	0.001701	28.0808	0.027603	0.001900	14.5292	-158.135	-165.056	-0.027850	0.857961	-0.153318	-0.154636	-0.082315	14.5292	-0.149069	-17.4182	0.004726	NaN
673	1.000000	0.867289	7.37164e+06	-43439.1	1005.82	-29779.2	0.000000	0.000000	6.867099	-0.086818	NaN	0.000000	0.001635	0.001730	28.0807	0.052535	0.002007	26.1739	-13.3275	-160.776	-0.011562	0.865969	-0.145308	-0.146628	-0.086818	26.1739	-0.142820	-13.3569	0.006500	NaN
673	1.000000	0.875261	7.37164e+06	-43439.1	1005.82	-29779.2	0.000000	0.000000	6.875073	-0.014948	NaN	0.000000	0.001697	0.001718	28.081	0.081088	0.002101	38.5946	-145.389	-160.802	-0.047853	0.873998	-0.137336	-0.138599	-0.014948	38.5946	-0.137046	-10.4043	0.001437	NaN
673	1.000000	0.883275	7.37164e+06	-43439.1	1005.82	-29779.2	0.000000	0.000000	6.883090	0.050621	NaN	0.000000	0.001604	0.001736	28.0808	0.100587	0.002038	49.3458	-86.2652	-163.127	0.115431	0.881931	-0.129322	-0.130666	0.050621	49.3458	-0.130092	-7.652354	-0.006615	NaN
673	1.000000	0.891260	7.37164e+06	-43439.1	1005.82	-29779.2	0.000000	0.000000	6.891070	-0.049322	NaN	0.000000	0.001646	0.001718	28.0807	0.106197	0.002039	52.0814	38.9543	-162.964	-0.046642	0.890001	-0.121337	-0.122596	-0.049322	52.0814	-0.120627	-4.974211	0.009916	NaN
673	1.000000	0.899278	7.37164e+06	-43439.1	1005.82	-29779.2	0.000000	0.000000	6.899092	0.028052	NaN	0.000000	0.001573	0.001700	28.0808	0.073141	0.002001	36.5554	71.2514	-166.174	0.010751	0.897947	-0.113319	-0.114651	0.028052	36.5554	-0.113895	-3.624615	-0.007739	NaN
673	1.000000	0.907276	7.37164e+06	-43439.1	1005.82	-29779.2	0.000000	0.000000	6.907088	-0.008847	NaN	0.000000	0.001620	0.001710	28.0807	0.089174	0.001980	45.0472	47.0701	-169.56	-0.042348	0.905987	-0.105321	-0.106610	-0.008847	45.0472	-0.105174	-2.370976	0.003731	NaN
673	1.000000	0.915321	7.37164e+06	-43439.1	1005.82	-29779.2	0.000000	0.000000	6.915134	-0.007527	NaN	0.000000	0.001668	0.001677	28.0807	0.167958	0.001990	84.409	-117.013	-166.665	-0.034535	0.914016	-0.097276	-0.098581	-0.007527	84.409	-0.097209	-1.582834	0.004755	NaN
673	1.000000	0.923252	7.37164e+06	-43439.1	1005.82	-29779.2	0.000000	0.000000	6.923065	0.008186	NaN	0.000000	0.001693	0.001718	28.0801	0.068682	0.001928	35.6207	9.067738	-163.122	-0.047891	0.921926	-0.089345	-0.090671	0.008186	35.6207	-0.089517	-1.053116	-0.007774	NaN
673	1.000000	0.931316	7.37164e+06	-43439.1	1005.82	-29779.2	0.000000	0.000000	6.931127	-0.059365	NaN	0.000000	0.001587	0.001711	28.0809	0.047071	0.001951	24.126	40.0219	-163.711	-0.091031	0.930032	-0.081281	-0.082565	-0.059365	24.126	-0.079435	-0.599158	0.099080	NaN
673	1.000000	0.939267	7.37164e+06	-43439.1	1005.82	-29779.2	0.000000	0.000000	6.939077	-0.063656	NaN	0.000000	0.001595	0.001731	28.0811	0.048072	0.002062	23.3099	-171.598	-163.912	-0.064488	0.938031	-0.073330	-0.074566	-0.063656	23.3099	-0.071282	-0.369042	0.172489	NaN
673	1.000000	0.947341	7.37164e+06	-43439.1	1005.82	-29779.2	0.000000	0.000000	6.947154	0.010892	NaN	0.000000	0.001569	0.001740	28.0807	0.082046	0.001990	41.2319	-99.5982	-167.091	0.075172	0.945994	-0.065256	-0.066604	0.010892	41.2319	-0.065454	-0.256538	-0.042459	NaN
673	1.000000	0.955337	7.37164e+06	-43439.1	1005.82	-29779.2	0.000000	0.000000	6.955148	-0.041271	NaN	0.000000	0.001624	0.001757	28.0806	0.134451	0.002061	65.2232	32.5935	-164.131	-0.049702	0.954048	-0.057260	-0.058550	-0.041271	65.2232	-0.056785	-0.145327	0.283989	NaN
673	1.000000	0.963294	7.37164e+06	-43439.1	1005.82	-29779.2	0.000000	0.000000	6.963108	0.015172	NaN	0.000000	0.001595	0.001711	28.0807	0.122477	0.002077	58.9741	51.9786	-167.21	-0.007990	0.962026	-0.049303	-0.050571	0.015172	58.9741	-0.049496	-0.088099	-0.172215	NaN
673	1.000000	0.971348	7.37164e+06	-43439.1	1005.82	-29779.2	0.000000	0.000000	6.971158	-0.065486	NaN	0.000000	0.001608	0.001699	28.0807	0.143621	0.002059	69.7604	42.7361	-164.652	-0.124831	0.970006	-0.041249	-0.042591	-0.065486	69.7604	-0.040545	-0.046982	1.393852	NaN
673	1.000000	0.979308	7.37164e+06	-43439.1	1005.82	-29779.2	0.000000	0.000000	6.979122	0.027399	NaN	0.000000	0.001557	0.001740	28.0809	0.092830	0.001987	46.726	47.7152	-164.528	-0.087933	0.978032	-0.033289	-0.034565	0.027399	46.726	-0.033729	-0.029394	-0.932128	NaN
673	1.000000	0.987334	7.37164e+06	-43439.1	1005.82	-29779.2	0.000000	0.000000	6.987148	0.036064	NaN	0.000000	0.001599	0.001713	28.0798	0.069165	0.002014	34.3484	-29.2328	-165.816	0.006227	0.986063	-0.025263	-0.026534	0.036064	34.3484	-0.026050	-0.017978	-2.006022	NaN
673	1.000000	0.995314	7.37164e+06	-43439.1	1005.82	-29779.2	0.000000	0.000000	6.995127	0.007094	NaN	0.000000	0.001588	0.001691	28.0795	0.038055	0.002040	18.6533	-158.175	-164.042	-0.064726	0.994021	-0.017283	-0.018576	0.007094	18.6533	-0.017568	-0.010878	-0.652116	NaN
673	1.000000	1.003313	7.37164e+06	-43439.1	1005.82	-29779.2	0.000000	0.000000	7.003129	0.079773	NaN	0.000000	0.001626	0.001713	28.0795	0.065086	0.002046	31.8082	-170.329	-164.458	0.062603	1.002048	-0.009284	-0.010549	0.079773	31.8082	-0.011165	-0.007052	-11.3115	NaN
673	1.000000	1.011305	7.37164e+06	-43439.1	1005.82	-29779.2	0.000000	0.000000	7.011134	0.382526	NaN	0.000000	0.001616	0.001731	28.0794	0.825192	0.002026	407.375	16.6626	-165.025	0.118884	1.010045	-0.001292	-0.002552	0.382526	407.375	-0.001996	-0.001436	-266.295	NaN
673	1.000000	1.019214	7.37164e+06	-43439.1	1005.82	-29779.2	0.000000	0.000000	7.019342	7.670621	NaN	0.000000	0.001613	0.001716	28.0794	6.853319	0.001507	4546.84	7.795019	-168.529	5.987263	1.017969	0.006617	0.005372	7.670621	4546.84	0.005352	0.004457	1721.21	62227.9
673	2.000000	1.022035	7.37164e+06	-43439.1	1005.82	-29779.2	0.000000	0.000000	7.022250	9.780256	NaN	0.000000	0.001597	0.001708	28.0798	9.867279	0.001833	5382.99	8.570060	-171.903	9.167343	1.021640	0.009438	0.009043	9.780256	5382.99	0.008075	0.007120	1373.64	58285.3
673	2.000000	1.023936	7.37164e+06	-43439.1	1005.82	-29779.2	0.000000	0.000000	7.024225	11.5847	NaN	0.000000	0.001621	0.001718	28.0798	11.4247	0.001759	6494.05	7.110461	-171.805	10.741	1.023577	0.011339	0.010980	11.5847	6494.05	0.010001	0.009182	1261.62	61916.9
673	2.000000	1.025930	7.37164e+06	-43439.1	1005.82	-29779.2	0.000000	0.000000	7.026289	13.2935	NaN	0.000000	0.001646	0.001725	28.0796	13.4135	0.001794	7475.54	5.617332	-172.555	12.4352	1.025663	0.013333	0.013066	13.2935	7475.54	0.011999	0.011489	1157.04	63719.2
673	2.000000	1.027960	7.37164e+06	-43439.1	1005.82	-29779.2	0.000000	0.000000	7.028550	18.8944	NaN	0.000000	0.001620	0.001702	28.0794	15.433	0.001779	8675.84	7.328872	-174.528	19.0822	1.027582	0.015363	0.014985	18.8944	8675.84	0.013730	0.013629	1386.34	67897.3
673	2.000000	1.029921	7.37164e+06	-43439.1	1005.82	-29779.2	0.000000	0.000000	7.030626	21.6995	NaN	0.000000	0.001599	0.001713	28.0794	17.4354	0.001753	9948.21	2.065172	-172.906	21.0691	1.029638	0.017324	0.017041	21.6995	9948.21	0.015688	0.016214	1338.35	71380.2
673	2.000000	1.031926	7.37164e+06	-43439.1	1005.82	-29779.2	0.000000	0.000000	7.032766	24.9829	NaN	0.000000	0.001608	0.001721	28.0793	19.5732	0.001740	11250	6.814008	-176.144	24.8064	1.031593	0.019329	0.018996	24.9829	11250	0.017663	0.019003	1314.7	74562.3
673	2.000000	1.033881	7.37164e+06	-43439.1	1005.82	-29779.2	0.000000	0.000000	7.034804	27.0032	NaN	0.000000	0.001599	0.001721	28.0797	21.1768	0.001802	11751.8	5.023445	-176.407	25.5839	1.033628	0.021284	0.021031	27.0032	11751.8	0.019561	0.021857	1235.45	72624.2
673	2.000000	1.035920	7.37164e+06	-43439.1	1005.82	-29779.2	0.000000	0.000000	7.037057	32.2146	NaN	0.000000	0.001602	0.001746	28.0797	23.3102	0.001825	12773.4	6.533683	-177.682	32.2288	1.035557	0.023323	0.022960	32.2146	12773.4	0.021432	0.024842	1296.78	74043.2
673	2.000000	1.037898	7.37164e+06	-43439.1	1005.82	-29779.2	0.000000	0.000000	7.039336	39.5444	NaN	0.000000	0.001595	0.001752	28.0791	23.8744	0.001654	14437.3	2.546086	-174.725	39.0678	1.037501	0.025301	0.024903	39.5444	14437.3	0.023247	0.027903	1417.2	78964.5
673	2.000000	1.039860	7.37164e+06	-43439.1	1005.82	-29779.2	0.000000	0.000000	7.041451	43.2771	NaN	0.000000	0.001572	0.001717	28.0795	26.5475	0.001758	15100.6	6.044321	-179.296	41.103	1.039552	0.027263	0.026955	43.2771	15100.6	0.025113	0.031222	1386.1	78079.6
673	2.000000	1.041905	7.37164e+06	-43439.1	1005.82	-29779.2	0.000000	0.000000	7.043725	48.8311	NaN	0.000000	0.001596	0.001715	28.0794	28.3607	0.001783	15902	7.070035	-179.648	48.4837	1.041548	0.029308	0.028951	48.8311	15902	0.027005	0.034764	1404.63	77921.5
673	2.000000	1.043841	7.37164e+06	-43439.1	1005.82	-29779.2	0.000000	0.000000	7.045705	49.9103	NaN	0.000000	0.001567	0.001728	28.0797	30.4152	0.001656	18368.8	4.153886	179.553	47.9898	1.043586	0.031244	0.030989	49.9103	18368.8	0.029206	0.039114	1276.03	84857.1
673	2.000000	1.045893	7.37164e+06	-43439.1	1005.82	-29779.2	0.000000	0.000000	7.048089	57.9854	NaN	0.000000	0.001567	0.001738	28.0809	33.4751	0.001785	18758.4	5.266006	179.105	56.9763	1.045612	0.033296	0.033015	57.9854	18758.4	0.030977	0.042793	1355.01	82847.5
673	2.000000	1.047845	7.37164e+06	-43439.1	1005.82	-29779.2	0.000000	0.000000	7.050524	69.7266	NaN	0.000000	0.001558	0.001705	28.0805	34.903	0.001823	19150.1	7.420942	177.217	68.0037	1.047518	0.035248	0.034921	69.7266	19150.1	0.032517	0.046123	1511.75	81467.5
673	2.000000	1.049850	7.37164e+06	-43439.1	1005.82	-29779.2	0.000000	0.000000	7.052714	74.2369	NaN	0.000000	0.001586	0.001719	28.0808	36.488	0.001723	21181.1	2.432924	-178.086	72.8966	1.049573	0.037253	0.036976	74.2369	21181.1	0.034624	0.050874	1459.23	85797.4
673	2.000000	1.051843	7.37164e+06	-43439.1	1005.82	-29779.2	0.000000	0.000000	7.054936	79.812	NaN	0.000000	0.001595	0.001724	28.0807	39.5201	0.001773	22285	5.668856	178.389	77.8074	1.051586	0.039246	0.038989	79.812	22285	0.036560	0.055440	1439.62	86472
673	2.000000	1.053799	7.37164e+06	-43439.1	1005.82	-29779.2	0.000000	0.000000	7.057103	84.9538	NaN	0.000000	0.001585	0.001743	28.0807	40.8667	0.001812	22552.1	5.092953	177.832	83.2645	1.053541	0.041202	0.040944	84.9538	22552.1	0.038377	0.059900	1418.26	84187.4
673	2.000000	1.055863	7.37164e+06	-43439.1	1005.82	-29779.2	0.000000	0.000000	7.059656	96.855	NaN	0.000000	0.001595	0.001734	28.0806	43.0167	0.001838	23400.2	3.976864	179.34	95.6302	1.055534	0.043266	0.042937	96.855	23400.2	0.040161	0.064446	1502.89	84216.2
673	2.000000	1.057825	7.37164e+06	-43439.1	1005.82	-29779.2	0.000000	0.000000	7.061985	105.767	NaN	0.000000	0.001608	0.001743	28.0807	43.1419	0.001674	25768.1	0.015698	-177.92	104.072	1.057559	0.045228	0.044962	105.767	25768.1	0.042150	0.069702	1517.41	89172.9
673	2.000000	1.059821	7.37164e+06	-43439.1	1005.82	-29779.2	0.000000	0.000000	7.064368	115.181	NaN	0.000000	0.001629	0.001750	28.0808	46.4177	0.001831	25353.8	5.765062	176.859	113.146	1.059499	0.047224	0.046902	115.181	25353.8	0.043816	0.074263	1550.99	85002.4
673	2.000000	1.061898	7.37164e+06	-43439.1	1005.82	-29779.2	0.000000	0.000000	7.066877	125.685	NaN	0.000000	0.001642	0.001759	28.0809	48.1747	0.001802	26726.9	5.624097	176.849	125.034	1.061445	0.049301	0.048848	125.685	26726.9	0.045774	0.079800	1574.99	86441.2
673	2.000000	1.063813	7.37164e+06	-43439.1	1005.82	-29779.2	0.000000	0.000000	7.069135	134.018	NaN	0.000000	0.001638	0.001759	28.0814	49.2376	0.001669	29504.3	4.097784	176.605	131.401	1.063522	0.051216	0.050925	134.018	29504.3	0.047810	0.085763	1562.65	92046.6
673	2.000000	1.065761	7.37164e+06	-43439.1	1005.82	-29779.2	0.000000	0.000000	7.071644	147.679	NaN	0.000000	0.001602	0.001731	28.0806	51.874	0.001849	28049.3	3.574431	178.649	145.057	1.065468	0.053164	0.052871	147.679	28049.3	0.049215	0.090003	1640.82	85421.5
673	2.000000	1.067801	7.37164e+06	-43439.1	1005.82	-29779.2	0.000000	0.000000	7.073927	153.598	NaN	0.000000	0.001604	0.001768	28.0808	53.138	0.001801	29512	3.535107	177.666	151.739	1.067543	0.055204	0.054946	153.598	29512	0.051300	0.096474	1592.12	86809.4
673	2.000000	1.069817	7.37164e+06	-43439.1	1005.82	-29779.2	0.000000	0.000000	7.076298	162.226	NaN	0.000000	0.001623	0.001744	28.0809	56.0346	0.001787	31349.8	7.557677	172.923	159.512	1.069524	0.057220	0.056927	162.226	31349.8	0.053339	0.103012	1574.82	89240.8
673	2.000000	1.071859	7.37164e+06	-43439.1	1005.82	-29779.2	0.000000	0.000000	7.078901	175.882	NaN	0.000000	0.001637	0.001716	28.0807	58.3583	0.001782	32752.8	7.542549	173.187	176.086	1.071484	0.059262	0.058887	175.882	32752.8	0.055235	0.109277	1609.51	90522.7
673	2.000000	1.073813	7.37164e+06	-43439.1	1005.82	-29779.2	0.000000	0.000000	7.081201	184.295	NaN	0.000000	0.001623	0.001753	28.0809	59.361	0.001749	33949	3.658916	175.783	182.279	1.073518	0.061216	0.060921	184.295	33949	0.057144	0.115768	1591.93	91160.1
673	2.000000	1.075808	7.37164e+06	-43439.1	1005.82	-29779.2	0.000000	0.000000	7.083658	195.542	NaN	0.000000	0.001618	0.001755	28.0807	62.8458	0.001778	35346.9	5.112895	174.074	194.116	1.075585	0.063211	0.062988	195.542	35346.9	0.059062	0.122466	1596.7	92282
673	2.000000	1.077856	7.37164e+06	-43439.1	1005.82	-29779.2	0.000000	0.000000	7.086454	213.742	NaN	0.000000	0.001615	0.001729	28.0808	62.1727	0.001845	33705.6	2.888258	178.087	213.88	1.077437	0.065259	0.064840	213.742	33705.6	0.060503	0.127617	1674.87	86202.5
673	2.000000	1.079802	7.37164e+06	-43439.1	1005.82	-29779.2	0.000000	0.000000	7.088796	223.369	NaN	0.000000	0.001594	0.001721	28.0796	64.7885	0.001727	37511.6	1.363930	177.976	222.291	1.079559	0.067205	0.066962	223.369	37511.6	0.062739	0.135814	1644.67	92996.5
673	2.000000	1.081849	7.37164e+06	-43439.1	1005.82	-29779.2	0.000000	0.000000	7.091406	237.063	NaN	0.000000	0.001579	0.001746	28.0795	67.4699	0.001687	39989.6	6.225614	173.742	235.786	1.081469	0.069252	0.068872	237.063	39989.6	0.064806	0.143603	1650.82	96413.6
673	2.000000	1.083705	7.37164e+06	-43439.1	1005.82	-29779.2	0.000000	0.000000	7.094044	256.086	NaN	0.000000	0.001644	0.001727	28.0795	69.0697	0.001782	38766.5	4.907295	173.9	250.756	1.083421	0.071108	0.070824	256.086	38766.5	0.066154	0.148794	1721.08	91820
673	2.000000	1.085851	7.37164e+06	-43439.1	1005.82	-29779.2	0.000000	0.000000	7.096351	260.031	NaN	0.000000	0.001605	0.001741	28.0793	72.3884	0.001798	40259.1	6.258842	172.612	261.871	1.085555	0.073254	0.072958	260.031	40259.1	0.068409	0.157677	1649.13	92630.1
673	2.000000	1.087762	7.37164e+06	-43439.1	1005.82	-29779.2	0.000000	0.000000	7.098891	275.33	NaN	0.000000	0.001583	0.001730	28.0798	73.8606	0.001739	42461.8	7.348879	171.247	274.098	1.087462	0.075165	0.074865	275.33	42461.8	0.070302	0.165317	1665.47	95414.2
673	2.000000	1.089855	7.37164e+06	-43439.1	1005.82	-29779.2	0.000000	0.000000	7.101627	290.969	NaN	0.000000	0.001597	0.001728	28.0791	76.2214	0.001831	41623.4	7.241823	171.228	292.893	1.089477	0.077258	0.076880	290.969	41623.4	0.072015	0.172382	1687.93	91593.6
673	2.000000	1.091858	7.37164e+06	-43439.1	1005.82	-29779.2	0.000000	0.000000	7.104066	301.556	NaN	0.000000	0.001628	0.001768	28.0797	77.1274	0.001762	43782.7	5.012742	173.26	304.031	1.091560	0.079261	0.078963	301.556	43782.7	0.074096	0.181147	1664.7	93985.5
673	2.000000	1.093752	7.37164e+06	-43439.1	1005.82	-29779.2	0.000000	0.000000	7.106850	323.238	NaN	0.000000	0.001586	0.001727	28.0795	78.5499	0.001779	44142.4	4.083648	174.259	319.854	1.093464	0.081155	0.080867	323.238	44142.4	0.075663	0.187883	1720.42	93043.4
673	2.000000	1.095773	7.37164e+06	-43439.1	1005.82	-29779.2	0.000000	0.000000	7.109246	332.346	NaN	0.000000	0.001625	0.001746	28.0795	80.9839	0.001802	44930.3	2.168926	175.57	328.541	1.095534	0.083176	0.082936	332.346	44930.3	0.077628	0.196496	1691.36	92605.2
673	2.000000	1.097709	7.37164e+06	-43439.1	1005.82	-29779.2	0.000000	0.000000	7.111878	349.289	NaN	0.000000	0.001594	0.001715	28.08	82.2251	0.001790	45947.7	8.359363	169.454	343.958	1.097452	0.085112	0.084855	349.289	45947.7	0.079410	0.204459	1708.36	92839.6
673	2.000000	1.099729	7.37164e+06	-43439.1	1005.82	-29779.2	0.000000	0.000000	7.114349	360.259	NaN	0.000000	0.001601	0.001746	28.0791	84.5726	0.001783	47424.5	3.871608	173.876	357.009	1.099412	0.087132	0.086815	360.259	47424.5	0.081435	0.213687	1685.92	93731.8
673	2.000000	1.101882	7.37164e+06	-43439.1	1005.82	-29779.2	0.000000	0.000000	7.117405	382.222	NaN	0.000000	0.001608	0.001750	28.0797	86.8338	0.001695	51236.1	3.809774	173.472	384.433	1.101459	0.089285	0.088862	382.222	51236.1	0.083690	0.224191	1704.9	98864.5
673	2.000000	1.103856	7.37164e+06	-43439.1	1005.82	-29779.2	0.000000	0.000000	7.119816	392.837	NaN	0.000000	0.001615	0.001752	28.0796	87.5947	0.001784	49112.7	2.004279	175.244	394.735	1.103539	0.091259	0.090942	392.837	49112.7	0.085260	0.231645	1695.86	93230.1
673	2.000000	1.105776	7.37164e+06	-43439.1	1005.82	-29779.2	0.000000	0.000000	7.122338	407.482	NaN	0.000000	0.001608	0.001757	28.0799	91.6575	0.001753	52295.5	7.428563	169.294	404.709	1.105456	0.093179	0.092858	407.482	52295.5	0.087335	0.241668	1686.13	97191.4
673	2.000000	1.107739	7.37164e+06	-43439.1	1005.82	-29779.2	0.000000	0.000000	7.125172	428.687	NaN	0.000000	0.001600	0.001731	28.0801	91.3197	0.001711	53374.8	5.096027	171.873	424.477	1.107353	0.095142	0.094756	428.687	53374.8	0.089118	0.250436	1711.76	97445.3
673	2.000000	1.109734	7.37164e+06	-43439.1	1005.82	-29779.2	0.000000	0.000000	7.127580	438.749	NaN	0.000000	0.001580	0.001773	28.0795	94.4673	0.001852	51010.1	6.351635	170.585	435.322	1.109536	0.097136	0.096939	438.749	51010.1	0.090686	0.258268	1698.81	91705.2
673	2.000000	1.111785	7.37164e+06	-43439.1	1005.82	-29779.2	0.000000	0.000000	7.130538	460.792	NaN	0.000000	0.001588	0.001722	28.0794	95.4756	0.001720	55504.4	4.664923	172.291	458.16	1.111463	0.099188	0.098866	460.792	55504.4	0.092962	0.269841	1707.64	97621.7
673	2.000000	1.113721	7.37164e+06	-43439.1	1005.82	-29779.2	0.000000	0.000000	7.133057	474.997	NaN	0.000000	0.001544	0.001745	28.0807	97.5805	0.001771	55110.6	5.678555	170.623	471.85	1.113352	0.101124	0.100755	474.997	55110.6	0.094660	0.278628	1704.77	95388.6
673	2.000000	1.115718	7.37164e+06	-43439.1	1005.82	-29779.2	0.000000	0.000000	7.135819	493.609	NaN	0.000000	0.001575	0.001754	28.0811	100.057	0.001835	54522.3	7.798831	168.376	489.882	1.115487	0.103121	0.102890	493.609	54522.3	0.096331	0.287403	1717.48	92918.4
673	2.000000	1.117780	7.37164e+06	-43439.1	1005.82	-29779.2	0.000000	0.000000	7.138832	516.751	NaN	0.000000	0.001600	0.001749	28.0809	99.9519	0.001667	59973.8	4.498283	171.921	516.849	1.117413	0.105183	0.104816	516.751	59973.8	0.098720	0.300174	1721.5	100011
673	2.000000	1.118776	7.37164e+06	-43439.1	1005.82	-29779.2	0.000000	0.000000	7.139937	519.405	NaN	0.000000	0.001600	0.001736	28.0807	102.407	0.001748	58601	6.135594	169.761	517.524	1.118473	0.106179	0.105876	519.405	58601	0.099531	0.304567	1705.39	97014.6