File: remote_trans/data/nanoindenter/0828-1/data/Data_2025-08-06,11h17m57s/2025-07-22_16-23-58_1_423.txt
2025-07-22, 16:23:58, 1
Index	Phase	Displacement	Time	Pos X	Pos Y	Pos Z	Rot A	Rot B	Piezo Z	Force A	Force B	Gripper	Voltage A	Voltage B	Temperature	Amplitude force	Amplitude pos	Stiffness	Phase shift	Phase excitation	Force A raw	Displacement raw	HMax	HMax raw	Real Force	Real Stiffness	Contact Depth	Area	Hardness	Reduced Mod.
[#]	[#]	[um]	[s]	[um]	[um]	[um]	[m°]	[m°]	[um]	[uN]	[uN]	[V]	[V]	[V]	[°C]	[uN]	[um]	[N/m]	[°]	[°]	[uN]	[um]	[um]	[um]	[uN]	[N/m]	[um]	[um^2]	[MPa]	[MPa]
423	1.000000	0.002587	7.3692e+06	-55939.1	1005.82	-29740.4	0.000000	0.000000	6.002788	-0.033410	NaN	0.000000	0.001554	0.001716	28.0808	0.026211	0.000975	26.8893	142.626	-164.003	-0.022785	0.001359	-1.074058	-1.075285	-0.033410	26.8893	-1.073126	-2.183685E+14	1.529973E-16	NaN
423	1.000000	0.010567	7.3692e+06	-55939.1	1005.82	-29740.4	0.000000	0.000000	6.010768	-0.053219	NaN	0.000000	0.001623	0.001742	28.0806	0.082879	0.000966	85.755	-89.6305	-164.157	-0.025821	0.009265	-1.066077	-1.067379	-0.053219	85.755	-1.065612	-1.730743E+14	3.074915E-16	NaN
423	1.000000	0.018551	7.3692e+06	-55939.1	1005.82	-29740.4	0.000000	0.000000	6.018753	-0.045716	NaN	0.000000	0.001603	0.001790	28.0796	0.089196	0.001622	54.9968	-80.2702	-165.406	-0.086391	0.017227	-1.058094	-1.059418	-0.045716	54.9968	-1.057470	-1.345308E+14	3.398168E-16	NaN
423	1.000000	0.026571	7.3692e+06	-55939.1	1005.82	-29740.4	0.000000	0.000000	6.026772	-0.059241	NaN	0.000000	0.001638	0.001768	28.0798	0.066328	0.001822	36.4013	-114.358	-164.805	-0.039166	0.025193	-1.050074	-1.051452	-0.059241	36.4013	-1.048853	-1.030382E+14	5.749429E-16	NaN
423	1.000000	0.034550	7.3692e+06	-55939.1	1005.82	-29740.4	0.000000	0.000000	6.034747	-0.136035	NaN	0.000000	0.001606	0.001736	28.0798	0.137949	0.002056	67.0943	-120.256	-165.697	-0.081491	0.033232	-1.042095	-1.043413	-0.136035	67.0943	-1.040575	-7.974315E+13	1.705912E-15	NaN
423	1.000000	0.042565	7.3692e+06	-55939.1	1005.82	-29740.4	0.000000	0.000000	6.042764	-0.093159	NaN	0.000000	0.001573	0.001759	28.0798	0.048378	0.001963	24.649	-39.9499	-164.288	-0.119099	0.041242	-1.034080	-1.035403	-0.093159	24.649	-1.031246	-5.973586E+13	1.559513E-15	NaN
423	1.000000	0.050519	7.3692e+06	-55939.1	1005.82	-29740.4	0.000000	0.000000	6.050721	-0.046645	NaN	0.000000	0.001562	0.001702	28.0799	0.044739	0.001858	24.0744	96.9297	-164.015	-0.052660	0.049231	-1.026125	-1.027414	-0.046645	24.0744	-1.024672	-4.873194E+13	9.571732E-16	NaN
423	1.000000	0.058587	7.3692e+06	-55939.1	1005.82	-29740.4	0.000000	0.000000	6.058790	-0.011561	NaN	0.000000	0.001621	0.001712	28.0801	0.021588	0.002075	10.4045	89.782	-165.025	-0.016282	0.057275	-1.018058	-1.019369	-0.011561	10.4045	-1.017224	-3.869051E+13	2.988015E-16	NaN
423	1.000000	0.066565	7.3692e+06	-55939.1	1005.82	-29740.4	0.000000	0.000000	6.066766	-0.046843	NaN	0.000000	0.001593	0.001735	28.0797	0.075906	0.002061	36.8209	-12.5217	-168.208	-0.013328	0.065238	-1.010080	-1.011407	-0.046843	36.8209	-1.009126	-3.010379E+13	1.556035E-15	NaN
423	1.000000	0.074537	7.3692e+06	-55939.1	1005.82	-29740.4	0.000000	0.000000	6.074741	0.029513	NaN	0.000000	0.001610	0.001752	28.0795	0.035378	0.001936	18.2704	-120.791	-162.504	-0.010047	0.073224	-1.002108	-1.003421	0.029513	18.2704	-1.003320	-2.514558E+13	-1.173678E-15	NaN
423	1.000000	0.082551	7.3692e+06	-55939.1	1005.82	-29740.4	0.000000	0.000000	6.082751	-0.086762	NaN	0.000000	0.001598	0.001744	28.0797	0.057374	0.002085	27.517	145.103	-165.627	-0.094952	0.081270	-0.994094	-0.995375	-0.086762	27.517	-0.991729	-1.755486E+13	4.942327E-15	NaN
423	1.000000	0.090551	7.3692e+06	-55939.1	1005.82	-29740.4	0.000000	0.000000	6.090751	-0.059124	NaN	0.000000	0.001598	0.001727	28.0801	0.054165	0.002074	26.1202	-72.6007	-164.802	0.002760	0.089290	-0.986094	-0.987354	-0.059124	26.1202	-0.984397	-1.398423E+13	4.227874E-15	NaN
423	1.000000	0.098553	7.3692e+06	-55939.1	1005.82	-29740.4	0.000000	0.000000	6.098753	-0.071732	NaN	0.000000	0.001617	0.001730	28.0799	0.101188	0.001879	53.8503	-148.377	-168.043	-0.149801	0.097226	-0.978092	-0.979418	-0.071732	53.8503	-0.977093	-1.114910E+13	6.433924E-15	NaN
423	1.000000	0.106589	7.3692e+06	-55939.1	1005.82	-29740.4	0.000000	0.000000	6.106791	-0.038115	NaN	0.000000	0.001600	0.001767	28.08	0.087501	0.001942	45.0458	54.2282	-164.664	-0.066995	0.105300	-0.970056	-0.971345	-0.038115	45.0458	-0.969421	-8.787468E+12	4.337423E-15	NaN
423	1.000000	0.114565	7.3692e+06	-55939.1	1005.82	-29740.4	0.000000	0.000000	6.114770	0.023300	NaN	0.000000	0.001642	0.001727	28.0799	0.042871	0.002018	21.2415	0.504957	-168.711	-0.028906	0.113320	-0.962079	-0.963325	0.023300	21.2415	-0.962902	-7.177824E+12	-3.246135E-15	NaN
423	1.000000	0.122603	7.3692e+06	-55939.1	1005.82	-29740.4	0.000000	0.000000	6.122805	-0.009411	NaN	0.000000	0.001581	0.001730	28.08	0.059343	0.001985	29.898	-179.128	-162.023	0.007126	0.121268	-0.954042	-0.955377	-0.009411	29.898	-0.953806	-5.411990E+12	1.738841E-15	NaN
423	1.000000	0.130606	7.3692e+06	-55939.1	1005.82	-29740.4	0.000000	0.000000	6.130807	-0.052220	NaN	0.000000	0.001586	0.001700	28.0801	0.067109	0.001979	33.9184	141.533	-164.082	-0.050346	0.129278	-0.946039	-0.947367	-0.052220	33.9184	-0.944884	-4.102319E+12	1.272934E-14	NaN
423	1.000000	0.138571	7.3692e+06	-55939.1	1005.82	-29740.4	0.000000	0.000000	6.138773	-0.023579	NaN	0.000000	0.001585	0.001750	28.08	0.060314	0.002094	28.8012	170.539	-163.408	-0.043795	0.137239	-0.938074	-0.939406	-0.023579	28.8012	-0.937460	-3.257352E+12	7.238648E-15	NaN
423	1.000000	0.146566	7.3692e+06	-55939.1	1005.82	-29740.4	0.000000	0.000000	6.146766	-0.081896	NaN	0.000000	0.001563	0.001718	28.0801	0.042688	0.001959	21.7922	166.392	-167.457	-0.004130	0.145273	-0.930079	-0.931372	-0.081896	21.7922	-0.927260	-2.372548E+12	3.451835E-14	NaN
423	1.000000	0.154572	7.3692e+06	-55939.1	1005.82	-29740.4	0.000000	0.000000	6.154772	-0.082326	NaN	0.000000	0.001603	0.001737	28.0813	0.044014	0.001863	23.6292	-22.264	-165.509	-0.013592	0.153244	-0.922072	-0.923400	-0.082326	23.6292	-0.919459	-1.861688E+12	4.422115E-14	NaN
423	1.000000	0.162606	7.3692e+06	-55939.1	1005.82	-29740.4	0.000000	0.000000	6.162808	-0.029923	NaN	0.000000	0.001601	0.001778	28.0814	0.081509	0.002072	39.3415	-159.196	-160.539	-0.012121	0.161258	-0.914039	-0.915387	-0.029923	39.3415	-0.913468	-1.545284E+12	1.936393E-14	NaN
423	1.000000	0.170597	7.3692e+06	-55939.1	1005.82	-29740.4	0.000000	0.000000	6.170799	-0.011981	NaN	0.000000	0.001588	0.001731	28.0813	0.018413	0.002074	8.878115	-117.154	-164.933	0.029054	0.169266	-0.906048	-0.907378	-0.011981	8.878115	-0.905036	-1.188795E+12	1.007863E-14	NaN
423	1.000000	0.178602	7.3692e+06	-55939.1	1005.82	-29740.4	0.000000	0.000000	6.178805	-0.007012	NaN	0.000000	0.001599	0.001709	28.0811	0.043229	0.001970	21.9452	-12.7239	-163.4	-0.055685	0.177323	-0.898043	-0.899322	-0.007012	21.9452	-0.897803	-9.492416E+11	7.386853E-15	NaN
423	1.000000	0.186594	7.3692e+06	-55939.1	1005.82	-29740.4	0.000000	0.000000	6.186795	-0.065531	NaN	0.000000	0.001574	0.001771	28.0813	0.036168	0.002029	17.8294	-157.679	-165.169	-0.051502	0.185277	-0.890051	-0.891367	-0.065531	17.8294	-0.887294	-6.844385E+11	9.574424E-14	NaN
423	1.000000	0.194616	7.3692e+06	-55939.1	1005.82	-29740.4	0.000000	0.000000	6.194817	-0.051125	NaN	0.000000	0.001583	0.001735	28.0811	0.027158	0.002020	13.4426	105.3	-166.522	-0.058719	0.193300	-0.882029	-0.883344	-0.051125	13.4426	-0.879176	-5.315820E+11	9.617472E-14	NaN
423	1.000000	0.202627	7.3692e+06	-55939.1	1005.82	-29740.4	0.000000	0.000000	6.202830	0.006685	NaN	0.000000	0.001532	0.001722	28.0811	0.034751	0.002068	16.8042	-41.2345	-167.904	-0.039194	0.201329	-0.874018	-0.875316	0.006685	16.8042	-0.874316	-4.569135E+11	-1.463081E-14	NaN
423	1.000000	0.210607	7.3692e+06	-55939.1	1005.82	-29740.4	0.000000	0.000000	6.210809	-0.034246	NaN	0.000000	0.001587	0.001699	28.0813	0.047633	0.002027	23.5005	39.6947	-167.233	-0.007724	0.209307	-0.866037	-0.867337	-0.034246	23.5005	-0.864944	-3.412227E+11	1.003634E-13	NaN
423	1.000000	0.218589	7.3692e+06	-55939.1	1005.82	-29740.4	0.000000	0.000000	6.218789	-0.071115	NaN	0.000000	0.001586	0.001757	28.0812	0.059693	0.002063	28.9383	-139.334	-164.865	0.010403	0.217316	-0.858056	-0.859329	-0.071115	28.9383	-0.856213	-2.599326E+11	2.735905E-13	NaN
423	1.000000	0.226600	7.3692e+06	-55939.1	1005.82	-29740.4	0.000000	0.000000	6.226803	-0.016420	NaN	0.000000	0.001600	0.001741	28.0813	0.109681	0.002075	52.8629	-126.828	-164.27	-0.069854	0.225324	-0.850045	-0.851321	-0.016420	52.8629	-0.849812	-2.129063E+11	7.712523E-14	NaN
423	1.000000	0.234611	7.3692e+06	-55939.1	1005.82	-29740.5	0.000000	0.000000	6.234811	-0.063644	NaN	0.000000	0.001614	0.001749	28.0813	0.098514	0.001839	53.5822	-25.92	-163.615	-0.047454	0.233340	-0.842034	-0.843305	-0.063644	53.5822	-0.841143	-1.624727E+11	3.917199E-13	NaN
423	1.000000	0.242614	7.3692e+06	-55939.1	1005.82	-29740.5	0.000000	0.000000	6.242818	0.009047	NaN	0.000000	0.001598	0.001724	28.0816	0.081823	0.001973	41.4682	-133.492	-164.712	0.054615	0.241311	-0.834031	-0.835334	0.009047	41.4682	-0.834194	-1.308062E+11	-6.916525E-14	NaN
423	1.000000	0.250621	7.3692e+06	-55939.1	1005.82	-29740.5	0.000000	0.000000	6.250819	-0.111224	NaN	0.000000	0.001610	0.001735	28.0811	0.078976	0.002045	38.6264	38.5992	-164.103	-0.165833	0.249267	-0.826024	-0.827377	-0.111224	38.6264	-0.823864	-9.475687E+10	1.173778E-12	NaN
423	1.000000	0.258650	7.3692e+06	-55939.1	1005.82	-29740.5	0.000000	0.000000	6.258850	-0.071265	NaN	0.000000	0.001591	0.001731	28.0812	0.084388	0.002066	40.8541	144.238	-164.25	0.008794	0.257322	-0.817995	-0.819323	-0.071265	40.8541	-0.816687	-7.573195E+10	9.410226E-13	NaN
423	1.000000	0.266651	7.3692e+06	-55939.1	1005.82	-29740.5	0.000000	0.000000	6.266854	-0.004589	NaN	0.000000	0.001600	0.001734	28.0811	0.062293	0.001996	31.2094	5.995341	-166.13	-0.016551	0.265399	-0.809994	-0.811246	-0.004589	31.2094	-0.809884	-6.123437E+10	7.493889E-14	NaN
423	1.000000	0.274633	7.3692e+06	-55939.1	1005.82	-29740.5	0.000000	0.000000	6.274834	-0.060443	NaN	0.000000	0.001593	0.001723	28.0811	0.084919	0.001863	45.5804	19.8271	-165.761	-0.106106	0.273309	-0.802012	-0.803336	-0.060443	45.5804	-0.801017	-4.641618E+10	1.302190E-12	NaN
423	1.000000	0.282646	7.3692e+06	-55939.1	1005.82	-29740.5	0.000000	0.000000	6.282847	-0.045398	NaN	0.000000	0.001543	0.001706	28.0814	0.037262	0.002044	18.2295	86.1982	-159.845	-0.074454	0.281320	-0.793999	-0.795325	-0.045398	18.2295	-0.792131	-3.515799E+10	1.291271E-12	NaN
423	1.000000	0.290630	7.3692e+06	-55939.1	1005.82	-29740.5	0.000000	0.000000	6.290834	0.008916	NaN	0.000000	0.001568	0.001747	28.0802	0.059407	0.001970	30.1565	-55.7298	-165.836	-0.010894	0.289272	-0.786015	-0.787373	0.008916	30.1565	-0.786236	-2.923907E+10	-3.049513E-13	NaN
423	1.000000	0.298654	7.3692e+06	-55939.1	1005.82	-29740.5	0.000000	0.000000	6.298860	0.062035	NaN	0.000000	0.001545	0.001729	28.0799	0.064220	0.002083	30.8283	-129.205	-164.822	0.061295	0.297359	-0.777991	-0.779286	0.062035	30.8283	-0.779500	-2.368284E+10	-2.619389E-12	NaN
423	1.000000	0.306626	7.3692e+06	-55939.1	1005.82	-29740.5	0.000000	0.000000	6.306827	-0.040840	NaN	0.000000	0.001527	0.001738	28.0797	0.096094	0.001937	49.6151	-62.4273	-165.09	-0.058994	0.305348	-0.770019	-0.771297	-0.040840	49.6151	-0.769402	-1.726519E+10	2.365440E-12	NaN
423	1.000000	0.314651	7.3692e+06	-55939.1	1005.82	-29740.5	0.000000	0.000000	6.314854	0.006011	NaN	0.000000	0.001537	0.001749	28.0797	0.068077	0.001860	36.5938	-73.747	-166.318	-0.148928	0.313301	-0.761994	-0.763343	0.006011	36.5938	-0.762117	-1.374374E+10	-4.373924E-13	NaN
423	1.000000	0.322639	7.3692e+06	-55939.1	1005.82	-29740.5	0.000000	0.000000	6.322843	0.002802	NaN	0.000000	0.001574	0.001706	28.0799	0.055772	0.001945	28.6674	33.8885	-166.264	-0.053530	0.321383	-0.754006	-0.755262	0.002802	28.6674	-0.754079	-1.068404E+10	-2.622390E-13	NaN
423	1.000000	0.330619	7.3692e+06	-55939.1	1005.82	-29740.5	0.000000	0.000000	6.330821	-0.024771	NaN	0.000000	0.001594	0.001744	28.08	0.079702	0.002072	38.4677	148.759	-159.484	-0.019051	0.329366	-0.746026	-0.747279	-0.024771	38.4677	-0.745543	-8.175987E+9	3.029761E-12	NaN
423	1.000000	0.338669	7.3692e+06	-55939.1	1005.82	-29740.5	0.000000	0.000000	6.338871	-0.009228	NaN	0.000000	0.001586	0.001720	28.0796	0.117515	0.002116	55.5462	-175.367	-164.225	-0.118002	0.337423	-0.737976	-0.739222	-0.009228	55.5462	-0.737852	-6.423792E+9	1.436604E-12	NaN
423	1.000000	0.346678	7.3692e+06	-55939.1	1005.82	-29740.5	0.000000	0.000000	6.346880	-0.022019	NaN	0.000000	0.001548	0.001737	28.0796	0.084787	0.002046	41.432	131.351	-166.414	0.016938	0.345357	-0.729967	-0.731288	-0.022019	41.432	-0.729568	-4.953639E+9	4.445090E-12	NaN
423	1.000000	0.354675	7.3692e+06	-55939.1	1005.82	-29740.5	0.000000	0.000000	6.354874	-0.091497	NaN	0.000000	0.001560	0.001697	28.0797	0.018188	0.001971	9.228204	106.844	-162.782	-0.045834	0.353350	-0.721970	-0.723295	-0.091497	9.228204	-0.714534	-3.089689E+9	2.961374E-11	NaN
423	1.000000	0.362685	7.3692e+06	-55939.1	1005.82	-29740.5	0.000000	0.000000	6.362889	0.024873	NaN	0.000000	0.001590	0.001697	28.0798	0.028417	0.001941	14.6409	-37.5154	-161.167	-0.101997	0.361384	-0.713960	-0.715261	0.024873	14.6409	-0.715234	-3.158420E+9	-7.875002E-12	NaN
423	1.000000	0.370689	7.3692e+06	-55939.1	1005.82	-29740.5	0.000000	0.000000	6.370892	0.002328	NaN	0.000000	0.001582	0.001686	28.0801	0.007886	0.002000	3.942581	-124.788	-164.587	-0.012473	0.369336	-0.705956	-0.707309	0.002328	3.942581	-0.706399	-2.392753E+9	-9.730267E-13	NaN
423	1.000000	0.378674	7.3692e+06	-55939.1	1005.82	-29740.5	0.000000	0.000000	6.378877	-0.001374	NaN	0.000000	0.001531	0.001683	28.0799	0.057117	0.002046	27.9157	-140.931	-163.353	-0.107904	0.377351	-0.697971	-0.699294	-0.001374	27.9157	-0.697934	-1.833654E+9	7.494579E-13	NaN
423	1.000000	0.386666	7.3692e+06	-55939.1	1005.82	-29740.5	0.000000	0.000000	6.386867	-0.048993	NaN	0.000000	0.001585	0.001687	28.0799	0.055769	0.002098	26.5849	-59.381	-163.754	-0.055624	0.385398	-0.689979	-0.691247	-0.048993	26.5849	-0.688597	-1.366922E+9	3.584197E-11	NaN
423	1.000000	0.394684	7.3692e+06	-55939.1	1005.82	-29740.5	0.000000	0.000000	6.394885	-0.067136	NaN	0.000000	0.001567	0.001685	28.08	0.059564	0.001994	29.8656	-16.5222	-167.88	-0.021206	0.393382	-0.681961	-0.683263	-0.067136	29.8656	-0.680275	-1.051872E+9	6.382570E-11	NaN
423	1.000000	0.402678	7.3692e+06	-55939.1	1005.82	-29740.5	0.000000	0.000000	6.402880	-0.029850	NaN	0.000000	0.001500	0.001693	28.08	0.021474	0.002061	10.4202	-84.8551	-166.681	0.070232	0.401407	-0.673967	-0.675238	-0.029850	10.4202	-0.671819	-8.059016E+8	3.703966E-11	NaN
423	1.000000	0.410677	7.3692e+06	-55939.1	1005.82	-29740.5	0.000000	0.000000	6.410880	0.002708	NaN	0.000000	0.001539	0.001700	28.0798	0.061584	0.002054	29.9767	5.703166	-162.97	-0.029017	0.409424	-0.665968	-0.667221	0.002708	29.9767	-0.666036	-6.716239E+8	-4.031321E-12	NaN
423	1.000000	0.418706	7.3692e+06	-55939.1	1005.82	-29740.5	0.000000	0.000000	6.418909	-0.000328	NaN	0.000000	0.001608	0.001704	28.0799	0.009124	0.001932	4.722534	2.856288	-167.671	-0.035400	0.417445	-0.657939	-0.659200	-0.000328	4.722534	-0.657887	-5.194295E+8	6.309197E-13	NaN
423	1.000000	0.426735	7.3692e+06	-55939.1	1005.82	-29740.5	0.000000	0.000000	6.426937	-0.046412	NaN	0.000000	0.001587	0.001687	28.081	0.076445	0.001993	38.3524	36.9606	-163.789	-0.012487	0.425405	-0.649909	-0.651240	-0.046412	38.3524	-0.649002	-3.924217E+8	1.182698E-10	NaN
423	1.000000	0.434714	7.3692e+06	-55939.1	1005.82	-29740.5	0.000000	0.000000	6.434916	-0.019985	NaN	0.000000	0.001573	0.001684	28.0808	0.083357	0.002068	40.3151	-87.3292	-167.697	-0.025888	0.433430	-0.641931	-0.643215	-0.019985	40.3151	-0.641559	-3.102262E+8	6.442190E-11	NaN
423	1.000000	0.442718	7.3692e+06	-55939.1	1005.82	-29740.5	0.000000	0.000000	6.442920	-0.044912	NaN	0.000000	0.001568	0.001637	28.0809	0.091712	0.002095	43.7782	-79.4389	-164.667	-0.033211	0.441456	-0.633927	-0.635188	-0.044912	43.7782	-0.633157	-2.378883E+8	1.887959E-10	NaN
423	1.000000	0.450710	7.3692e+06	-55939.1	1005.82	-29740.5	0.000000	0.000000	6.450912	-0.012801	NaN	0.000000	0.001581	0.001674	28.0809	0.126727	0.002050	61.8151	-5.612139	-165.034	-0.042778	0.449420	-0.625935	-0.627225	-0.012801	61.8151	-0.625780	-1.883912E+8	6.794761E-11	NaN
423	1.000000	0.458714	7.3692e+06	-55939.1	1005.82	-29740.5	0.000000	0.000000	6.458918	-0.000355	NaN	0.000000	0.001535	0.001666	28.081	0.032906	0.002048	16.0643	97.8154	-162.53	0.028294	0.457412	-0.617930	-0.619233	-0.000355	16.0643	-0.617914	-1.468780E+8	2.416308E-12	NaN
423	1.000000	0.466712	7.3692e+06	-55939.1	1005.82	-29740.5	0.000000	0.000000	6.466915	0.000416	NaN	0.000000	0.001565	0.001723	28.081	0.020559	0.002002	10.268	74.3546	-163.974	-0.019171	0.465427	-0.609933	-0.611218	0.000416	10.268	-0.609963	-1.141841E+8	-3.646579E-12	NaN
423	1.000000	0.474711	7.3692e+06	-55939.1	1005.82	-29740.5	0.000000	0.000000	6.474914	0.002050	NaN	0.000000	0.001601	0.001696	28.0809	0.075279	0.001931	38.9798	-120.376	-165.154	-0.086573	0.473409	-0.601934	-0.603236	0.002050	38.9798	-0.601974	-8.864247E+7	-2.312987E-11	NaN
423	1.000000	0.482734	7.3692e+06	-55939.1	1005.82	-29740.5	0.000000	0.000000	6.482938	0.016928	NaN	0.000000	0.001594	0.001699	28.0808	0.038595	0.002008	19.222	-34.4607	-166.178	-0.002449	0.481461	-0.593911	-0.595184	0.016928	19.222	-0.594571	-7.009255E+7	-2.415104E-10	NaN
423	1.000000	0.490719	7.3692e+06	-55939.1	1005.82	-29740.5	0.000000	0.000000	6.490920	-0.040938	NaN	0.000000	0.001646	0.001729	28.0807	0.090701	0.002023	44.8397	157.409	-165.665	-0.031881	0.489404	-0.585926	-0.587241	-0.040938	44.8397	-0.585241	-5.212475E+7	7.853939E-10	NaN
423	1.000000	0.498737	7.3692e+06	-55939.1	1005.82	-29740.5	0.000000	0.000000	6.498938	-0.059870	NaN	0.000000	0.001573	0.001708	28.0809	0.078175	0.001929	40.5347	-105.799	-167.909	-0.029907	0.497442	-0.577908	-0.579203	-0.059870	40.5347	-0.576800	-3.986170E+7	1.501934E-9	NaN
423	1.000000	0.506728	7.3692e+06	-55939.1	1005.82	-29740.5	0.000000	0.000000	6.506928	-0.076217	NaN	0.000000	0.001532	0.001658	28.0809	0.014241	0.001969	7.230749	-42.4876	-165.43	-0.026952	0.505400	-0.569917	-0.571245	-0.076217	7.230749	-0.562012	-2.490018E+7	3.060893E-9	NaN
423	1.000000	0.514749	7.3692e+06	-55939.1	1005.82	-29740.5	0.000000	0.000000	6.514951	-0.023690	NaN	0.000000	0.001582	0.001670	28.0812	0.061538	0.001996	30.8266	-140.718	-164.144	-0.056977	0.513386	-0.561896	-0.563259	-0.023690	30.8266	-0.561319	-2.435727E+7	9.726029E-10	NaN
423	1.000000	0.522765	7.3692e+06	-55939.1	1005.82	-29740.5	0.000000	0.000000	6.522966	-0.067400	NaN	0.000000	0.001521	0.001690	28.0809	0.054732	0.001956	27.976	-41.4579	-164.054	-0.105680	0.521461	-0.553880	-0.555184	-0.067400	27.976	-0.552073	-1.814099E+7	3.715349E-9	NaN
423	1.000000	0.530778	7.3692e+06	-55939.1	1005.82	-29740.5	0.000000	0.000000	6.530980	-0.025729	NaN	0.000000	0.001564	0.001672	28.0808	0.133529	0.002049	65.169	-72.8332	-167.649	-0.024410	0.529415	-0.545867	-0.547230	-0.025729	65.169	-0.545571	-1.474305E+7	1.745158E-9	NaN
423	1.000000	0.538772	7.3692e+06	-55939.1	1005.82	-29740.5	0.000000	0.000000	6.538972	-0.085125	NaN	0.000000	0.001625	0.001697	28.0809	0.021196	0.002044	10.369	83.1994	-165.875	-0.084827	0.537440	-0.537872	-0.539205	-0.085125	10.369	-0.531715	-9.47095e+06	8.988048E-9	NaN
423	1.000000	0.546750	7.3692e+06	-55939.1	1005.82	-29740.5	0.000000	0.000000	6.546952	-0.006700	NaN	0.000000	0.001603	0.001685	28.081	0.030638	0.002146	14.2787	-83.747	-167.312	0.045308	0.545489	-0.529895	-0.531156	-0.006700	14.2787	-0.529543	-8.83557e+06	7.582719E-10	NaN
423	1.000000	0.554762	7.3692e+06	-55939.1	1005.82	-29740.5	0.000000	0.000000	6.554966	0.019692	NaN	0.000000	0.001584	0.001693	28.081	0.036366	0.002096	17.3487	176.448	-167.837	-0.006561	0.553490	-0.521883	-0.523154	0.019692	17.3487	-0.522734	-7.10581e+06	-2.771206E-9	NaN
423	1.000000	0.562763	7.3692e+06	-55939.1	1005.82	-29740.5	0.000000	0.000000	6.562964	-0.037149	NaN	0.000000	0.001563	0.001663	28.0798	0.060046	0.001933	31.0675	-52.5294	-161.409	-0.045482	0.561460	-0.513882	-0.515185	-0.037149	31.0675	-0.512985	-5.1998e+06	7.144327E-9	NaN
423	1.000000	0.570799	7.3692e+06	-55939.1	1005.82	-29740.5	0.000000	0.000000	6.571002	0.010944	NaN	0.000000	0.001596	0.001665	28.0797	0.068365	0.001984	34.4638	-30.9219	-166.522	-0.010130	0.569426	-0.505846	-0.507219	0.010944	34.4638	-0.506085	-4.16736e+06	-2.626108E-9	NaN
423	1.000000	0.578763	7.3692e+06	-55939.1	1005.82	-29740.5	0.000000	0.000000	6.578967	0.002425	NaN	0.000000	0.001547	0.001667	28.0798	0.007692	0.001988	3.869531	176.854	-165.139	0.030524	0.577520	-0.497882	-0.499125	0.002425	3.869531	-0.498352	-3.25102e+06	-7.460141E-10	NaN
423	1.000000	0.586766	7.3692e+06	-55939.1	1005.82	-29740.5	0.000000	0.000000	6.586970	0.013716	NaN	0.000000	0.001585	0.001700	28.0797	0.035888	0.002072	17.3231	-24.9332	-164.037	0.112360	0.585495	-0.489879	-0.491150	0.013716	17.3231	-0.490473	-2.52346e+06	-5.435361E-9	NaN
423	1.000000	0.594772	7.3692e+06	-55939.1	1005.82	-29740.5	0.000000	0.000000	6.594972	-0.074695	NaN	0.000000	0.001607	0.001640	28.0797	0.025675	0.002017	12.7276	-170.222	-166.691	-0.090398	0.593433	-0.481873	-0.483212	-0.074695	12.7276	-0.477471	-1.66005e+06	4.499534E-8	NaN
423	1.000000	0.602778	7.3692e+06	-55939.1	1005.82	-29740.5	0.000000	0.000000	6.602983	0.037552	NaN	0.000000	0.001569	0.001665	28.0797	0.098309	0.002009	48.9288	-176.203	-165.067	-0.044175	0.601504	-0.473866	-0.475140	0.037552	48.9288	-0.474442	-1.5055e+06	-2.494334E-8	NaN
423	1.000000	0.610763	7.3692e+06	-55939.1	1005.82	-29740.5	0.000000	0.000000	6.610964	-0.058356	NaN	0.000000	0.001598	0.001684	28.0799	0.167178	0.001999	83.6145	166.999	-163.685	-0.051619	0.609419	-0.465882	-0.467226	-0.058356	83.6145	-0.465359	-1.12275e+06	5.197600E-8	NaN
423	1.000000	0.618766	7.3692e+06	-55939.1	1005.82	-29740.5	0.000000	0.000000	6.618968	-0.018716	NaN	0.000000	0.001629	0.001682	28.0799	0.068566	0.002058	33.3189	-25.6052	-165.412	-0.010200	0.617469	-0.457879	-0.459176	-0.018716	33.3189	-0.457457	-869519	2.152484E-8	NaN
423	1.000000	0.626802	7.3692e+06	-55939.1	1005.82	-29740.5	0.000000	0.000000	6.627004	-0.031574	NaN	0.000000	0.001606	0.001655	28.0799	0.028633	0.001953	14.659	-106.008	-162.467	0.056889	0.625455	-0.449843	-0.451190	-0.031574	14.659	-0.448227	-644720	4.897371E-8	NaN
423	1.000000	0.634781	7.3692e+06	-55939.1	1005.82	-29740.5	0.000000	0.000000	6.634983	-0.030027	NaN	0.000000	0.001574	0.001657	28.0799	0.016687	0.002008	8.309521	72.5909	-167.979	0.024579	0.633478	-0.441864	-0.443167	-0.030027	8.309521	-0.439154	-480198	6.252976E-8	NaN
423	1.000000	0.642782	7.3692e+06	-55939.1	1005.82	-29740.5	0.000000	0.000000	6.642986	0.008699	NaN	0.000000	0.001588	0.001648	28.0796	0.050919	0.001958	26.0071	-10.3653	-164.719	-0.020471	0.641513	-0.433863	-0.435132	0.008699	26.0071	-0.434114	-407596	-2.134185E-8	NaN
423	1.000000	0.650795	7.3692e+06	-55939.1	1005.82	-29740.5	0.000000	0.000000	6.650998	-0.012074	NaN	0.000000	0.001616	0.001690	28.0798	0.036058	0.001894	19.0408	-75.9069	-165.012	-0.019276	0.649434	-0.425850	-0.427211	-0.012074	19.0408	-0.425374	-306608	3.937863E-8	NaN
423	1.000000	0.658797	7.3692e+06	-55939.1	1005.82	-29740.5	0.000000	0.000000	6.658997	-0.063899	NaN	0.000000	0.001603	0.001697	28.0797	0.051625	0.002103	24.5423	58.6016	-163.99	-0.047693	0.657498	-0.417848	-0.419147	-0.063899	24.5423	-0.415896	-224995	2.840004E-7	NaN
423	1.000000	0.666787	7.3692e+06	-55939.1	1005.82	-29740.5	0.000000	0.000000	6.666991	0.037653	NaN	0.000000	0.001602	0.001660	28.0798	0.122754	0.002061	59.5592	-23.0543	-161.423	0.056213	0.665483	-0.409858	-0.411162	0.037653	59.5592	-0.410332	-187554	-2.007570E-7	NaN
423	1.000000	0.674807	7.3692e+06	-55939.1	1005.82	-29740.5	0.000000	0.000000	6.675012	0.041469	NaN	0.000000	0.001601	0.001694	28.0796	0.114370	0.001989	57.4976	-55.0196	-164.667	0.052124	0.673495	-0.401838	-0.403149	0.041469	57.4976	-0.402379	-144512	-2.869599E-7	NaN
423	1.000000	0.682811	7.3692e+06	-55939.1	1005.82	-29740.5	0.000000	0.000000	6.683010	-0.095992	NaN	0.000000	0.001608	0.001677	28.0795	0.056540	0.001894	29.8453	35.1308	-163.543	-0.031533	0.681520	-0.393834	-0.395125	-0.095992	29.8453	-0.391422	-100810	9.522053E-7	NaN
423	1.000000	0.690818	7.3692e+06	-55939.1	1005.82	-29740.5	0.000000	0.000000	6.691017	-0.101744	NaN	0.000000	0.001611	0.001711	28.0795	0.101264	0.002120	47.7699	17.8214	-163.397	-0.074276	0.689534	-0.385827	-0.387110	-0.101744	47.7699	-0.384229	-79531.8	1.279292E-6	NaN
423	1.000000	0.698817	7.3692e+06	-55939.1	1005.82	-29740.5	0.000000	0.000000	6.699017	-0.086313	NaN	0.000000	0.001596	0.001692	28.0806	0.127777	0.002039	62.677	-133.91	-164.65	-0.089119	0.697490	-0.377828	-0.379155	-0.086313	62.677	-0.376795	-62210.6	1.387431E-6	NaN
423	1.000000	0.706801	7.3692e+06	-55939.1	1005.82	-29740.5	0.000000	0.000000	6.707000	-0.101990	NaN	0.000000	0.001600	0.001675	28.081	0.047127	0.001864	25.2766	63.1405	-166.361	-0.096678	0.705531	-0.369844	-0.371113	-0.101990	25.2766	-0.366818	-44696	2.281869E-6	NaN
423	1.000000	0.714836	7.3692e+06	-55939.1	1005.82	-29740.5	0.000000	0.000000	6.715040	0.005646	NaN	0.000000	0.001633	0.001673	28.081	0.046956	0.001956	24.0065	-23.1361	-164.357	-0.033391	0.713497	-0.361809	-0.363148	0.005646	24.0065	-0.361985	-38065.4	-1.483323E-7	NaN
423	1.000000	0.722818	7.3692e+06	-55939.1	1005.82	-29740.5	0.000000	0.000000	6.723021	0.003734	NaN	0.000000	0.001594	0.001677	28.0808	0.148042	0.001997	74.1175	-142.257	-163.864	-0.128938	0.721490	-0.353827	-0.355154	0.003734	74.1175	-0.353865	-29043.4	-1.285656E-7	NaN
423	1.000000	0.730870	7.3692e+06	-55939.1	1005.82	-29740.5	0.000000	0.000000	6.731072	-0.014908	NaN	0.000000	0.001608	0.001706	28.0809	0.013450	0.001984	6.779641	-13.1884	-167.783	-0.003049	0.729442	-0.345775	-0.347202	-0.014908	6.779641	-0.344126	-20972.2	7.108523E-7	NaN
423	1.000000	0.738852	7.3692e+06	-55939.1	1005.82	-29740.5	0.000000	0.000000	6.739054	-0.025700	NaN	0.000000	0.001603	0.001680	28.0807	0.081217	0.002096	38.756	70.7601	-165.39	-0.179264	0.737490	-0.337793	-0.339155	-0.025700	38.756	-0.337296	-16676.7	1.541050E-6	NaN
423	1.000000	0.746822	7.3692e+06	-55939.1	1005.82	-29740.5	0.000000	0.000000	6.747023	-0.039102	NaN	0.000000	0.001655	0.001731	28.0812	0.094824	0.002044	46.3983	-157.028	-163.309	0.036446	0.745525	-0.329823	-0.331120	-0.039102	46.3983	-0.329191	-12694	3.080354E-6	NaN
423	1.000000	0.754834	7.3692e+06	-55939.1	1005.82	-29740.5	0.000000	0.000000	6.755037	-0.006371	NaN	0.000000	0.001634	0.001719	28.0813	0.086027	0.002012	42.7557	-18.331	-164.548	0.016173	0.753564	-0.321811	-0.323081	-0.006371	42.7557	-0.321699	-9854.59	6.465108E-7	NaN
423	1.000000	0.762843	7.3692e+06	-55939.1	1005.82	-29740.5	0.000000	0.000000	6.763044	-0.037163	NaN	0.000000	0.001572	0.001672	28.081	0.103647	0.002034	50.9529	141.208	-164.797	-0.062372	0.761508	-0.313802	-0.315137	-0.037163	50.9529	-0.313255	-7399.2	5.022524E-6	NaN
423	1.000000	0.770821	7.3692e+06	-55939.1	1005.82	-29740.5	0.000000	0.000000	6.771021	-0.068765	NaN	0.000000	0.001610	0.001661	28.0811	0.110933	0.002138	51.8957	103.141	-166.6	0.024508	0.769544	-0.305824	-0.307100	-0.068765	51.8957	-0.304830	-5551.85	1.238597E-5	NaN
423	1.000000	0.778849	7.3692e+06	-55939.1	1005.82	-29740.5	0.000000	0.000000	6.779048	-0.111188	NaN	0.000000	0.001596	0.001661	28.081	0.080494	0.001974	40.7781	-54.1084	-165.084	0.012959	0.777524	-0.297795	-0.299121	-0.111188	40.7781	-0.295751	-4067.17	2.733790E-5	NaN
423	1.000000	0.786823	7.3692e+06	-55939.1	1005.82	-29740.5	0.000000	0.000000	6.787026	-0.022809	NaN	0.000000	0.001612	0.001708	28.0811	0.060535	0.001904	31.7916	-144.206	-161.283	-0.084813	0.785574	-0.289822	-0.291071	-0.022809	31.7916	-0.289284	-3255.11	7.007237E-6	NaN
423	1.000000	0.794878	7.3692e+06	-55939.1	1005.82	-29740.5	0.000000	0.000000	6.795081	-0.002576	NaN	0.000000	0.001611	0.001684	28.0813	0.099854	0.002002	49.8737	-0.377949	-162.4	-0.066515	0.793541	-0.281767	-0.283103	-0.002576	49.8737	-0.281728	-2506.23	1.027803E-6	NaN
423	1.000000	0.802858	7.3692e+06	-55939.1	1005.82	-29740.5	0.000000	0.000000	6.803060	-0.020432	NaN	0.000000	0.001592	0.001704	28.0811	0.103854	0.002034	51.0603	112.414	-163.848	-0.072347	0.801547	-0.273787	-0.275098	-0.020432	51.0603	-0.273487	-1881.39	1.086014E-5	NaN
423	1.000000	0.810870	7.3692e+06	-55939.1	1005.82	-29740.5	0.000000	0.000000	6.811072	-0.023019	NaN	0.000000	0.001629	0.001687	28.081	0.053044	0.002023	26.2181	-172.433	-163.592	-0.028429	0.809562	-0.265775	-0.267083	-0.023019	26.2181	-0.265116	-1403.33	1.640343E-5	NaN
423	1.000000	0.818822	7.3692e+06	-55939.1	1005.82	-29740.5	0.000000	0.000000	6.819024	-0.040854	NaN	0.000000	0.001628	0.001690	28.081	0.070522	0.002014	35.0077	128.125	-167.175	-0.108656	0.817597	-0.257823	-0.259048	-0.040854	35.0077	-0.256947	-1052.13	3.882970E-5	NaN
423	1.000000	0.826904	7.3692e+06	-55939.1	1005.82	-29740.5	0.000000	0.000000	6.827108	0.031981	NaN	0.000000	0.001597	0.001706	28.0812	0.113353	0.002019	56.1318	-99.4347	-166.316	0.004019	0.825586	-0.249741	-0.251059	0.031981	56.1318	-0.250168	-827.119	-3.866602E-5	NaN
423	1.000000	0.834865	7.3692e+06	-55939.1	1005.82	-29740.5	0.000000	0.000000	6.835066	-0.049999	NaN	0.000000	0.001611	0.001660	28.0802	0.058042	0.001853	31.327	48.388	-164.393	-0.053856	0.833536	-0.241780	-0.243109	-0.049999	31.327	-0.240583	-587.029	8.517267E-5	NaN
423	1.000000	0.842877	7.3692e+06	-55939.1	1005.82	-29740.5	0.000000	0.000000	6.843080	-0.009616	NaN	0.000000	0.001615	0.001682	28.0796	0.034588	0.002213	15.628	-154.19	-161.425	-0.009517	0.841581	-0.233768	-0.235064	-0.009616	15.628	-0.233306	-451.471	2.129914E-5	NaN
423	1.000000	0.850884	7.3692e+06	-55939.1	1005.82	-29740.5	0.000000	0.000000	6.851084	-0.079057	NaN	0.000000	0.001619	0.001664	28.0796	0.072512	0.002121	34.1926	-135.656	-167.428	-0.036700	0.849564	-0.225760	-0.227081	-0.079057	34.1926	-0.224026	-322.004	0.000246	NaN
423	1.000000	0.858872	7.3692e+06	-55939.1	1005.82	-29740.5	0.000000	0.000000	6.859074	-0.007110	NaN	0.000000	0.001622	0.001660	28.0797	0.080416	0.001940	41.4599	-165.391	-166.367	-0.128668	0.857568	-0.217773	-0.219077	-0.007110	41.4599	-0.217645	-254.672	2.791729E-5	NaN
423	1.000000	0.866895	7.3692e+06	-55939.1	1005.82	-29740.5	0.000000	0.000000	6.867096	-0.053251	NaN	0.000000	0.001624	0.001674	28.0797	0.074770	0.001966	38.0376	-12.4988	-165.055	0.008868	0.865617	-0.209750	-0.211028	-0.053251	38.0376	-0.208700	-182.703	0.000291	NaN
423	1.000000	0.874924	7.3692e+06	-55939.1	1005.82	-29740.5	0.000000	0.000000	6.875124	-0.075526	NaN	0.000000	0.001648	0.001679	28.0797	0.069466	0.002101	33.0619	-10.6491	-165.394	-0.112584	0.873555	-0.201721	-0.203090	-0.075526	33.0619	-0.200007	-131.771	0.000573	NaN
423	1.000000	0.882910	7.3692e+06	-55939.1	1005.82	-29740.5	0.000000	0.000000	6.883112	-0.027794	NaN	0.000000	0.001622	0.001658	28.0798	0.183481	0.002014	91.0813	44.358	-168.055	-0.008267	0.881579	-0.193735	-0.195066	-0.027794	91.0813	-0.193506	-102.903	0.000270	NaN
423	1.000000	0.890876	7.3692e+06	-55939.1	1005.82	-29740.5	0.000000	0.000000	6.891080	0.004619	NaN	0.000000	0.001575	0.001675	28.0796	0.097336	0.001947	49.996	-39.8295	-163.613	0.054431	0.889568	-0.185768	-0.187077	0.004619	49.996	-0.185838	-76.6022	-6.029266E-5	NaN
423	1.000000	0.898874	7.3692e+06	-55939.1	1005.82	-29740.5	0.000000	0.000000	6.899075	-0.042485	NaN	0.000000	0.001602	0.001693	28.0797	0.055048	0.001889	29.1402	-19.204	-164.578	-0.214599	0.897650	-0.177771	-0.178995	-0.042485	29.1402	-0.176677	-53.5495	0.000793	NaN
423	1.000000	0.906946	7.3692e+06	-55939.1	1005.82	-29740.5	0.000000	0.000000	6.907147	-0.054068	NaN	0.000000	0.001642	0.001691	28.0797	0.119423	0.001923	62.09	9.489030	-163.534	-0.064281	0.905604	-0.169699	-0.171041	-0.054068	62.09	-0.169046	-39.5387	0.001367	NaN
423	1.000000	0.914915	7.3692e+06	-55939.1	1005.82	-29740.5	0.000000	0.000000	6.915117	-0.029154	NaN	0.000000	0.001613	0.001700	28.0795	0.021889	0.001916	11.424	-144.756	-164.332	0.029292	0.913573	-0.161730	-0.163072	-0.029154	11.424	-0.159816	-27.2094	0.001071	NaN
423	1.000000	0.922895	7.3692e+06	-55939.1	1005.82	-29740.5	0.000000	0.000000	6.923098	-0.010187	NaN	0.000000	0.001624	0.001672	28.0799	0.090651	0.002196	41.2886	163.518	-163.129	-0.021496	0.921625	-0.153750	-0.155020	-0.010187	41.2886	-0.153565	-21.0234	0.000485	NaN
423	1.000000	0.930916	7.3692e+06	-55939.1	1005.82	-29740.5	0.000000	0.000000	6.931120	0.022827	NaN	0.000000	0.001628	0.001690	28.0797	0.039441	0.002011	19.6145	-168.281	-163.901	0.016408	0.929588	-0.145729	-0.147057	0.022827	19.6145	-0.146601	-15.6937	-0.001455	NaN
423	1.000000	0.938928	7.3692e+06	-55939.1	1005.82	-29740.5	0.000000	0.000000	6.939128	-0.061017	NaN	0.000000	0.001595	0.001689	28.0799	0.008420	0.002074	4.060699	64.0213	-164.748	-0.059103	0.937605	-0.137717	-0.139040	-0.061017	4.060699	-0.126447	-6.494676	0.009395	NaN
423	1.000000	0.946932	7.3692e+06	-55939.1	1005.82	-29740.5	0.000000	0.000000	6.947132	-0.084901	NaN	0.000000	0.001601	0.001689	28.0796	0.106028	0.001917	55.3178	-51.8112	-165.433	-0.089071	0.945644	-0.129713	-0.131001	-0.084901	55.3178	-0.128562	-7.144979	0.011883	NaN
423	1.000000	0.954904	7.3692e+06	-55939.1	1005.82	-29740.5	0.000000	0.000000	6.955107	-0.011553	NaN	0.000000	0.001608	0.001688	28.0796	0.060470	0.001984	30.4812	93.7082	-164.379	-0.003430	0.953549	-0.121741	-0.123096	-0.011553	30.4812	-0.121457	-5.168834	0.002235	NaN
423	1.000000	0.962916	7.3692e+06	-55939.1	1005.82	-29740.5	0.000000	0.000000	6.963118	-0.025657	NaN	0.000000	0.001620	0.001669	28.0797	0.076610	0.001980	38.6987	-89.7121	-164.694	0.046047	0.961615	-0.113729	-0.115030	-0.025657	38.6987	-0.113232	-3.511626	0.007306	NaN
423	1.000000	0.970927	7.3692e+06	-55939.1	1005.82	-29740.5	0.000000	0.000000	6.971131	0.022192	NaN	0.000000	0.001615	0.001648	28.0801	0.077546	0.002022	38.3485	-36.923	-165.224	-0.033667	0.969631	-0.105718	-0.107014	0.022192	38.3485	-0.106152	-2.488779	-0.008917	NaN
423	1.000000	0.978931	7.3692e+06	-55939.1	1005.82	-29740.5	0.000000	0.000000	6.979130	-0.097043	NaN	0.000000	0.001618	0.001691	28.0813	0.152725	0.001963	77.8178	75.9969	-164.891	-0.064119	0.977590	-0.097714	-0.099055	-0.097043	77.8178	-0.096778	-1.547868	0.062695	NaN
423	1.000000	0.986924	7.3692e+06	-55939.1	1005.82	-29740.5	0.000000	0.000000	6.987127	-0.000496	NaN	0.000000	0.001621	0.001717	28.0809	0.046637	0.001965	23.7278	19.1411	-163.131	-0.005777	0.985630	-0.089721	-0.091015	-0.000496	23.7278	-0.089706	-1.063909	0.000466	NaN
423	1.000000	0.994938	7.3692e+06	-55939.1	1005.82	-29740.5	0.000000	0.000000	6.995140	-0.032493	NaN	0.000000	0.001663	0.001660	28.0809	0.048978	0.002054	23.8447	-156.588	-165.261	-0.036757	0.993593	-0.081707	-0.083051	-0.032493	23.8447	-0.080685	-0.643834	0.050468	NaN
423	1.000000	1.002934	7.3692e+06	-55939.1	1005.82	-29740.5	0.000000	0.000000	7.003136	-0.026141	NaN	0.000000	0.001643	0.001698	28.081	0.038567	0.002007	19.2126	135.374	-161.645	-0.008374	1.001653	-0.073711	-0.074992	-0.026141	19.2126	-0.072691	-0.402070	0.065015	NaN
423	1.000000	1.010948	7.3692e+06	-55939.1	1005.82	-29740.5	0.000000	0.000000	7.011151	-0.019804	NaN	0.000000	0.001635	0.001683	28.081	0.009462	0.002025	4.672225	-99.0692	-164.447	0.059382	1.009646	-0.065697	-0.066999	-0.019804	4.672225	-0.062518	-0.212387	0.093244	NaN
423	1.000000	1.018945	7.3692e+06	-55939.1	1005.82	-29740.5	0.000000	0.000000	7.019145	-0.065142	NaN	0.000000	0.001646	0.001634	28.0813	0.069261	0.001896	36.5338	77.0376	-164.108	-0.059546	1.017652	-0.057700	-0.058993	-0.065142	36.5338	-0.056363	-0.141246	0.461193	NaN
423	1.000000	1.026940	7.3692e+06	-55939.1	1005.82	-29740.5	0.000000	0.000000	7.027142	-0.038554	NaN	0.000000	0.001553	0.001640	28.081	0.073483	0.002111	34.8141	-69.0726	-166.881	0.051991	1.025676	-0.049705	-0.050969	-0.038554	34.8141	-0.048874	-0.084359	0.457025	NaN
423	1.000000	1.034942	7.3692e+06	-55939.1	1005.82	-29740.5	0.000000	0.000000	7.035142	-0.064234	NaN	0.000000	0.001575	0.001648	28.0809	0.124556	0.002125	58.606	135.554	-165.812	-0.037041	1.033704	-0.041703	-0.042941	-0.064234	58.606	-0.040881	-0.048101	1.335412	NaN
423	1.000000	1.042928	7.3692e+06	-55939.1	1005.82	-29740.5	0.000000	0.000000	7.043129	-0.064612	NaN	0.000000	0.001602	0.001692	28.0811	0.089253	0.002033	43.9088	-121.654	-168.58	-0.101843	1.041633	-0.033717	-0.035012	-0.064612	43.9088	-0.032613	-0.027288	2.367728	NaN
423	1.000000	1.050970	7.3692e+06	-55939.1	1005.82	-29740.5	0.000000	0.000000	7.051170	-0.080564	NaN	0.000000	0.001590	0.001665	28.081	0.042753	0.001856	23.0296	-48.3488	-165.562	-0.076654	1.049622	-0.025675	-0.027023	-0.080564	23.0296	-0.023051	-0.015022	5.363185	NaN
423	1.000000	1.058978	7.3692e+06	-55939.1	1005.82	-29740.5	0.000000	0.000000	7.059179	-0.050232	NaN	0.000000	0.001616	0.001676	28.0814	0.008768	0.001928	4.547090	52.8121	-164.755	-0.076343	1.057674	-0.017667	-0.018971	-0.050232	4.547090	-0.009382	-0.006033	8.326248	NaN
423	1.000000	1.066993	7.3692e+06	-55939.1	1005.82	-29740.5	0.000000	0.000000	7.067195	-0.028028	NaN	0.000000	0.001648	0.001637	28.0809	0.067721	0.001958	34.5886	-38.7125	-164.618	-0.033342	1.065651	-0.009652	-0.010994	-0.028028	34.5886	-0.009044	-0.005838	4.800695	NaN
423	1.000000	1.074988	7.3692e+06	-55939.1	1005.82	-29740.5	0.000000	0.000000	7.075215	0.580999	NaN	0.000000	0.001612	0.001672	28.0811	0.585577	0.002052	285.394	27.1308	-163.37	0.575539	1.073665	-0.001657	-0.002980	0.580999	285.394	-0.003184	-0.002243	-259.002	NaN
423	1.000000	1.082937	7.3692e+06	-55939.1	1005.82	-29740.5	0.000000	0.000000	7.083283	3.474909	NaN	0.000000	0.001638	0.001687	28.081	4.327956	0.001950	2219.94	9.624119	-168.774	2.203830	1.081696	0.006292	0.005051	3.474909	2219.94	0.005118	0.004242	819.222	31141.8
423	2.000000	1.088562	7.3692e+06	-55939.1	1005.82	-29740.5	0.000000	0.000000	7.089179	10.0599	NaN	0.000000	0.001630	0.001647	28.081	9.881917	0.001658	5961.03	9.685321	-173.63	10.348	1.088141	0.011917	0.011496	10.0599	5961.03	0.010651	0.009914	1014.67	54696.6
423	2.000000	1.090521	7.3692e+06	-55939.1	1005.82	-29740.5	0.000000	0.000000	7.091179	11.0483	NaN	0.000000	0.001604	0.001666	28.0819	11.4474	0.001725	6637.51	10.4105	-174.208	11.152	1.090226	0.013877	0.013581	11.0483	6637.51	0.012628	0.012251	901.81	54788.4
423	2.000000	1.092505	7.3692e+06	-55939.1	1005.82	-29740.5	0.000000	0.000000	7.093361	15.8531	NaN	0.000000	0.001626	0.001669	28.0807	14.6092	0.001752	8336.66	10.505	-175.335	15.0946	1.092090	0.015860	0.015445	15.8531	8336.66	0.014434	0.014538	1090.43	63169.4
423	2.000000	1.094460	7.3692e+06	-55939.1	1005.82	-29740.5	0.000000	0.000000	7.095441	18.9088	NaN	0.000000	0.001666	0.001674	28.0799	16.2516	0.001723	9430.82	6.435349	-173.955	18.606	1.094164	0.017815	0.017519	18.9088	9430.82	0.016311	0.017073	1107.51	65942.2
423	2.000000	1.096409	7.3692e+06	-55939.1	1005.82	-29740.5	0.000000	0.000000	7.097488	21.2758	NaN	0.000000	0.001687	0.001717	28.0799	19.4625	0.001953	9967.98	5.833780	-174.38	18.8668	1.096181	0.019765	0.019536	21.2758	9967.98	0.018164	0.019739	1077.88	64821.8
423	2.000000	1.098439	7.3692e+06	-55939.1	1005.82	-29740.5	0.000000	0.000000	7.099778	27.6237	NaN	0.000000	0.001686	0.001725	28.0797	20.8992	0.001904	10978.2	6.320047	-175.313	26.8904	1.098075	0.021794	0.021430	27.6237	10978.2	0.019907	0.022396	1233.43	67022.2
423	2.000000	1.100404	7.3692e+06	-55939.1	1005.82	-29740.5	0.000000	0.000000	7.101914	31.7671	NaN	0.000000	0.001659	0.001695	28.0805	22.8004	0.001641	13892.3	3.837314	-175.748	30.3001	1.100082	0.023759	0.023437	31.7671	13892.3	0.022044	0.025856	1228.6	78933.6
423	2.000000	1.102464	7.3692e+06	-55939.1	1005.82	-29740.5	0.000000	0.000000	7.104178	36.7246	NaN	0.000000	0.001688	0.001657	28.0798	25.6918	0.001746	14718.6	11.6826	176.803	36.2478	1.102093	0.025819	0.025448	36.7246	14718.6	0.023948	0.029130	1260.72	78789.7
423	2.000000	1.104468	7.3692e+06	-55939.1	1005.82	-29740.5	0.000000	0.000000	7.106332	40.361	NaN	0.000000	0.001669	0.001718	28.0798	28.0522	0.001863	15055.5	7.578984	179.924	41.5998	1.104182	0.027823	0.027537	40.361	15055.5	0.025813	0.032511	1241.47	76287.8
423	2.000000	1.106417	7.3692e+06	-55939.1	1005.82	-29740.5	0.000000	0.000000	7.108625	48.7424	NaN	0.000000	0.001654	0.001688	28.0801	29.2631	0.001805	16209.7	4.137063	-177.4	49.2993	1.106163	0.029772	0.029518	48.7424	16209.7	0.027517	0.035754	1363.27	78322.5
423	2.000000	1.108438	7.3692e+06	-55939.1	1005.82	-29740.5	0.000000	0.000000	7.110951	56.1455	NaN	0.000000	0.001693	0.001699	28.0798	30.9297	0.001704	18146.3	5.051881	-179.285	55.3152	1.108080	0.031794	0.031435	56.1455	18146.3	0.029473	0.039658	1415.72	83251.7
423	2.000000	1.110415	7.3692e+06	-55939.1	1005.82	-29740.5	0.000000	0.000000	7.113133	61.1264	NaN	0.000000	0.001683	0.001713	28.081	32.5581	0.001617	20136.6	2.938794	-178.804	61.3424	1.110092	0.033770	0.033447	61.1264	20136.6	0.031494	0.043897	1392.5	87809.6
423	2.000000	1.112414	7.3692e+06	-55939.1	1005.82	-29740.5	0.000000	0.000000	7.115428	68.3256	NaN	0.000000	0.001690	0.001668	28.0798	35.5504	0.001841	19313.1	4.578881	-178.784	65.6279	1.112068	0.035769	0.035423	68.3256	19313.1	0.033116	0.047450	1439.94	81004
423	2.000000	1.114400	7.3692e+06	-55939.1	1005.82	-29740.5	0.000000	0.000000	7.117715	75.6312	NaN	0.000000	0.001665	0.001688	28.0799	36.9311	0.001858	19872.1	1.650991	-176.094	74.6292	1.114021	0.037755	0.037376	75.6312	19872.1	0.034901	0.051515	1468.13	79992.3
423	2.000000	1.116382	7.3692e+06	-55939.1	1005.82	-29740.5	0.000000	0.000000	7.119934	81.3984	NaN	0.000000	0.001636	0.001710	28.0799	40.3449	0.001775	22725.4	7.018871	175.997	79.7287	1.116126	0.039737	0.039482	81.3984	22725.4	0.037051	0.056629	1437.4	87249.9
423	2.000000	1.118368	7.3692e+06	-55939.1	1005.82	-29740.5	0.000000	0.000000	7.122322	91.1662	NaN	0.000000	0.001643	0.001729	28.08	40.4986	0.001723	23502.8	6.593306	176.58	88.6839	1.118027	0.041723	0.041382	91.1662	23502.8	0.038814	0.060999	1494.56	86942.6
423	2.000000	1.120375	7.3692e+06	-55939.1	1005.82	-29740.5	0.000000	0.000000	7.124516	95.7282	NaN	0.000000	0.001588	0.001688	28.0812	44.031	0.001840	23929.8	2.999857	-179.85	95.2121	1.120118	0.043730	0.043473	95.7282	23929.8	0.040730	0.065928	1452.02	85148.7
423	2.000000	1.122405	7.3692e+06	-55939.1	1005.82	-29740.5	0.000000	0.000000	7.127078	108.636	NaN	0.000000	0.001577	0.001732	28.0807	46.4393	0.001892	24542.3	9.557542	174.639	107.244	1.122001	0.045761	0.045356	108.636	24542.3	0.042441	0.070488	1541.2	84456.1
423	2.000000	1.124363	7.3692e+06	-55939.1	1005.82	-29740.5	0.000000	0.000000	7.129389	117.225	NaN	0.000000	0.001618	0.001696	28.08	48.0496	0.001830	26255.2	4.864882	177.521	115.926	1.124018	0.047718	0.047373	117.225	26255.2	0.044370	0.075808	1546.33	87122.6
423	2.000000	1.126318	7.3692e+06	-55939.1	1005.82	-29740.5	0.000000	0.000000	7.131601	123.475	NaN	0.000000	0.001645	0.001708	28.0801	50.0863	0.001811	27657.5	2.426094	178.967	120.369	1.126190	0.049673	0.049545	123.475	27657.5	0.046325	0.081392	1517.04	88571.8
423	2.000000	1.128424	7.3692e+06	-55939.1	1005.82	-29740.5	0.000000	0.000000	7.134273	137.235	NaN	0.000000	0.001582	0.001719	28.0811	51.9629	0.001819	28563.6	7.870687	174.361	138.747	1.128047	0.051780	0.051403	137.235	28563.6	0.048176	0.086859	1579.97	88547.9
423	2.000000	1.130325	7.3692e+06	-55939.1	1005.82	-29740.5	0.000000	0.000000	7.136716	150.416	NaN	0.000000	0.001556	0.001762	28.082	53.3784	0.001676	31848.6	2.321229	178.465	146.76	1.129950	0.053680	0.053305	150.416	31848.6	0.050138	0.092840	1620.16	95498.5
423	2.000000	1.132415	7.3692e+06	-55939.1	1005.82	-29740.5	0.000000	0.000000	7.139161	159.036	NaN	0.000000	0.001612	0.001723	28.0812	56.6866	0.001814	31249	4.279472	177.935	158.983	1.132011	0.055770	0.055367	159.036	31249	0.051953	0.098545	1613.84	90947.6
423	2.000000	1.134404	7.3692e+06	-55939.1	1005.82	-29740.5	0.000000	0.000000	7.141372	164.431	NaN	0.000000	0.001585	0.001726	28.081	59.1733	0.001937	30556.1	7.490380	173.847	165.347	1.134126	0.057759	0.057481	164.431	30556.1	0.053723	0.104269	1576.99	86456
423	2.000000	1.136319	7.3692e+06	-55939.1	1005.82	-29740.5	0.000000	0.000000	7.143839	177.844	NaN	0.000000	0.001601	0.001759	28.081	59.52	0.001762	33787.3	0.489168	179.731	174.42	1.136074	0.059674	0.059429	177.844	33787.3	0.055727	0.110932	1603.17	92682.5
423	2.000000	1.138397	7.3692e+06	-55939.1	1005.82	-29740.5	0.000000	0.000000	7.146307	187.338	NaN	0.000000	0.001605	0.001771	28.0811	60.5728	0.001674	36180.9	4.724961	174.903	188.381	1.138040	0.061752	0.061395	187.338	36180.9	0.057869	0.118277	1583.89	96117.3
423	2.000000	1.140413	7.3692e+06	-55939.1	1005.82	-29740.5	0.000000	0.000000	7.148822	199.475	NaN	0.000000	0.001617	0.001706	28.0813	64.3895	0.001853	34739.4	5.384212	175.345	202.441	1.140018	0.063768	0.063373	199.475	34739.4	0.059461	0.123883	1610.18	90175.7
423	2.000000	1.142358	7.3692e+06	-55939.1	1005.82	-29740.5	0.000000	0.000000	7.151240	210.962	NaN	0.000000	0.001665	0.001724	28.0812	65.4637	0.001868	35042.6	2.603562	178.015	210.055	1.142040	0.065713	0.065395	210.962	35042.6	0.061198	0.130139	1621.05	88749.4
423	2.000000	1.144339	7.3692e+06	-55939.1	1005.82	-29740.5	0.000000	0.000000	7.153790	224.796	NaN	0.000000	0.001577	0.001697	28.0812	67.3363	0.001740	38690.4	6.142824	172.624	222.202	1.143968	0.067694	0.067323	224.796	38690.4	0.063337	0.138045	1628.43	95140.7
423	2.000000	1.146388	7.3692e+06	-55939.1	1005.82	-29740.5	0.000000	0.000000	7.156142	232.159	NaN	0.000000	0.001575	0.001710	28.0809	69.358	0.001768	39230.8	5.995441	173.236	231.893	1.146043	0.069743	0.069398	232.159	39230.8	0.065304	0.145513	1595.45	93961.3
423	2.000000	1.148261	7.3692e+06	-55939.1	1005.82	-29740.5	0.000000	0.000000	7.158745	249.901	NaN	0.000000	0.001607	0.001702	28.081	69.8942	0.001802	38783.1	2.919330	176.636	244.653	1.147994	0.071616	0.071349	249.901	38783.1	0.066783	0.151249	1652.25	91110.8
423	2.000000	1.150268	7.3692e+06	-55939.1	1005.82	-29740.5	0.000000	0.000000	7.161231	261.538	NaN	0.000000	0.001601	0.001697	28.081	73.0763	0.001850	39507.5	4.532350	174.998	254.844	1.149853	0.073623	0.073208	261.538	39507.5	0.068658	0.158673	1648.28	90615.1
423	2.000000	1.152309	7.3692e+06	-55939.1	1005.82	-29740.5	0.000000	0.000000	7.163787	274.066	NaN	0.000000	0.001580	0.001725	28.0812	75.2298	0.001763	42672.8	3.781056	174.933	269.761	1.151997	0.075664	0.075352	274.066	42672.8	0.070847	0.167551	1635.71	95246.9
423	2.000000	1.154399	7.3692e+06	-55939.1	1005.82	-29740.5	0.000000	0.000000	7.166221	282.437	NaN	0.000000	0.001579	0.001702	28.0813	77.9684	0.001733	44990.7	9.187639	169.233	284.563	1.154022	0.077754	0.077377	282.437	44990.7	0.073045	0.176696	1598.43	97787.2
423	2.000000	1.156418	7.3692e+06	-55939.1	1005.82	-29740.5	0.000000	0.000000	7.168355	285.224	NaN	0.000000	0.001584	0.001688	28.0809	79.9881	0.001813	44115.6	1.000260	176.921	286.438	1.156157	0.079773	0.079512	285.224	44115.6	0.074924	0.184695	1544.3	93786.1
423	2.000000	1.158241	7.3692e+06	-55939.1	1005.82	-29740.5	0.000000	0.000000	7.171388	314.637	NaN	0.000000	0.001597	0.001729	28.0811	80.6485	0.001765	45695.7	5.476850	172.556	308.229	1.158011	0.081596	0.081366	314.637	45695.7	0.076432	0.191231	1645.32	95470.5
423	2.000000	1.160376	7.3692e+06	-55939.1	1005.82	-29740.5	0.000000	0.000000	7.173962	325.296	NaN	0.000000	0.001606	0.001710	28.081	83.8009	0.001751	47848.6	4.673625	173.41	326.799	1.159959	0.083732	0.083314	325.296	47848.6	0.078633	0.200967	1618.65	97516.9
423	2.000000	1.162360	7.3692e+06	-55939.1	1005.82	-29740.5	0.000000	0.000000	7.176534	339.601	NaN	0.000000	0.001584	0.001713	28.0795	85.6518	0.001682	50935.4	4.813528	172.536	338.194	1.162092	0.085715	0.085447	339.601	50935.4	0.080714	0.210383	1614.2	101458
423	2.000000	1.164245	7.3692e+06	-55939.1	1005.82	-29740.5	0.000000	0.000000	7.178833	349.674	NaN	0.000000	0.001584	0.001699	28.0799	87.2304	0.001735	50262.8	6.085134	171.002	345.344	1.163949	0.087600	0.087304	349.674	50262.8	0.082382	0.218072	1603.48	98337.6
423	2.000000	1.166388	7.3692e+06	-55939.1	1005.82	-29740.5	0.000000	0.000000	7.181095	352.552	NaN	0.000000	0.001571	0.001699	28.0798	90.9118	0.001905	47719.2	2.487788	174.793	353.811	1.166264	0.089743	0.089619	352.552	47719.2	0.084202	0.226609	1555.77	91585.6
423	2.000000	1.168332	7.3692e+06	-55939.1	1005.82	-29740.5	0.000000	0.000000	7.184358	384.63	NaN	0.000000	0.001614	0.001686	28.08	91.1281	0.001757	51870.5	5.367640	171.521	384.58	1.168037	0.091687	0.091392	384.63	51870.5	0.086125	0.235799	1631.17	97593.9
423	2.000000	1.170178	7.3692e+06	-55939.1	1005.82	-29740.5	0.000000	0.000000	7.186978	403.43	NaN	0.000000	0.001603	0.001704	28.0795	94.4426	0.001788	52806.2	4.697283	172.5	395.553	1.169856	0.093533	0.093211	403.43	52806.2	0.087803	0.243953	1653.72	97679.8
423	2.000000	1.172405	7.3692e+06	-55939.1	1005.82	-29740.5	0.000000	0.000000	7.189852	419.157	NaN	0.000000	0.001570	0.001703	28.0794	98.3032	0.001935	50792.3	9.227688	168.504	418.493	1.171870	0.095760	0.095225	419.157	50792.3	0.089571	0.252689	1658.79	92316.1
423	2.000000	1.174199	7.3692e+06	-55939.1	1005.82	-29740.5	0.000000	0.000000	7.192073	429.535	NaN	0.000000	0.001602	0.001674	28.0798	97.8279	0.001800	54352.2	2.030221	174.711	422.794	1.173967	0.097555	0.097322	429.535	54352.2	0.091627	0.263028	1633.04	96825.4
423	2.000000	1.176244	7.3692e+06	-55939.1	1005.82	-29740.5	0.000000	0.000000	7.194982	450.546	NaN	0.000000	0.001606	0.001698	28.0795	100.896	0.001973	51128	5.639822	171.49	445.252	1.175968	0.099599	0.099323	450.546	51128	0.092990	0.269984	1668.79	89900.7
423	2.000000	1.178227	7.3692e+06	-55939.1	1005.82	-29740.5	0.000000	0.000000	7.197453	462.383	NaN	0.000000	0.001611	0.001711	28.0799	100.9	0.001732	58271.6	3.538623	173.124	457.647	1.177927	0.101582	0.101283	462.383	58271.6	0.095631	0.283713	1629.76	99951.8
423	2.000000	1.180283	7.3692e+06	-55939.1	1005.82	-29740.5	0.000000	0.000000	7.200344	482.699	NaN	0.000000	0.001590	0.001710	28.0796	102.453	0.001651	62048.2	4.367763	171.414	481.058	1.179922	0.103638	0.103277	482.699	62048.2	0.097804	0.295245	1634.91	104331
423	2.000000	1.182326	7.3692e+06	-55939.1	1005.82	-29740.5	0.000000	0.000000	7.202844	493.818	NaN	0.000000	0.001638	0.001667	28.0796	105.658	0.001851	57075.5	4.407035	171.989	491.686	1.182129	0.105681	0.105484	493.818	57075.5	0.099192	0.302724	1631.25	94776.3
423	2.000000	1.184209	7.3692e+06	-55939.1	1005.82	-29740.5	0.000000	0.000000	7.205360	509.201	NaN	0.000000	0.001623	0.001669	28.0798	106.241	0.001739	61084.6	3.130697	172.807	503.237	1.183954	0.107564	0.107310	509.201	61084.6	0.101312	0.314317	1620.03	99545.4
423	2.000000	1.186522	7.3692e+06	-55939.1	1005.82	-29740.5	0.000000	0.000000	7.207252	498.952	NaN	0.000000	0.001606	0.001669	28.0796	110.365	0.001773	62245.8	3.933535	171.404	507.467	1.186417	0.109877	0.109772	498.952	62245.8	0.103866	0.328552	1518.64	99215.9