File: remote_trans/data/nanoindenter/0828-1/data/Data_2025-08-06,11h17m57s/2025-07-22_16-23-58_1_496.txt
2025-07-22, 16:23:58, 1
Index	Phase	Displacement	Time	Pos X	Pos Y	Pos Z	Rot A	Rot B	Piezo Z	Force A	Force B	Gripper	Voltage A	Voltage B	Temperature	Amplitude force	Amplitude pos	Stiffness	Phase shift	Phase excitation	Force A raw	Displacement raw	HMax	HMax raw	Real Force	Real Stiffness	Contact Depth	Area	Hardness	Reduced Mod.
[#]	[#]	[um]	[s]	[um]	[um]	[um]	[m°]	[m°]	[um]	[uN]	[uN]	[V]	[V]	[V]	[°C]	[uN]	[um]	[N/m]	[°]	[°]	[uN]	[um]	[um]	[um]	[uN]	[N/m]	[um]	[um^2]	[MPa]	[MPa]
496	1.000000	0.002498	7.3699e+06	-52289.1	1005.82	-29749.7	0.000000	0.000000	6.002819	0.134216	NaN	0.000000	0.001659	0.001682	28.0821	0.082731	0.000961	86.074	3.422283	-161.206	0.092509	0.001240	-1.090583	-1.091841	0.134216	86.074	-1.091752	-3.884525E+14	-3.455147E-16	NaN
496	1.000000	0.012539	7.3699e+06	-52289.1	1005.82	-29749.7	0.000000	0.000000	6.012857	0.072188	NaN	0.000000	0.001647	0.001677	28.0818	0.067589	0.001130	59.8239	-114.187	25.8421	0.020654	0.011073	-1.080542	-1.082008	0.072188	59.8239	-1.081447	-2.824578E+14	-2.555695E-16	NaN
496	1.000000	0.022442	7.3699e+06	-52289.1	1005.82	-29749.7	0.000000	0.000000	6.022758	0.039367	NaN	0.000000	0.001606	0.001662	28.0818	0.089517	0.001609	55.6222	126.524	-167.196	0.030135	0.021112	-1.070639	-1.071969	0.039367	55.6222	-1.071170	-2.055437E+14	-1.915255E-16	NaN
496	1.000000	0.032420	7.3699e+06	-52289.1	1005.82	-29749.7	0.000000	0.000000	6.032734	-0.020760	NaN	0.000000	0.001648	0.001661	28.0817	0.016764	0.001925	8.706588	93.0837	16.6107	0.006620	0.031096	-1.060660	-1.061985	-0.020760	8.706588	-1.058872	-1.404961E+14	1.477642E-16	NaN
496	1.000000	0.042439	7.3699e+06	-52289.1	1005.82	-29749.7	0.000000	0.000000	6.042756	0.072829	NaN	0.000000	0.001623	0.001714	28.082	0.050118	0.001926	26.0191	-134.702	-166.361	0.027312	0.041124	-1.050642	-1.051957	0.072829	26.0191	-1.052742	-1.162168E+14	-6.266628E-16	NaN
496	1.000000	0.052459	7.3699e+06	-52289.1	1005.82	-29749.7	0.000000	0.000000	6.052775	0.024697	NaN	0.000000	0.001574	0.001682	28.0814	0.054007	0.001839	29.3738	-171.053	12.8776	-0.028051	0.051064	-1.040622	-1.042017	0.024697	29.3738	-1.041252	-8.143445E+13	-3.032769E-16	NaN
496	1.000000	0.062432	7.3699e+06	-52289.1	1005.82	-29749.7	0.000000	0.000000	6.062750	0.078946	NaN	0.000000	0.001536	0.001737	28.0818	0.066886	0.001953	34.2467	-12.0066	-163.085	0.042359	0.061132	-1.030649	-1.031949	0.078946	34.2467	-1.032378	-6.186822E+13	-1.276028E-15	NaN
496	1.000000	0.072485	7.3699e+06	-52289.1	1005.82	-29749.7	0.000000	0.000000	6.072803	0.079107	NaN	0.000000	0.001502	0.001683	28.0806	0.192426	0.002001	96.1583	-27.3662	16.1541	0.027471	0.071065	-1.020596	-1.022016	0.079107	96.1583	-1.021213	-4.377986E+13	-1.806924E-15	NaN
496	1.000000	0.082424	7.3699e+06	-52289.1	1005.82	-29749.7	0.000000	0.000000	6.082740	0.026825	NaN	0.000000	0.001572	0.001693	28.0807	0.020369	0.001956	10.4142	-68.289	-167.217	0.046319	0.081122	-1.010657	-1.011959	0.026825	10.4142	-1.012589	-3.351385E+13	-8.004084E-16	NaN
496	1.000000	0.092446	7.3699e+06	-52289.1	1005.82	-29749.7	0.000000	0.000000	6.092761	0.013481	NaN	0.000000	0.001514	0.001709	28.0808	0.071153	0.001988	35.7902	130.823	14.8952	0.048940	0.091107	-1.000635	-1.001974	0.013481	35.7902	-1.000917	-2.334097E+13	-5.775521E-16	NaN
496	1.000000	0.102446	7.3699e+06	-52289.1	1005.82	-29749.7	0.000000	0.000000	6.102762	0.027574	NaN	0.000000	0.001532	0.001704	28.0804	0.100986	0.001899	53.1698	-41.8041	-168.59	0.016769	0.101135	-0.990635	-0.991946	0.027574	53.1698	-0.991024	-1.717522E+13	-1.605450E-15	NaN
496	1.000000	0.112468	7.3699e+06	-52289.1	1005.82	-29749.7	0.000000	0.000000	6.112782	-0.005016	NaN	0.000000	0.001530	0.001674	28.0808	0.012431	0.001967	6.320116	-143.856	13.6003	0.004055	0.111100	-0.980613	-0.981981	-0.005016	6.320116	-0.980018	-1.220820E+13	4.108926E-16	NaN
496	1.000000	0.122443	7.3699e+06	-52289.1	1005.82	-29749.7	0.000000	0.000000	6.122758	-0.013962	NaN	0.000000	0.001522	0.001702	28.0805	0.111091	0.002068	53.7114	-130.076	-166.782	0.010329	0.121160	-0.970638	-0.971921	-0.013962	53.7114	-0.970443	-9.070424E+12	1.539295E-15	NaN
496	1.000000	0.132467	7.3699e+06	-52289.1	1005.82	-29749.7	0.000000	0.000000	6.132779	-0.072333	NaN	0.000000	0.001559	0.001699	28.0806	0.041290	0.001971	20.9489	-28.8466	13.9864	0.005185	0.131114	-0.960614	-0.961967	-0.072333	20.9489	-0.958024	-6.169215E+12	1.172477E-14	NaN
496	1.000000	0.142448	7.3699e+06	-52289.1	1005.82	-29749.7	0.000000	0.000000	6.142762	-0.003124	NaN	0.000000	0.001569	0.001696	28.0806	0.071752	0.002084	34.4369	-49.2833	-168.155	0.019925	0.141153	-0.950633	-0.951928	-0.003124	34.4369	-0.950565	-4.893824E+12	6.383897E-16	NaN
496	1.000000	0.152472	7.3699e+06	-52289.1	1005.82	-29749.7	0.000000	0.000000	6.152787	0.001948	NaN	0.000000	0.001565	0.001734	28.0811	0.057144	0.002067	27.6417	39.0716	12.1069	0.020765	0.151075	-0.940609	-0.942006	0.001948	27.6417	-0.940661	-3.598002E+12	-5.414457E-16	NaN
496	1.000000	0.162491	7.3699e+06	-52289.1	1005.82	-29749.7	0.000000	0.000000	6.162807	0.029996	NaN	0.000000	0.001558	0.001703	28.081	0.068207	0.001958	34.8263	33.1785	-163.773	0.101099	0.161204	-0.930590	-0.931877	0.029996	34.8263	-0.931236	-2.684590E+12	-1.117339E-14	NaN
496	1.000000	0.172477	7.3699e+06	-52289.1	1005.82	-29749.7	0.000000	0.000000	6.172797	0.124191	NaN	0.000000	0.001489	0.001693	28.0807	0.089650	0.001983	45.2081	-43.6011	14.4588	0.052663	0.171120	-0.920604	-0.921961	0.124191	45.2081	-0.922664	-2.056722E+12	-6.038316E-14	NaN
496	1.000000	0.182498	7.3699e+06	-52289.1	1005.82	-29749.7	0.000000	0.000000	6.182812	-0.028317	NaN	0.000000	0.001552	0.001733	28.0806	0.106856	0.001842	58.0082	158.053	-161.801	0.007141	0.181196	-0.910583	-0.911885	-0.028317	58.0082	-0.910217	-1.396656E+12	2.027488E-14	NaN
496	1.000000	0.192511	7.3699e+06	-52289.1	1005.82	-29749.7	0.000000	0.000000	6.192824	-0.038491	NaN	0.000000	0.001498	0.001727	28.0807	0.009832	0.002017	4.874139	-97.8256	11.8509	0.015864	0.191138	-0.900570	-0.901943	-0.038491	4.874139	-0.894647	-8.604620E+11	4.473270E-14	NaN
496	1.000000	0.202487	7.3699e+06	-52289.1	1005.82	-29749.7	0.000000	0.000000	6.202801	-0.015847	NaN	0.000000	0.001559	0.001715	28.0818	0.022052	0.001920	11.4829	61.2894	-165.961	-0.100857	0.201234	-0.890594	-0.891847	-0.015847	11.4829	-0.889559	-7.344306E+11	2.157682E-14	NaN
496	1.000000	0.212494	7.3699e+06	-52289.1	1005.82	-29749.7	0.000000	0.000000	6.212809	0.015593	NaN	0.000000	0.001545	0.001737	28.0817	0.030077	0.002029	14.8241	-131.115	17.1444	0.084112	0.211174	-0.880587	-0.881907	0.015593	14.8241	-0.881376	-5.692696E+11	-2.739047E-14	NaN
496	1.000000	0.222528	7.3699e+06	-52289.1	1005.82	-29749.7	0.000000	0.000000	6.222843	0.000607	NaN	0.000000	0.001585	0.001707	28.0817	0.102241	0.001987	51.445	148.26	-167.657	0.009009	0.221212	-0.870553	-0.871869	0.000607	51.445	-0.870562	-4.064868E+11	-1.492612E-15	NaN
496	1.000000	0.232504	7.3699e+06	-52289.1	1005.82	-29749.7	0.000000	0.000000	6.232820	0.022426	NaN	0.000000	0.001563	0.001704	28.0816	0.082499	0.002008	41.0825	118.467	15.0636	-0.006802	0.231146	-0.860577	-0.861935	0.022426	41.0825	-0.860986	-3.016251E+11	-7.434906E-14	NaN
496	1.000000	0.242499	7.36991e+06	-52289.1	1005.82	-29749.7	0.000000	0.000000	6.242815	0.034041	NaN	0.000000	0.001566	0.001719	28.0817	0.040597	0.001989	20.4138	-89.7773	-167.2	0.057717	0.241193	-0.850582	-0.851888	0.034041	20.4138	-0.851833	-2.267524E+11	-1.501262E-13	NaN
496	1.000000	0.252497	7.36991e+06	-52289.1	1005.82	-29749.7	0.000000	0.000000	6.252813	0.045714	NaN	0.000000	0.001563	0.001708	28.0818	0.038837	0.002040	19.0352	66.1407	10.5262	0.062664	0.251174	-0.840584	-0.841907	0.045714	19.0352	-0.842385	-1.688917E+11	-2.706723E-13	NaN
496	1.000000	0.262507	7.36991e+06	-52289.1	1005.82	-29749.7	0.000000	0.000000	6.262824	0.034133	NaN	0.000000	0.001553	0.001688	28.0817	0.086626	0.002006	43.1937	-53.5759	-162.734	0.012783	0.261247	-0.830573	-0.831833	0.034133	43.1937	-0.831166	-1.190118E+11	-2.868074E-13	NaN
496	1.000000	0.272505	7.36991e+06	-52289.1	1005.82	-29749.7	0.000000	0.000000	6.272820	0.007577	NaN	0.000000	0.001543	0.001678	28.0815	0.151860	0.001911	79.4704	-35.6878	16.7435	-0.006605	0.271147	-0.820576	-0.821934	0.007577	79.4704	-0.820648	-8.570333E+10	-8.840600E-14	NaN
496	1.000000	0.282564	7.36991e+06	-52289.1	1005.82	-29749.7	0.000000	0.000000	6.282880	0.027349	NaN	0.000000	0.001522	0.001711	28.0816	0.117212	0.001943	60.3218	22.3691	-167.728	0.048104	0.281194	-0.810517	-0.811887	0.027349	60.3218	-0.810857	-6.312423E+10	-4.332514E-13	NaN
496	1.000000	0.292570	7.36991e+06	-52289.1	1005.82	-29749.7	0.000000	0.000000	6.292887	0.051971	NaN	0.000000	0.001543	0.001777	28.0821	0.055879	0.002058	27.1545	135.232	16.4962	0.006162	0.291231	-0.800511	-0.801850	0.051971	27.1545	-0.801946	-4.778401E+10	-1.087630E-12	NaN
496	1.000000	0.302517	7.36991e+06	-52289.1	1005.82	-29749.7	0.000000	0.000000	6.302833	0.024253	NaN	0.000000	0.001558	0.001730	28.0815	0.060890	0.002121	28.7139	-175.011	-165.761	-0.053375	0.301226	-0.790564	-0.791855	0.024253	28.7139	-0.791197	-3.414609E+10	-7.102720E-13	NaN
496	1.000000	0.312539	7.36991e+06	-52289.1	1005.82	-29749.7	0.000000	0.000000	6.312855	0.028341	NaN	0.000000	0.001540	0.001718	28.0813	0.006076	0.001857	3.272194	-13.4594	12.418	-0.004617	0.311180	-0.780542	-0.781901	0.028341	3.272194	-0.787038	-2.998110E+10	-9.453118E-13	NaN
496	1.000000	0.322536	7.36991e+06	-52289.1	1005.82	-29749.7	0.000000	0.000000	6.322852	0.021758	NaN	0.000000	0.001542	0.001715	28.0813	0.075832	0.001926	39.377	115.34	-167.385	-0.005573	0.321269	-0.770545	-0.771812	0.021758	39.377	-0.770959	-1.812796E+10	-1.200249E-12	NaN
496	1.000000	0.332581	7.36991e+06	-52289.1	1005.82	-29749.7	0.000000	0.000000	6.332900	0.101765	NaN	0.000000	0.001538	0.001712	28.0818	0.026653	0.002016	13.2203	-13.0407	10.3816	0.021653	0.331210	-0.760500	-0.761871	0.101765	13.2203	-0.766273	-1.565404E+10	-6.500853E-12	NaN
496	1.000000	0.342556	7.36991e+06	-52289.1	1005.82	-29749.7	0.000000	0.000000	6.342870	-0.018386	NaN	0.000000	0.001548	0.001724	28.0803	0.071087	0.002072	34.3102	108.946	-166.945	-0.102992	0.341254	-0.750525	-0.751827	-0.018386	34.3102	-0.750123	-9.438232E+9	1.948086E-12	NaN
496	1.000000	0.352564	7.36991e+06	-52289.1	1005.82	-29749.7	0.000000	0.000000	6.352880	0.045928	NaN	0.000000	0.001536	0.001714	28.0803	0.088439	0.002134	41.4501	-93.095	14.7042	-0.087568	0.351211	-0.740517	-0.741870	0.045928	41.4501	-0.741348	-7.168328E+9	-6.407122E-12	NaN
496	1.000000	0.362552	7.36991e+06	-52289.1	1005.82	-29749.7	0.000000	0.000000	6.362868	0.026696	NaN	0.000000	0.001532	0.001721	28.0805	0.033420	0.002018	16.5574	-31.3737	-166.373	0.098959	0.361227	-0.730529	-0.731854	0.026696	16.5574	-0.731738	-5.302722E+9	-5.034380E-12	NaN
496	1.000000	0.372584	7.36991e+06	-52289.1	1005.82	-29749.7	0.000000	0.000000	6.372902	0.077771	NaN	0.000000	0.001555	0.001703	28.0808	0.030930	0.002004	15.4324	30.0283	14.4039	0.055725	0.371220	-0.720497	-0.721861	0.077771	15.4324	-0.724276	-4.195495E+9	-1.853671E-11	NaN
496	1.000000	0.382564	7.36991e+06	-52289.1	1005.82	-29749.7	0.000000	0.000000	6.382879	0.015507	NaN	0.000000	0.001577	0.001738	28.0804	0.072289	0.002055	35.172	62.853	-166.791	0.152980	0.381254	-0.710517	-0.711827	0.015507	35.172	-0.710848	-2.751814E+9	-5.635111E-12	NaN
496	1.000000	0.392601	7.36991e+06	-52289.1	1005.82	-29749.7	0.000000	0.000000	6.392914	-0.043706	NaN	0.000000	0.001532	0.001723	28.0803	0.077698	0.002090	37.1802	-162.225	17.0925	0.016726	0.391200	-0.700480	-0.701881	-0.043706	37.1802	-0.699598	-1.932150E+9	2.262018E-11	NaN
496	1.000000	0.402591	7.36991e+06	-52289.1	1005.82	-29749.7	0.000000	0.000000	6.402909	0.077495	NaN	0.000000	0.001562	0.001754	28.0806	0.037474	0.001918	19.5409	-133.056	-167.057	0.044299	0.401283	-0.690490	-0.691798	0.077495	19.5409	-0.693465	-1.593164E+9	-4.864208E-11	NaN
496	1.000000	0.412603	7.36991e+06	-52289.1	1005.82	-29749.7	0.000000	0.000000	6.412920	0.043478	NaN	0.000000	0.001543	0.001723	28.0804	0.085051	0.002000	42.521	77.3505	10.7023	0.051964	0.411192	-0.680478	-0.681889	0.043478	42.521	-0.681244	-1.084485E+9	-4.009050E-11	NaN
496	1.000000	0.422601	7.36991e+06	-52289.1	1005.82	-29749.7	0.000000	0.000000	6.422920	0.113664	NaN	0.000000	0.001572	0.001736	28.0803	0.021100	0.002001	10.5448	131.746	-165.813	0.075816	0.421215	-0.670480	-0.671866	0.113664	10.5448	-0.678565	-9.967232E+8	-1.140373E-10	NaN
496	1.000000	0.432606	7.36991e+06	-52289.1	1005.82	-29749.7	0.000000	0.000000	6.432923	0.040567	NaN	0.000000	0.001572	0.001734	28.0804	0.059852	0.001978	30.2611	-168.695	15.4843	0.000179	0.431259	-0.660475	-0.661822	0.040567	30.2611	-0.661480	-5.817584E+8	-6.973206E-11	NaN
496	1.000000	0.442612	7.36991e+06	-52289.1	1005.82	-29749.7	0.000000	0.000000	6.442925	-0.037030	NaN	0.000000	0.001545	0.001755	28.0805	0.093519	0.002072	45.1326	-136.603	-168.584	-0.031703	0.441345	-0.650469	-0.651736	-0.037030	45.1326	-0.649853	-4.031141E+8	9.185941E-11	NaN
496	1.000000	0.452592	7.36991e+06	-52289.1	1005.82	-29749.7	0.000000	0.000000	6.452909	0.044790	NaN	0.000000	0.001569	0.001688	28.0803	0.064624	0.002046	31.5859	-120.679	15.1978	0.027508	0.451228	-0.640489	-0.641853	0.044790	31.5859	-0.641552	-3.101592E+8	-1.444100E-10	NaN
496	1.000000	0.462625	7.36991e+06	-52289.1	1005.82	-29749.7	0.000000	0.000000	6.462943	0.061724	NaN	0.000000	0.001623	0.001664	28.0801	0.074227	0.002018	36.7799	-20.7352	-168.97	0.132901	0.461330	-0.630456	-0.631751	0.061724	36.7799	-0.631714	-2.272815E+8	-2.715736E-10	NaN
496	1.000000	0.472594	7.36991e+06	-52289.1	1005.82	-29749.7	0.000000	0.000000	6.472908	-0.007570	NaN	0.000000	0.001552	0.001662	28.0804	0.221159	0.001958	112.944	-10.4959	10.3054	-0.046752	0.471272	-0.620487	-0.621809	-0.007570	112.944	-0.620437	-1.590887E+8	4.758320E-11	NaN
496	1.000000	0.482601	7.36991e+06	-52289.1	1005.82	-29749.7	0.000000	0.000000	6.482919	0.077424	NaN	0.000000	0.001594	0.001692	28.0813	0.065600	0.001939	33.8244	-41.6762	-165.743	0.161604	0.481314	-0.610480	-0.611767	0.077424	33.8244	-0.612197	-1.225563E+8	-6.317394E-10	NaN
496	1.000000	0.492632	7.36991e+06	-52289.1	1005.82	-29749.7	0.000000	0.000000	6.492947	0.001262	NaN	0.000000	0.001571	0.001651	28.0817	0.164531	0.002107	78.0797	-99.5636	11.7435	0.011930	0.491336	-0.600449	-0.601745	0.001262	78.0797	-0.600461	-8.448999E+7	-1.494149E-11	NaN
496	1.000000	0.502642	7.36991e+06	-52289.1	1005.82	-29749.7	0.000000	0.000000	6.502957	0.009898	NaN	0.000000	0.001593	0.001661	28.0816	0.115668	0.002031	56.9471	168.293	-166.934	0.056206	0.501357	-0.590439	-0.591724	0.009898	56.9471	-0.590570	-6.173346E+7	-1.603268E-10	NaN
496	1.000000	0.512630	7.36991e+06	-52289.1	1005.82	-29749.7	0.000000	0.000000	6.512945	0.004527	NaN	0.000000	0.001598	0.001689	28.0818	0.099984	0.002102	47.5568	-95.9283	17.6774	-0.025139	0.511280	-0.580451	-0.581801	0.004527	47.5568	-0.580522	-4.486738E+7	-1.008912E-10	NaN
496	1.000000	0.522640	7.36991e+06	-52289.1	1005.82	-29749.7	0.000000	0.000000	6.522956	0.023370	NaN	0.000000	0.001542	0.001667	28.0816	0.033238	0.002105	15.7926	-69.4789	-164.861	0.080595	0.521287	-0.570441	-0.571794	0.023370	15.7926	-0.571551	-3.373315E+7	-6.928029E-10	NaN
496	1.000000	0.532664	7.36991e+06	-52289.1	1005.82	-29749.7	0.000000	0.000000	6.532979	0.012299	NaN	0.000000	0.001622	0.001663	28.0816	0.041795	0.002052	20.3702	132.395	12.7296	0.049973	0.531269	-0.560417	-0.561812	0.012299	20.3702	-0.560870	-2.401133E+7	-5.122029E-10	NaN
496	1.000000	0.542642	7.36991e+06	-52289.1	1005.82	-29749.7	0.000000	0.000000	6.542957	0.022840	NaN	0.000000	0.001562	0.001680	28.0817	0.123607	0.002083	59.3496	-140.391	-165.627	0.035193	0.541338	-0.550439	-0.551743	0.022840	59.3496	-0.550728	-1.737956E+7	-1.314189E-9	NaN
496	1.000000	0.552647	7.36991e+06	-52289.1	1005.82	-29749.7	0.000000	0.000000	6.552960	-0.030884	NaN	0.000000	0.001593	0.001654	28.0817	0.052582	0.001986	26.4776	-162.865	14.9982	-0.055730	0.551319	-0.540434	-0.541762	-0.030884	26.4776	-0.539559	-1.216872E+7	2.538016E-9	NaN
496	1.000000	0.562659	7.36991e+06	-52289.1	1005.82	-29749.7	0.000000	0.000000	6.562976	0.064972	NaN	0.000000	0.001646	0.001694	28.0815	0.068118	0.002050	33.2255	148.604	-165.936	0.100941	0.561293	-0.530422	-0.531788	0.064972	33.2255	-0.531889	-9.52366e+06	-6.822123E-9	NaN
496	1.000000	0.572641	7.36991e+06	-52289.1	1005.82	-29749.7	0.000000	0.000000	6.572957	0.033042	NaN	0.000000	0.001645	0.001665	28.0816	0.026893	0.001942	13.8478	-69.5134	12.1409	0.067876	0.571250	-0.520440	-0.521831	0.033042	13.8478	-0.522230	-6.99201e+06	-4.725707E-9	NaN
496	1.000000	0.582640	7.36991e+06	-52289.1	1005.82	-29749.7	0.000000	0.000000	6.582956	0.041041	NaN	0.000000	0.001643	0.001664	28.0817	0.101827	0.002097	48.566	129.879	-167.148	0.061051	0.581360	-0.510441	-0.511721	0.041041	48.566	-0.511075	-4.89084e+06	-8.391413E-9	NaN
496	1.000000	0.592646	7.36991e+06	-52289.1	1005.82	-29749.7	0.000000	0.000000	6.592958	-0.069087	NaN	0.000000	0.001645	0.001695	28.0819	0.088172	0.001922	45.8653	77.8384	17.5731	-0.048128	0.591287	-0.500435	-0.501794	-0.069087	45.8653	-0.499305	-3.35215e+06	2.060992E-8	NaN
496	1.000000	0.602694	7.36991e+06	-52289.1	1005.82	-29749.7	0.000000	0.000000	6.603009	-0.001881	NaN	0.000000	0.001665	0.001642	28.0815	0.062006	0.001912	32.4225	167.163	-165.523	0.006723	0.601400	-0.490387	-0.491681	-0.001881	32.4225	-0.490343	-2.51296e+06	7.486628E-10	NaN
496	1.000000	0.612668	7.36991e+06	-52289.1	1005.82	-29749.7	0.000000	0.000000	6.612980	-0.063806	NaN	0.000000	0.001632	0.001680	28.0804	0.092711	0.001952	47.4965	108.041	13.811	-0.097502	0.611308	-0.480413	-0.481773	-0.063806	47.4965	-0.479405	-1.76686e+06	3.611251E-8	NaN
496	1.000000	0.622664	7.36991e+06	-52289.1	1005.82	-29749.7	0.000000	0.000000	6.622978	-0.015322	NaN	0.000000	0.001650	0.001686	28.0805	0.052947	0.002023	26.1695	-157.576	-167.833	-0.020242	0.621296	-0.470417	-0.471785	-0.015322	26.1695	-0.469978	-1.30347e+06	1.175479E-8	NaN
496	1.000000	0.632688	7.36991e+06	-52289.1	1005.82	-29749.7	0.000000	0.000000	6.633003	-0.001802	NaN	0.000000	0.001602	0.001662	28.0801	0.071207	0.002051	34.7124	36.3272	15.5745	-0.006035	0.631272	-0.460393	-0.461809	-0.001802	34.7124	-0.460354	-954980	1.886526E-9	NaN
496	1.000000	0.642682	7.36991e+06	-52289.1	1005.82	-29749.7	0.000000	0.000000	6.642997	0.010226	NaN	0.000000	0.001609	0.001696	28.0803	0.045310	0.002059	22.0072	137.334	-169.73	-0.059910	0.641344	-0.450399	-0.451737	0.010226	22.0072	-0.450747	-699629	-1.461632E-8	NaN
496	1.000000	0.652697	7.36991e+06	-52289.1	1005.82	-29749.7	0.000000	0.000000	6.653014	0.053189	NaN	0.000000	0.001605	0.001691	28.0806	0.134419	0.002018	66.6163	-111.84	7.428761	-0.007457	0.651331	-0.440384	-0.441750	0.053189	66.6163	-0.440982	-509599	-1.043752E-7	NaN
496	1.000000	0.662698	7.36991e+06	-52289.1	1005.82	-29749.7	0.000000	0.000000	6.663017	0.088100	NaN	0.000000	0.001598	0.001703	28.0803	0.075306	0.001944	38.7339	152.23	-166.32	0.107038	0.661403	-0.430383	-0.431678	0.088100	38.7339	-0.432089	-381594	-2.308752E-7	NaN
496	1.000000	0.672689	7.36991e+06	-52289.1	1005.82	-29749.7	0.000000	0.000000	6.673004	-0.000968	NaN	0.000000	0.001630	0.001696	28.0804	0.034556	0.002090	16.5373	62.9831	11.1533	0.041129	0.671329	-0.420392	-0.421752	-0.000968	16.5373	-0.420348	-260223	3.718931E-9	NaN
496	1.000000	0.682702	7.36991e+06	-52289.1	1005.82	-29749.7	0.000000	0.000000	6.683020	0.080695	NaN	0.000000	0.001658	0.001727	28.0804	0.111751	0.001928	57.9718	-13.1223	-162.86	0.083036	0.681401	-0.410379	-0.411680	0.080695	57.9718	-0.411423	-194371	-4.151605E-7	NaN
496	1.000000	0.692700	7.36991e+06	-52289.1	1005.82	-29749.7	0.000000	0.000000	6.693016	0.038674	NaN	0.000000	0.001552	0.001707	28.0808	0.056500	0.001944	29.0621	-43.9484	11.4015	0.024066	0.691436	-0.400381	-0.401645	0.038674	29.0621	-0.401379	-139848	-2.765466E-7	NaN
496	1.000000	0.702717	7.36991e+06	-52289.1	1005.82	-29749.7	0.000000	0.000000	6.703034	0.055417	NaN	0.000000	0.001575	0.001663	28.0805	0.089008	0.002030	43.8365	-155.091	-167.276	0.030734	0.701395	-0.390364	-0.391686	0.055417	43.8365	-0.391312	-100447	-5.517066E-7	NaN
496	1.000000	0.712708	7.36991e+06	-52289.1	1005.82	-29749.7	0.000000	0.000000	6.713023	0.020110	NaN	0.000000	0.001610	0.001634	28.0804	0.124667	0.001890	65.969	-105.528	15.3595	-0.030878	0.711355	-0.380373	-0.381726	0.020110	65.969	-0.380602	-70555	-2.850307E-7	NaN
496	1.000000	0.722742	7.36991e+06	-52289.1	1005.82	-29749.7	0.000000	0.000000	6.723058	0.010160	NaN	0.000000	0.001610	0.001656	28.0804	0.074202	0.002051	36.1751	-18.5774	-167.746	0.029568	0.721401	-0.370339	-0.371680	0.010160	36.1751	-0.370549	-50586.7	-2.008427E-7	NaN
496	1.000000	0.732700	7.36991e+06	-52289.1	1005.82	-29749.7	0.000000	0.000000	6.733017	0.053426	NaN	0.000000	0.001585	0.001703	28.0808	0.023715	0.001963	12.0786	136.803	12.1679	0.071911	0.731362	-0.360381	-0.361719	0.053426	12.0786	-0.363698	-40296.8	-1.325803E-6	NaN
496	1.000000	0.742719	7.36991e+06	-52289.1	1005.82	-29749.7	0.000000	0.000000	6.743039	0.115933	NaN	0.000000	0.001581	0.001707	28.0806	0.038283	0.001917	19.9716	-2.459324	-165.044	0.088687	0.741423	-0.350362	-0.351658	0.115933	19.9716	-0.354715	-29879.3	-3.880022E-6	NaN
496	1.000000	0.752754	7.36991e+06	-52289.1	1005.82	-29749.7	0.000000	0.000000	6.753067	-0.032383	NaN	0.000000	0.001647	0.001689	28.0819	0.068151	0.002055	33.1675	63.6433	14.5586	0.008803	0.751343	-0.340327	-0.341738	-0.032383	33.1675	-0.339595	-18015.7	1.797491E-6	NaN
496	1.000000	0.762733	7.36991e+06	-52289.1	1005.82	-29749.7	0.000000	0.000000	6.763052	0.109100	NaN	0.000000	0.001626	0.001635	28.0818	0.071376	0.001962	36.3713	-154.189	-168.085	0.137600	0.761399	-0.330348	-0.331682	0.109100	36.3713	-0.332598	-14238.8	-7.662145E-6	NaN
496	1.000000	0.772753	7.36991e+06	-52289.1	1005.82	-29749.7	0.000000	0.000000	6.773070	0.049577	NaN	0.000000	0.001641	0.001669	28.0817	0.009645	0.002040	4.728677	-15.5039	14.8483	0.110552	0.771377	-0.320328	-0.321704	0.049577	4.728677	-0.328191	-12273	-4.039509E-6	NaN
496	1.000000	0.782723	7.36991e+06	-52289.1	1005.82	-29749.7	0.000000	0.000000	6.783037	-0.017087	NaN	0.000000	0.001623	0.001698	28.0819	0.131696	0.002095	62.8538	169.275	-165.813	0.076836	0.781390	-0.310358	-0.311691	-0.017087	62.8538	-0.310154	-6657.86	2.566471E-6	NaN
496	1.000000	0.792741	7.36991e+06	-52289.1	1005.82	-29749.7	0.000000	0.000000	6.793057	0.034669	NaN	0.000000	0.001628	0.001671	28.0817	0.063766	0.001940	32.8632	-54.655	13.506	0.049296	0.791370	-0.300340	-0.301711	0.034669	32.8632	-0.301131	-4891.78	-7.087112E-6	NaN
496	1.000000	0.802721	7.36991e+06	-52289.1	1005.82	-29749.7	0.000000	0.000000	6.803040	0.089279	NaN	0.000000	0.001613	0.001693	28.0819	0.169472	0.002011	84.2661	80.9059	-167.932	0.059578	0.801432	-0.290360	-0.291649	0.089279	84.2661	-0.291154	-3472.09	-2.571328E-5	NaN
496	1.000000	0.812724	7.36991e+06	-52289.1	1005.82	-29749.7	0.000000	0.000000	6.813040	0.034739	NaN	0.000000	0.001636	0.001671	28.0819	0.096816	0.001909	50.7055	-178.23	11.0588	0.003063	0.811399	-0.280357	-0.281682	0.034739	50.7055	-0.280871	-2432.77	-1.427951E-5	NaN
496	1.000000	0.822772	7.36991e+06	-52289.1	1005.82	-29749.7	0.000000	0.000000	6.823087	0.023218	NaN	0.000000	0.001608	0.001673	28.0819	0.038199	0.001925	19.8448	115.972	-167.83	0.045674	0.821488	-0.270309	-0.271593	0.023218	19.8448	-0.271187	-1736.1	-1.337362E-5	NaN
496	1.000000	0.832780	7.36991e+06	-52289.1	1005.82	-29749.7	0.000000	0.000000	6.833095	0.002589	NaN	0.000000	0.001600	0.001696	28.0819	0.042853	0.002089	20.5133	-164.531	16.4511	-0.049239	0.831409	-0.260301	-0.261672	0.002589	20.5133	-0.260396	-1188.45	-2.178847E-6	NaN
496	1.000000	0.842757	7.36991e+06	-52289.1	1005.82	-29749.7	0.000000	0.000000	6.843071	-0.004513	NaN	0.000000	0.001622	0.001688	28.0821	0.090905	0.001943	46.7849	-101.801	-166.671	-0.026908	0.841442	-0.250324	-0.251639	-0.004513	46.7849	-0.250252	-829.589	5.440529E-6	NaN
496	1.000000	0.852780	7.36991e+06	-52289.1	1005.82	-29749.7	0.000000	0.000000	6.853094	-0.008759	NaN	0.000000	0.001624	0.001666	28.0816	0.028921	0.002054	14.0776	-113.503	11.9739	-0.031020	0.851373	-0.240301	-0.241708	-0.008759	14.0776	-0.239834	-571.435	1.532853E-5	NaN
496	1.000000	0.862774	7.36991e+06	-52289.1	1005.82	-29749.7	0.000000	0.000000	6.863088	-0.030498	NaN	0.000000	0.001663	0.001686	28.0819	0.099021	0.002012	49.2108	16.4232	-165.408	-0.042267	0.861467	-0.230307	-0.231614	-0.030498	49.2108	-0.229842	-398.126	7.660282E-5	NaN
496	1.000000	0.872747	7.36991e+06	-52289.1	1005.82	-29749.7	0.000000	0.000000	6.873064	0.058061	NaN	0.000000	0.001648	0.001709	28.082	0.134135	0.002059	65.1549	-106.382	13.5154	0.094248	0.871380	-0.220334	-0.221701	0.058061	65.1549	-0.221003	-288.197	-0.000201	NaN
496	1.000000	0.882749	7.36991e+06	-52289.1	1005.82	-29749.7	0.000000	0.000000	6.883064	0.016782	NaN	0.000000	0.001662	0.001687	28.0816	0.034050	0.002101	16.2036	173.54	-162.819	0.001319	0.881489	-0.210332	-0.211592	0.016782	16.2036	-0.211109	-199.878	-8.396247E-5	NaN
496	1.000000	0.892762	7.36991e+06	-52289.1	1005.82	-29749.7	0.000000	0.000000	6.893076	-0.024812	NaN	0.000000	0.001604	0.001666	28.0808	0.167723	0.002073	80.8915	176.51	15.4621	-0.002924	0.891415	-0.200319	-0.201666	-0.024812	80.8915	-0.200089	-132.179	0.000188	NaN
496	1.000000	0.902796	7.36991e+06	-52289.1	1005.82	-29749.7	0.000000	0.000000	6.903114	0.071141	NaN	0.000000	0.001630	0.001688	28.0807	0.098332	0.001960	50.1585	119.007	-165.134	0.014513	0.901486	-0.190285	-0.191595	0.071141	50.1585	-0.191349	-94.7394	-0.000751	NaN
496	1.000000	0.912770	7.36991e+06	-52289.1	1005.82	-29749.7	0.000000	0.000000	6.913087	0.046753	NaN	0.000000	0.001617	0.001711	28.0805	0.033625	0.001914	17.5696	-149.485	16.4005	0.015232	0.911430	-0.180311	-0.181651	0.046753	17.5696	-0.182307	-66.7771	-0.000700	NaN
496	1.000000	0.922815	7.36991e+06	-52289.1	1005.82	-29749.7	0.000000	0.000000	6.923132	0.049695	NaN	0.000000	0.001634	0.001734	28.0805	0.064358	0.002042	31.5142	-179.884	-165.786	0.078261	0.921432	-0.170266	-0.171649	0.049695	31.5142	-0.171449	-43.5242	-0.001142	NaN
496	1.000000	0.932786	7.36991e+06	-52289.1	1005.82	-29749.7	0.000000	0.000000	6.933103	0.069598	NaN	0.000000	0.001630	0.001724	28.0803	0.037440	0.002029	18.4568	-69.5858	10.1064	0.054838	0.931435	-0.160295	-0.161646	0.069598	18.4568	-0.163124	-31.1374	-0.002235	NaN
496	1.000000	0.942812	7.36991e+06	-52289.1	1005.82	-29749.7	0.000000	0.000000	6.943129	0.073002	NaN	0.000000	0.001637	0.001725	28.0802	0.059276	0.002031	29.1846	177.196	-167.296	0.018910	0.941505	-0.150269	-0.151576	0.073002	29.1846	-0.152145	-19.816	-0.003684	NaN
496	1.000000	0.952800	7.36991e+06	-52289.1	1005.82	-29749.7	0.000000	0.000000	6.953117	0.074899	NaN	0.000000	0.001658	0.001705	28.0803	0.041652	0.001969	21.1583	12.5952	13.465	0.058550	0.951396	-0.140281	-0.141685	0.074899	21.1583	-0.142936	-13.4237	-0.005580	NaN
496	1.000000	0.962791	7.36991e+06	-52289.1	1005.82	-29749.7	0.000000	0.000000	6.963107	0.022391	NaN	0.000000	0.001607	0.001706	28.0804	0.109145	0.002150	50.7591	-142.833	-164.304	-0.013402	0.961474	-0.130290	-0.131607	0.022391	50.7591	-0.130620	-7.835205	-0.002858	NaN
496	1.000000	0.972821	7.36991e+06	-52289.1	1005.82	-29749.7	0.000000	0.000000	6.973138	0.056375	NaN	0.000000	0.001596	0.001706	28.0804	0.060969	0.001976	30.8473	83.2034	13.0574	0.022724	0.971469	-0.120260	-0.121612	0.056375	30.8473	-0.121631	-5.210587	-0.010819	NaN
496	1.000000	0.982822	7.36991e+06	-52289.1	1005.82	-29749.7	0.000000	0.000000	6.983137	0.002181	NaN	0.000000	0.001629	0.001727	28.0805	0.052909	0.001987	26.6215	56.5387	-162.209	0.005272	0.981493	-0.110259	-0.111587	0.002181	26.6215	-0.110320	-3.052287	-0.000715	NaN
496	1.000000	0.992826	7.36991e+06	-52289.1	1005.82	-29749.7	0.000000	0.000000	6.993142	0.032615	NaN	0.000000	0.001631	0.001706	28.0805	0.077050	0.002043	37.7109	22.8903	17.6099	0.030809	0.991493	-0.100255	-0.101588	0.032615	37.7109	-0.100903	-1.913154	-0.017048	NaN
496	1.000000	1.002827	7.36991e+06	-52289.1	1005.82	-29749.7	0.000000	0.000000	7.003142	0.003440	NaN	0.000000	0.001606	0.001730	28.0805	0.125786	0.002053	61.262	-64.4102	-165.929	-0.075171	1.001513	-0.090254	-0.091568	0.003440	61.262	-0.090296	-1.098371	-0.003132	NaN
496	1.000000	1.012826	7.36991e+06	-52289.1	1005.82	-29749.7	0.000000	0.000000	7.013145	0.103279	NaN	0.000000	0.001611	0.001730	28.0803	0.094555	0.001948	48.5367	-102.216	13.4056	0.069164	1.011503	-0.080255	-0.081578	0.103279	48.5367	-0.081851	-0.688154	-0.150081	NaN
496	1.000000	1.022853	7.36991e+06	-52289.1	1005.82	-29749.7	0.000000	0.000000	7.023169	0.016537	NaN	0.000000	0.001614	0.001739	28.0817	0.059587	0.002025	29.4265	-156.226	-164.007	0.044552	1.021555	-0.070228	-0.071526	0.016537	29.4265	-0.070649	-0.355012	-0.046581	NaN
496	1.000000	1.032836	7.36991e+06	-52289.1	1005.82	-29749.7	0.000000	0.000000	7.033155	0.107001	NaN	0.000000	0.001573	0.001683	28.0814	0.047974	0.001965	24.4177	61.6935	11.4247	0.112731	1.031458	-0.060245	-0.061623	0.107001	24.4177	-0.063531	-0.226793	-0.471799	NaN
496	1.000000	1.042839	7.36991e+06	-52289.1	1005.82	-29749.7	0.000000	0.000000	7.043153	-0.007148	NaN	0.000000	0.001560	0.001716	28.0813	0.039147	0.001977	19.8011	27.8716	-168.98	0.021253	1.041541	-0.050242	-0.051540	-0.007148	19.8011	-0.049971	-0.091069	0.078488	NaN
496	1.000000	1.052831	7.36991e+06	-52289.1	1005.82	-29749.7	0.000000	0.000000	7.053147	0.040456	NaN	0.000000	0.001553	0.001730	28.0816	0.063869	0.002050	31.1493	-52.8594	13.4269	0.044233	1.051513	-0.040250	-0.041568	0.040456	31.1493	-0.041224	-0.049272	-0.821088	NaN
496	1.000000	1.062846	7.36991e+06	-52289.1	1005.82	-29749.7	0.000000	0.000000	7.063161	0.005663	NaN	0.000000	0.001527	0.001752	28.0815	0.040904	0.002009	20.3633	173.697	-166.675	0.030712	1.061619	-0.030235	-0.031462	0.005663	20.3633	-0.030444	-0.023679	-0.239169	NaN
496	1.000000	1.072883	7.36991e+06	-52289.1	1005.82	-29749.7	0.000000	0.000000	7.073198	0.014657	NaN	0.000000	0.001582	0.001689	28.0815	0.062121	0.001883	32.9836	36.1875	15.8493	-0.002735	1.071492	-0.020198	-0.021589	0.014657	32.9836	-0.020532	-0.012958	-1.131149	NaN
496	1.000000	1.082838	7.36991e+06	-52289.1	1005.82	-29749.7	0.000000	0.000000	7.083155	0.049196	NaN	0.000000	0.001527	0.001715	28.0813	0.170940	0.001980	86.3323	128.948	-170.176	0.047340	1.081561	-0.010243	-0.011520	0.049196	86.3323	-0.010670	-0.006770	-7.266595	NaN
496	1.000000	1.092868	7.36991e+06	-52289.1	1005.82	-29749.7	0.000000	0.000000	7.093189	0.165060	NaN	0.000000	0.001554	0.001729	28.0818	0.306213	0.002167	141.316	11.5342	11.5262	0.051935	1.091512	-0.000213	-0.001568	0.165060	141.316	-0.001089	-0.000797	-207.067	NaN
496	2.000000	1.102312	7.36991e+06	-52289.1	1005.82	-29749.7	0.000000	0.000000	7.102962	8.172996	NaN	0.000000	0.001568	0.001724	28.0814	8.803700	0.001592	5529.23	12.111	-175.75	7.815500	1.101496	0.009231	0.008415	8.172996	5529.23	0.008122	0.007168	1140.18	59667
496	2.000000	1.104959	7.36991e+06	-52289.1	1005.82	-29749.7	0.000000	0.000000	7.105765	11.954	NaN	0.000000	0.001552	0.001717	28.0816	11.9683	0.001678	7132.55	7.254496	4.845759	11.2963	1.104560	0.011878	0.011479	11.954	7132.55	0.010621	0.009880	1209.96	65561.2
496	2.000000	1.107388	7.36991e+06	-52289.1	1005.82	-29749.7	0.000000	0.000000	7.108364	16.0805	NaN	0.000000	0.001521	0.001698	28.0813	14.8342	0.001738	8537.12	3.824547	-172.886	15.6388	1.107126	0.014307	0.014045	16.0805	8537.12	0.012894	0.012579	1278.37	69544.8
496	2.000000	1.109907	7.36991e+06	-52289.1	1005.82	-29749.7	0.000000	0.000000	7.111022	19.4484	NaN	0.000000	0.001537	0.001699	28.0819	17.0867	0.001758	9721.27	10.2821	1.111044	18.8273	1.109466	0.016826	0.016385	19.4484	9721.27	0.015326	0.015722	1237.02	70834
496	2.000000	1.112401	7.36991e+06	-52289.1	1005.82	-29749.7	0.000000	0.000000	7.113749	25.1166	NaN	0.000000	0.001572	0.001692	28.0815	19.1289	0.001706	11215.5	6.718061	-178.027	25.1127	1.112078	0.019320	0.018997	25.1166	11215.5	0.017640	0.018969	1324.08	74399.5
496	2.000000	1.114878	7.36991e+06	-52289.1	1005.82	-29749.7	0.000000	0.000000	7.116412	29.6623	NaN	0.000000	0.001581	0.001706	28.0818	21.7093	0.001727	12570.2	4.251339	3.061746	28.4762	1.114555	0.021797	0.021474	29.6623	12570.2	0.020027	0.022585	1313.37	76420.2
496	2.000000	1.117391	7.36991e+06	-52289.1	1005.82	-29749.7	0.000000	0.000000	7.119071	33.2078	NaN	0.000000	0.001553	0.001697	28.0805	24.339	0.001749	13915.7	6.929252	-179.592	34.3725	1.117122	0.024310	0.024041	33.2078	13915.7	0.022520	0.026658	1245.68	77868.7
496	2.000000	1.119944	7.36991e+06	-52289.1	1005.82	-29749.7	0.000000	0.000000	7.121875	39.3192	NaN	0.000000	0.001579	0.001680	28.0804	26.9979	0.001724	15659.5	6.429596	0.744902	40.3399	1.119460	0.026863	0.026379	39.3192	15659.5	0.024980	0.030978	1269.25	81287
496	2.000000	1.122350	7.36991e+06	-52289.1	1005.82	-29749.7	0.000000	0.000000	7.124584	46.6661	NaN	0.000000	0.001583	0.001667	28.0801	29.4756	0.001786	16504.5	7.480591	178.382	45.3092	1.121991	0.029269	0.028910	46.6661	16504.5	0.027148	0.035041	1331.78	80554.7
496	2.000000	1.124811	7.36991e+06	-52289.1	1005.82	-29749.7	0.000000	0.000000	7.127295	52.7465	NaN	0.000000	0.001565	0.001721	28.0802	31.612	0.001656	19091.3	4.531319	-1.012259	50.545	1.124533	0.031730	0.031452	52.7465	19091.3	0.029658	0.040037	1317.44	87171.9
496	2.000000	1.127344	7.36991e+06	-52289.1	1005.82	-29749.7	0.000000	0.000000	7.130012	57.2142	NaN	0.000000	0.001569	0.001710	28.0803	35.1502	0.001814	19377.9	4.855065	179.079	55.8569	1.127038	0.034263	0.033957	57.2142	19377.9	0.032048	0.045097	1268.7	83369.7
496	2.000000	1.129834	7.36991e+06	-52289.1	1005.82	-29749.7	0.000000	0.000000	7.132913	67.2198	NaN	0.000000	0.001565	0.001721	28.0802	36.9839	0.001885	19615.5	7.205778	-3.416365	64.1021	1.129535	0.036753	0.036454	67.2198	19615.5	0.034183	0.049860	1348.17	80259.5
496	2.000000	1.132299	7.36991e+06	-52289.1	1005.82	-29749.7	0.000000	0.000000	7.135710	75.304	NaN	0.000000	0.001600	0.001726	28.0802	39.3679	0.001802	21849.1	8.800442	173.46	73.5065	1.132015	0.039218	0.038934	75.304	21849.1	0.036633	0.055616	1353.99	84645.9
496	2.000000	1.134811	7.36991e+06	-52289.1	1005.82	-29749.7	0.000000	0.000000	7.138477	81.4881	NaN	0.000000	0.001576	0.001721	28.0803	40.7981	0.001695	24063.7	1.000903	0.628330	79.5527	1.134510	0.041730	0.041429	81.4881	24063.7	0.039190	0.061951	1315.36	88330.2
496	2.000000	1.137385	7.36991e+06	-52289.1	1005.82	-29749.7	0.000000	0.000000	7.141388	89.6717	NaN	0.000000	0.001588	0.001720	28.0802	44.3199	0.001807	24521.6	3.978922	177.647	92.0327	1.137097	0.044305	0.044016	89.6717	24521.6	0.041562	0.068127	1316.24	85834.4
496	2.000000	1.139853	7.36991e+06	-52289.1	1005.82	-29749.7	0.000000	0.000000	7.144369	102.154	NaN	0.000000	0.001518	0.001706	28.0803	47.1855	0.001930	24445.3	9.514875	-6.386392	102.647	1.139365	0.046772	0.046284	102.154	24445.3	0.043638	0.073767	1384.83	82231.8
496	2.000000	1.142298	7.36991e+06	-52289.1	1005.82	-29749.7	0.000000	0.000000	7.147338	114.885	NaN	0.000000	0.001535	0.001720	28.08	48.3673	0.001746	27700.9	3.878385	176.934	111.877	1.141942	0.049217	0.048861	114.885	27700.9	0.046107	0.080760	1422.55	89057.3
496	2.000000	1.144817	7.36991e+06	-52289.1	1005.82	-29749.7	0.000000	0.000000	7.150069	120.047	NaN	0.000000	0.001553	0.001714	28.0803	50.5242	0.001780	28385.2	1.145454	-0.542252	117.975	1.144498	0.051736	0.051417	120.047	28385.2	0.048564	0.088026	1363.77	87409.6
496	2.000000	1.147380	7.36991e+06	-52289.1	1005.82	-29749.7	0.000000	0.000000	7.153141	132.425	NaN	0.000000	0.001577	0.001709	28.08	54.0198	0.001707	31652.4	3.997353	175.366	135.683	1.147021	0.054300	0.053940	132.425	31652.4	0.051162	0.096038	1378.89	93316.6
496	2.000000	1.149752	7.36991e+06	-52289.1	1005.82	-29749.7	0.000000	0.000000	7.155998	144.213	NaN	0.000000	0.001593	0.001687	28.0808	55.5205	0.001720	32271.8	3.614251	-4.054471	138.336	1.149372	0.056671	0.056291	144.213	32271.8	0.053320	0.102950	1400.81	91893.1
496	2.000000	1.152313	7.36991e+06	-52289.1	1005.82	-29749.7	0.000000	0.000000	7.159134	158.184	NaN	0.000000	0.001619	0.001737	28.0812	57.8566	0.001826	31689.4	5.079541	174.505	157.305	1.151933	0.059232	0.058852	158.184	31689.4	0.055489	0.110130	1436.34	87243.7
496	2.000000	1.154794	7.36991e+06	-52289.1	1005.82	-29749.7	0.000000	0.000000	7.162085	169.635	NaN	0.000000	0.001650	0.001688	28.0821	59.8523	0.001759	34024.4	6.872269	-8.047922	167.668	1.154336	0.061713	0.061255	169.635	34024.4	0.057974	0.118643	1429.8	90249.2
496	2.000000	1.157335	7.36991e+06	-52289.1	1005.82	-29749.7	0.000000	0.000000	7.165067	180.334	NaN	0.000000	0.001624	0.001689	28.0813	62.6193	0.001701	36812.1	6.205406	172.273	181.711	1.156964	0.064254	0.063883	180.334	36812.1	0.060580	0.127898	1409.99	94044.2
496	2.000000	1.159812	7.36991e+06	-52289.1	1005.82	-29749.7	0.000000	0.000000	7.168223	196.854	NaN	0.000000	0.001580	0.001705	28.0817	64.381	0.001860	34621	8.935895	-8.832538	194.986	1.159380	0.066731	0.066299	196.854	34621	0.062467	0.134801	1460.33	86152.1
496	2.000000	1.162361	7.36991e+06	-52289.1	1005.82	-29749.7	0.000000	0.000000	7.170990	202.165	NaN	0.000000	0.001580	0.001693	28.081	66.666	0.001727	38607.8	4.649979	173.775	206.31	1.161961	0.069280	0.068880	202.165	38607.8	0.065353	0.145700	1387.55	92409.9
496	2.000000	1.164760	7.36991e+06	-52289.1	1005.82	-29749.7	0.000000	0.000000	7.174042	218.035	NaN	0.000000	0.001576	0.001655	28.082	69.7207	0.001794	38867.3	4.000268	-6.012376	214.758	1.164403	0.071679	0.071322	218.035	38867.3	0.067472	0.153955	1416.23	90502.5
496	2.000000	1.167486	7.36991e+06	-52289.1	1005.82	-29749.7	0.000000	0.000000	7.176858	220.216	NaN	0.000000	0.001591	0.001674	28.0811	74.0405	0.001903	38911.8	6.926096	171.518	234.18	1.167126	0.074405	0.074045	220.216	38911.8	0.070161	0.164741	1336.74	87589.7
496	2.000000	1.169821	7.36991e+06	-52289.1	1005.82	-29749.7	0.000000	0.000000	7.180138	243.216	NaN	0.000000	0.001561	0.001665	28.0812	75.211	0.001928	39013.6	5.735858	-7.000645	239.604	1.169380	0.076740	0.076299	243.216	39013.6	0.072064	0.172586	1409.25	85800
496	2.000000	1.172309	7.36991e+06	-52289.1	1005.82	-29749.7	0.000000	0.000000	7.183138	255.649	NaN	0.000000	0.001563	0.001664	28.0812	76.8089	0.001739	44178.7	5.305371	171.56	255.77	1.171973	0.079228	0.078892	255.649	44178.7	0.074888	0.184539	1385.34	93959.8
496	2.000000	1.174794	7.36991e+06	-52289.1	1005.82	-29749.7	0.000000	0.000000	7.186244	270.732	NaN	0.000000	0.001569	0.001710	28.0815	78.9963	0.001723	45853.1	4.107362	-7.612007	269.392	1.174316	0.081713	0.081235	270.732	45853.1	0.077285	0.194979	1388.52	94874
496	2.000000	1.177327	7.36991e+06	-52289.1	1005.82	-29749.7	0.000000	0.000000	7.189279	282.974	NaN	0.000000	0.001608	0.001685	28.0814	82.065	0.001761	46609.2	1.385347	175.17	284.753	1.177085	0.084246	0.084004	282.974	46609.2	0.079692	0.205735	1375.43	93883.8
496	2.000000	1.179792	7.36991e+06	-52289.1	1005.82	-29749.7	0.000000	0.000000	7.192383	298.491	NaN	0.000000	0.001603	0.001608	28.0813	84.4181	0.001907	44269.6	4.643037	-7.712754	296.634	1.179551	0.086711	0.086470	298.491	44269.6	0.081654	0.214699	1390.27	87289.9
496	2.000000	1.182197	7.36991e+06	-52289.1	1005.82	-29749.7	0.000000	0.000000	7.195494	315.666	NaN	0.000000	0.001586	0.001685	28.0811	85.9088	0.001777	48349.1	1.438945	174.844	311.268	1.181993	0.089116	0.088912	315.666	48349.1	0.084219	0.226690	1392.5	92778.2
496	2.000000	1.184723	7.36991e+06	-52289.1	1005.82	-29749.7	0.000000	0.000000	7.198530	328.069	NaN	0.000000	0.001591	0.001679	28.0801	89.4803	0.001861	48072.2	5.621706	-9.381072	322.846	1.184351	0.091642	0.091270	328.069	48072.2	0.086523	0.237722	1380.05	90080.9
496	2.000000	1.187229	7.36991e+06	-52289.1	1005.82	-29749.7	0.000000	0.000000	7.201326	335.102	NaN	0.000000	0.001603	0.001652	28.0801	92.6845	0.001873	49471.3	5.385517	170.242	333.722	1.187107	0.094148	0.094026	335.102	49471.3	0.089068	0.250189	1339.4	90363.5
496	2.000000	1.189846	7.36991e+06	-52289.1	1005.82	-29749.7	0.000000	0.000000	7.205045	361.893	NaN	0.000000	0.001589	0.001705	28.0802	93.7526	0.001841	50937.8	3.728774	-7.352020	362.244	1.189459	0.096765	0.096378	361.893	50937.8	0.091437	0.262063	1380.94	90909.9
496	2.000000	1.192177	7.36991e+06	-52289.1	1005.82	-29749.7	0.000000	0.000000	7.208098	379.473	NaN	0.000000	0.001603	0.001695	28.0803	94.9714	0.001737	54689.4	3.169277	172.742	376.031	1.191914	0.099096	0.098833	379.473	54689.4	0.093892	0.274638	1381.72	95344.6
496	2.000000	1.194718	7.36991e+06	-52289.1	1005.82	-29749.7	0.000000	0.000000	7.211435	398.823	NaN	0.000000	0.001619	0.001716	28.08	98.2012	0.001901	51669.7	3.992198	-7.624760	394.612	1.194342	0.101637	0.101261	398.823	51669.7	0.095848	0.284854	1400.1	88450.1
496	2.000000	1.197158	7.36991e+06	-52289.1	1005.82	-29749.7	0.000000	0.000000	7.214347	410.296	NaN	0.000000	0.001600	0.001737	28.0801	99.0313	0.001673	59190.8	0.406272	174.502	404.56	1.196950	0.104077	0.103869	410.296	59190.8	0.098878	0.301027	1362.99	98565.5
496	2.000000	1.199703	7.36991e+06	-52289.1	1005.82	-29749.7	0.000000	0.000000	7.217945	435.883	NaN	0.000000	0.001579	0.001677	28.0803	102.076	0.001914	53332.5	4.933652	-8.729210	429.132	1.199384	0.106622	0.106303	435.883	53332.5	0.100492	0.309812	1406.93	87541.9
496	2.000000	1.200706	7.36991e+06	-52289.1	1005.82	-29749.7	0.000000	0.000000	7.219272	443.785	NaN	0.000000	0.001561	0.001735	28.0801	103.188	0.001801	57294.7	4.484935	-8.906196	438.468	1.200337	0.107625	0.107256	443.785	57294.7	0.101815	0.317100	1399.51	92958.7