File: remote_trans/data/nanoindenter/0828-1/data/Data_2025-08-06,11h17m57s/2025-07-22_16-23-58_1_291.txt
2025-07-22, 16:23:58, 1
Index	Phase	Displacement	Time	Pos X	Pos Y	Pos Z	Rot A	Rot B	Piezo Z	Force A	Force B	Gripper	Voltage A	Voltage B	Temperature	Amplitude force	Amplitude pos	Stiffness	Phase shift	Phase excitation	Force A raw	Displacement raw	HMax	HMax raw	Real Force	Real Stiffness	Contact Depth	Area	Hardness	Reduced Mod.
[#]	[#]	[um]	[s]	[um]	[um]	[um]	[m°]	[m°]	[um]	[uN]	[uN]	[V]	[V]	[V]	[°C]	[uN]	[um]	[N/m]	[°]	[°]	[uN]	[um]	[um]	[um]	[uN]	[N/m]	[um]	[um^2]	[MPa]	[MPa]
291	1.000000	0.002843	7.3679e+06	-53189.1	955.818	-29747.3	0.000000	0.000000	6.002799	-0.043185	NaN	0.000000	0.001630	0.001619	28.0794	0.080320	0.001064	75.4913	107.578	-168.204	-0.101552	0.001550	-1.074292	-1.075585	-0.043185	75.4913	-1.073863	-2.234037E+14	1.933045E-16	NaN
291	1.000000	0.010789	7.3679e+06	-53189.1	955.819	-29747.3	0.000000	0.000000	6.010746	-0.009802	NaN	0.000000	0.001632	0.001580	28.0788	0.113620	0.000892	127.421	-16.944	-164.188	-0.018572	0.009517	-1.066346	-1.067618	-0.009802	127.421	-1.066289	-1.767355E+14	5.545867E-17	NaN
291	1.000000	0.018766	7.3679e+06	-53189.1	955.818	-29747.3	0.000000	0.000000	6.018721	-0.068880	NaN	0.000000	0.001597	0.001654	28.079	0.066053	0.001682	39.2741	-75.0365	-164.306	-0.101757	0.017499	-1.058369	-1.059636	-0.068880	39.2741	-1.057053	-1.328071E+14	5.186474E-16	NaN
291	1.000000	0.026827	7.3679e+06	-53189.1	955.818	-29747.3	0.000000	0.000000	6.026783	-0.043673	NaN	0.000000	0.001620	0.001654	28.079	0.128402	0.001765	72.7674	-38.4418	-165.2	-0.012025	0.025473	-1.050308	-1.051662	-0.043673	72.7674	-1.049857	-1.062914E+14	4.108826E-16	NaN
291	1.000000	0.034809	7.3679e+06	-53189.1	955.818	-29747.3	0.000000	0.000000	6.034765	-0.046141	NaN	0.000000	0.001646	0.001664	28.079	0.081390	0.001927	42.2333	-25.3486	-159.908	-0.072617	0.033461	-1.042326	-1.043674	-0.046141	42.2333	-1.041507	-8.207832E+13	5.621623E-16	NaN
291	1.000000	0.042801	7.3679e+06	-53189.1	955.818	-29747.3	0.000000	0.000000	6.042759	0.007897	NaN	0.000000	0.001635	0.001626	28.0802	0.039573	0.001851	21.3782	79.8347	-162.573	0.002651	0.041485	-1.034334	-1.035650	0.007897	21.3782	-1.034611	-6.629735E+13	-1.191163E-16	NaN
291	1.000000	0.050774	7.3679e+06	-53189.1	955.817	-29747.3	0.000000	0.000000	6.050731	-0.021238	NaN	0.000000	0.001646	0.001654	28.0801	0.012941	0.002055	6.296635	83.6523	-162.7	-0.095517	0.049486	-1.026361	-1.027649	-0.021238	6.296635	-1.023831	-4.747877E+13	4.473108E-16	NaN
291	1.000000	0.058810	7.3679e+06	-53189.1	955.819	-29747.3	0.000000	0.000000	6.058768	0.008904	NaN	0.000000	0.001644	0.001660	28.0801	0.026945	0.001949	13.8265	-25.7445	-163.738	0.015313	0.057434	-1.018325	-1.019701	0.008904	13.8265	-1.018808	-4.063673E+13	-2.191065E-16	NaN
291	1.000000	0.066798	7.3679e+06	-53189.1	955.818	-29747.3	0.000000	0.000000	6.066757	0.044255	NaN	0.000000	0.001655	0.001680	28.0801	0.032025	0.001987	16.1156	142.974	-163.33	0.008161	0.065440	-1.010337	-1.011695	0.044255	16.1156	-1.012397	-3.331502E+13	-1.328388E-15	NaN
291	1.000000	0.074793	7.3679e+06	-53189.1	955.818	-29747.3	0.000000	0.000000	6.074753	0.054174	NaN	0.000000	0.001599	0.001649	28.0803	0.099695	0.002010	49.5977	1.159592	-161.964	0.125542	0.073450	-1.002342	-1.003685	0.054174	49.5977	-1.003162	-2.502262E+13	-2.164992E-15	NaN
291	1.000000	0.082783	7.3679e+06	-53189.1	955.819	-29747.3	0.000000	0.000000	6.082738	-0.069629	NaN	0.000000	0.001621	0.001626	28.0805	0.029455	0.001918	15.3578	63.8347	-166.379	-0.030442	0.081526	-0.994352	-0.995609	-0.069629	15.3578	-0.990952	-1.713681E+13	4.063147E-15	NaN
291	1.000000	0.090786	7.3679e+06	-53189.1	955.817	-29747.3	0.000000	0.000000	6.090741	-0.085629	NaN	0.000000	0.001619	0.001653	28.0802	0.136420	0.002029	67.2508	-41.1559	-162.78	-0.047209	0.089488	-0.986348	-0.987647	-0.085629	67.2508	-0.985394	-1.442340E+13	5.936842E-15	NaN
291	1.000000	0.098778	7.3679e+06	-53189.1	955.818	-29747.3	0.000000	0.000000	6.098734	-0.042598	NaN	0.000000	0.001620	0.001620	28.0802	0.066153	0.002119	31.2169	-146.552	-166.353	-0.012429	0.097521	-0.978357	-0.979614	-0.042598	31.2169	-0.977334	-1.123275E+13	3.792280E-15	NaN
291	1.000000	0.106799	7.3679e+06	-53189.1	955.818	-29747.3	0.000000	0.000000	6.106758	0.014456	NaN	0.000000	0.001620	0.001640	28.0802	0.066968	0.001910	35.0603	-1.100453	-163.183	-0.059316	0.105497	-0.970335	-0.971638	0.014456	35.0603	-0.970645	-9.127503E+12	-1.583752E-15	NaN
291	1.000000	0.114813	7.3679e+06	-53189.1	955.819	-29747.3	0.000000	0.000000	6.114769	-0.046664	NaN	0.000000	0.001633	0.001682	28.0801	0.118479	0.002097	56.4911	-168.987	-163.426	0.031789	0.113510	-0.962322	-0.963625	-0.046664	56.4911	-0.961703	-6.915479E+12	6.747823E-15	NaN
291	1.000000	0.122841	7.3679e+06	-53189.1	955.819	-29747.3	0.000000	0.000000	6.122799	-0.003193	NaN	0.000000	0.001612	0.001689	28.0802	0.029542	0.001970	14.9952	-19.5993	-164.825	-0.003960	0.121538	-0.954294	-0.955597	-0.003193	14.9952	-0.954134	-5.467320E+12	5.840920E-16	NaN
291	1.000000	0.130855	7.3679e+06	-53189.1	955.819	-29747.3	0.000000	0.000000	6.130812	-0.008512	NaN	0.000000	0.001648	0.001734	28.0798	0.063389	0.001999	31.703	-161.82	-165.953	0.076339	0.129558	-0.946280	-0.947577	-0.008512	31.703	-0.946079	-4.257358E+12	1.999270E-15	NaN
291	1.000000	0.138845	7.3679e+06	-53189.1	955.819	-29747.3	0.000000	0.000000	6.138802	-0.022006	NaN	0.000000	0.001632	0.001735	28.0802	0.102443	0.002009	50.9852	-67.2462	-165.767	-0.084620	0.137514	-0.938289	-0.939621	-0.022006	50.9852	-0.937966	-3.308959E+12	6.650383E-15	NaN
291	1.000000	0.146840	7.3679e+06	-53189.1	955.818	-29747.3	0.000000	0.000000	6.146797	-0.023070	NaN	0.000000	0.001639	0.001708	28.0801	0.098458	0.002147	45.8607	28.165	-164.79	-0.003453	0.145557	-0.930295	-0.931578	-0.023070	45.8607	-0.929917	-2.576798E+12	8.952961E-15	NaN
291	1.000000	0.154837	7.3679e+06	-53189.1	955.818	-29747.3	0.000000	0.000000	6.154794	-0.034928	NaN	0.000000	0.001620	0.001716	28.0799	0.053373	0.002031	26.285	135.554	-166.516	-0.027253	0.153531	-0.922298	-0.923604	-0.034928	26.285	-0.921301	-1.971398E+12	1.771732E-14	NaN
291	1.000000	0.162838	7.3679e+06	-53189.1	955.818	-29747.3	0.000000	0.000000	6.162793	-0.056443	NaN	0.000000	0.001633	0.001714	28.08	0.041816	0.001994	20.9659	9.964086	-164.144	-0.031021	0.161550	-0.914297	-0.915585	-0.056443	20.9659	-0.912278	-1.489131E+12	3.790340E-14	NaN
291	1.000000	0.170855	7.3679e+06	-53189.1	955.818	-29747.3	0.000000	0.000000	6.170813	0.018223	NaN	0.000000	0.001664	0.001697	28.0802	0.122974	0.002043	60.1894	49.3901	-165.82	-0.064393	0.169553	-0.906280	-0.907582	0.018223	60.1894	-0.906507	-1.244474E+12	-1.464344E-14	NaN
291	1.000000	0.178865	7.3679e+06	-53189.1	955.817	-29747.3	0.000000	0.000000	6.178823	0.011074	NaN	0.000000	0.001658	0.001703	28.0789	0.100735	0.001958	51.4498	44.3404	-167.17	-0.008669	0.177559	-0.898270	-0.899576	0.011074	51.4498	-0.898431	-9.679848E+11	-1.144018E-14	NaN
291	1.000000	0.186841	7.3679e+06	-53189.1	955.819	-29747.3	0.000000	0.000000	6.186797	-0.050800	NaN	0.000000	0.001615	0.001693	28.0789	0.044904	0.002048	21.9276	-84.3379	-165.927	0.003893	0.185529	-0.890294	-0.891605	-0.050800	21.9276	-0.888556	-7.118710E+11	7.136111E-14	NaN
291	1.000000	0.194818	7.3679e+06	-53189.1	955.82	-29747.3	0.000000	0.000000	6.194774	-0.035756	NaN	0.000000	0.001643	0.001670	28.0791	0.042364	0.002128	19.9061	-17.5036	-162.223	-0.058752	0.193535	-0.882317	-0.883600	-0.035756	19.9061	-0.880970	-5.621128E+11	6.360977E-14	NaN
291	1.000000	0.202849	7.3679e+06	-53189.1	955.818	-29747.3	0.000000	0.000000	6.202806	-0.020861	NaN	0.000000	0.001623	0.001701	28.0787	0.077644	0.001922	40.4008	171.045	-167.486	-0.076787	0.201471	-0.874286	-0.875664	-0.020861	40.4008	-0.873899	-4.510149E+11	4.625280E-14	NaN
291	1.000000	0.210828	7.3679e+06	-53189.1	955.818	-29747.3	0.000000	0.000000	6.210783	-0.066708	NaN	0.000000	0.001639	0.001649	28.079	0.057040	0.001849	30.8556	63.4251	-160.228	-0.030521	0.209549	-0.866307	-0.867586	-0.066708	30.8556	-0.864685	-3.384786E+11	1.970806E-13	NaN
291	1.000000	0.218879	7.3679e+06	-53189.1	955.819	-29747.3	0.000000	0.000000	6.218834	-0.078121	NaN	0.000000	0.001634	0.001665	28.0788	0.154940	0.001975	78.4465	154.075	-163.998	-0.087765	0.217556	-0.858256	-0.859579	-0.078121	78.4465	-0.857509	-2.706461E+11	2.886459E-13	NaN
291	1.000000	0.226855	7.3679e+06	-53189.1	955.818	-29747.3	0.000000	0.000000	6.226815	0.046445	NaN	0.000000	0.001599	0.001697	28.0788	0.013101	0.001995	6.565692	-41.277	-163.044	0.088743	0.225512	-0.850280	-0.851623	0.046445	6.565692	-0.855586	-2.548968E+11	-1.822111E-13	NaN
291	1.000000	0.234855	7.3679e+06	-53189.1	955.819	-29747.3	0.000000	0.000000	6.234809	-0.074501	NaN	0.000000	0.001644	0.001707	28.0791	0.059378	0.001952	30.4228	112.744	-167.232	-0.058754	0.233555	-0.842280	-0.843580	-0.074501	30.4228	-0.840444	-1.589662E+11	4.686597E-13	NaN
291	1.000000	0.242885	7.3679e+06	-53189.1	955.818	-29747.3	0.000000	0.000000	6.242840	-0.078004	NaN	0.000000	0.001665	0.001698	28.0787	0.130980	0.002019	64.8779	43.5941	-162.369	-0.002944	0.241582	-0.834250	-0.835553	-0.078004	64.8779	-0.833348	-1.273983E+11	6.122850E-13	NaN
291	1.000000	0.250871	7.3679e+06	-53189.1	955.818	-29747.3	0.000000	0.000000	6.250829	0.008202	NaN	0.000000	0.001642	0.001706	28.079	0.076292	0.001973	38.6645	16.6569	-165.607	-0.015929	0.249551	-0.826264	-0.827584	0.008202	38.6645	-0.826423	-1.026348E+11	-7.991870E-14	NaN
291	1.000000	0.258887	7.3679e+06	-53189.1	955.819	-29747.3	0.000000	0.000000	6.258845	-0.003741	NaN	0.000000	0.001614	0.001687	28.0789	0.003657	0.001970	1.856092	-73.6827	-166.176	-0.101453	0.257572	-0.818248	-0.819563	-0.003741	1.856092	-0.816736	-7.584830E+10	4.931894E-14	NaN
291	1.000000	0.266873	7.3679e+06	-53189.1	955.818	-29747.3	0.000000	0.000000	6.266831	-0.017141	NaN	0.000000	0.001655	0.001712	28.079	0.072775	0.001904	38.2154	-102.528	-161.786	-0.032273	0.265534	-0.810262	-0.811601	-0.017141	38.2154	-0.809925	-6.131346E+10	2.795580E-13	NaN
291	1.000000	0.274912	7.3679e+06	-53189.1	955.818	-29747.3	0.000000	0.000000	6.274869	-0.013186	NaN	0.000000	0.001645	0.001707	28.079	0.115667	0.001937	59.7288	167.835	-166.166	-0.010511	0.273592	-0.802223	-0.803543	-0.013186	59.7288	-0.802058	-4.795041E+10	2.749930E-13	NaN
291	1.000000	0.282877	7.3679e+06	-53189.1	955.818	-29747.3	0.000000	0.000000	6.282835	-0.007834	NaN	0.000000	0.001627	0.001701	28.079	0.087925	0.001935	45.4381	133.94	-164.294	0.109548	0.281615	-0.794258	-0.795520	-0.007834	45.4381	-0.794128	-3.742362E+10	2.093219E-13	NaN
291	1.000000	0.290898	7.3679e+06	-53189.1	955.817	-29747.3	0.000000	0.000000	6.290855	-0.011624	NaN	0.000000	0.001616	0.001707	28.0793	0.073963	0.001928	38.3602	86.5471	-163.963	-0.040379	0.289571	-0.786237	-0.787564	-0.011624	38.3602	-0.786010	-2.903249E+10	4.003803E-13	NaN
291	1.000000	0.298902	7.3679e+06	-53189.1	955.818	-29747.3	0.000000	0.000000	6.298860	-0.002820	NaN	0.000000	0.001672	0.001699	28.0789	0.088436	0.002135	41.4165	107.477	-164.525	0.003800	0.297628	-0.778233	-0.779507	-0.002820	41.4165	-0.778182	-2.272601E+10	1.240840E-13	NaN
291	1.000000	0.306910	7.3679e+06	-53189.1	955.819	-29747.3	0.000000	0.000000	6.306867	-0.003120	NaN	0.000000	0.001691	0.001703	28.0793	0.095706	0.001961	48.813	61.4665	-169.771	-0.019191	0.305592	-0.770225	-0.771543	-0.003120	48.813	-0.770177	-1.768954E+10	1.763868E-13	NaN
291	1.000000	0.314903	7.3679e+06	-53189.1	955.817	-29747.3	0.000000	0.000000	6.314862	0.022666	NaN	0.000000	0.001656	0.001704	28.0804	0.091880	0.001852	49.6192	-45.3983	-164.843	-0.040052	0.313558	-0.762232	-0.763577	0.022666	49.6192	-0.762574	-1.394194E+10	-1.625710E-12	NaN
291	1.000000	0.322947	7.3679e+06	-53189.1	955.818	-29747.3	0.000000	0.000000	6.322905	-0.005820	NaN	0.000000	0.001706	0.001679	28.0804	0.083353	0.002053	40.6097	-152.137	-163.533	0.007436	0.321619	-0.754188	-0.755516	-0.005820	40.6097	-0.754080	-1.068446E+10	5.446834E-13	NaN
291	1.000000	0.330914	7.3679e+06	-53189.1	955.818	-29747.3	0.000000	0.000000	6.330872	-0.013213	NaN	0.000000	0.001662	0.001659	28.0807	0.006056	0.002003	3.023753	-158.559	-164.866	-0.082958	0.329600	-0.746221	-0.747535	-0.013213	3.023753	-0.742943	-7.536042E+9	1.753244E-12	NaN
291	1.000000	0.338901	7.3679e+06	-53189.1	955.818	-29747.3	0.000000	0.000000	6.338860	0.021062	NaN	0.000000	0.001711	0.001690	28.0803	0.024037	0.001883	12.7676	128.133	-167.754	0.011064	0.337619	-0.738234	-0.739516	0.021062	12.7676	-0.739471	-6.758516E+9	-3.116390E-12	NaN
291	1.000000	0.346930	7.3679e+06	-53189.1	955.818	-29747.3	0.000000	0.000000	6.346887	-0.028318	NaN	0.000000	0.001672	0.001701	28.0804	0.012649	0.002015	6.277378	58.7989	-166.448	-0.061328	0.345566	-0.730205	-0.731568	-0.028318	6.277378	-0.726822	-4.544488E+9	6.231302E-12	NaN
291	1.000000	0.354941	7.3679e+06	-53189.1	955.817	-29747.3	0.000000	0.000000	6.354901	0.034731	NaN	0.000000	0.001678	0.001685	28.0804	0.055859	0.002139	26.114	120.964	-164.838	-0.103825	0.353581	-0.722194	-0.723554	0.034731	26.114	-0.723191	-4.054988E+9	-8.564992E-12	NaN
291	1.000000	0.362937	7.3679e+06	-53189.1	955.818	-29747.3	0.000000	0.000000	6.362894	-0.027659	NaN	0.000000	0.001685	0.001665	28.0805	0.049413	0.001945	25.404	129	-161.126	-0.008240	0.361642	-0.714198	-0.715493	-0.027659	25.404	-0.713381	-2.979821E+9	9.282077E-12	NaN
291	1.000000	0.370948	7.3679e+06	-53189.1	955.818	-29747.3	0.000000	0.000000	6.370905	-0.041047	NaN	0.000000	0.001586	0.001729	28.081	0.059861	0.001990	30.0786	102.904	-166.961	-0.081846	0.369629	-0.706186	-0.707506	-0.041047	30.0786	-0.705163	-2.301583E+9	1.783416E-11	NaN
291	1.000000	0.378954	7.3679e+06	-53189.1	955.817	-29747.3	0.000000	0.000000	6.378912	-0.006390	NaN	0.000000	0.001631	0.001701	28.0803	0.113816	0.001976	57.6073	-26.9569	-162.282	-0.002461	0.377608	-0.698181	-0.699527	-0.006390	57.6073	-0.698098	-1.843111E+9	3.467043E-12	NaN
291	1.000000	0.386914	7.3679e+06	-53189.1	955.818	-29747.3	0.000000	0.000000	6.386872	0.001473	NaN	0.000000	0.001622	0.001712	28.0803	0.075416	0.001994	37.8155	-40.6787	-162.682	-0.025340	0.385609	-0.690221	-0.691526	0.001473	37.8155	-0.690250	-1.439919E+9	-1.022686E-12	NaN
291	1.000000	0.394937	7.36791e+06	-53189.1	955.819	-29747.3	0.000000	0.000000	6.394894	-0.011572	NaN	0.000000	0.001618	0.001730	28.0803	0.119520	0.002085	57.3347	-29.323	-164.292	-0.093113	0.393563	-0.682198	-0.683572	-0.011572	57.3347	-0.682047	-1.112232E+9	1.040466E-11	NaN
291	1.000000	0.402922	7.36791e+06	-53189.1	955.818	-29747.3	0.000000	0.000000	6.402878	-0.046297	NaN	0.000000	0.001614	0.001722	28.0802	0.079464	0.002035	39.0567	129.408	-164.63	-0.127666	0.401665	-0.674213	-0.675470	-0.046297	39.0567	-0.673324	-8.450362E+8	5.478689E-11	NaN
291	1.000000	0.410951	7.36791e+06	-53189.1	955.818	-29747.3	0.000000	0.000000	6.410911	0.038950	NaN	0.000000	0.001622	0.001724	28.0803	0.156762	0.002079	75.391	-57.114	-163.46	-0.043144	0.409633	-0.666184	-0.667502	0.038950	75.391	-0.666571	-6.830513E+8	-5.702365E-11	NaN
291	1.000000	0.418963	7.36791e+06	-53189.1	955.817	-29747.3	0.000000	0.000000	6.418919	-0.026725	NaN	0.000000	0.001663	0.001709	28.0799	0.040849	0.001976	20.6732	-47.8272	-163.248	-0.033452	0.417602	-0.658172	-0.659533	-0.026725	20.6732	-0.657203	-5.083344E+8	5.257355E-11	NaN
291	1.000000	0.426973	7.36791e+06	-53189.1	955.818	-29747.3	0.000000	0.000000	6.426927	-0.082362	NaN	0.000000	0.001645	0.001678	28.0802	0.109736	0.001997	54.9394	-176.151	-164.74	-0.058636	0.425667	-0.650162	-0.651468	-0.082362	54.9394	-0.649038	-3.928689E+8	2.096425E-10	NaN
291	1.000000	0.434946	7.36791e+06	-53189.1	955.818	-29747.3	0.000000	0.000000	6.434903	-0.020039	NaN	0.000000	0.001608	0.001661	28.0801	0.133835	0.002039	65.6349	164.32	-163.507	0.064257	0.433644	-0.642189	-0.643491	-0.020039	65.6349	-0.641960	-3.141825E+8	6.378298E-11	NaN
291	1.000000	0.442976	7.36791e+06	-53189.1	955.818	-29747.3	0.000000	0.000000	6.442932	-0.030678	NaN	0.000000	0.001656	0.001666	28.0802	0.045656	0.001899	24.0377	-170.543	-163.235	0.085068	0.441668	-0.634159	-0.635467	-0.030678	24.0377	-0.633202	-2.382264E+8	1.287786E-10	NaN
291	1.000000	0.450961	7.36791e+06	-53189.1	955.818	-29747.3	0.000000	0.000000	6.450917	-0.044643	NaN	0.000000	0.001600	0.001657	28.0788	0.043880	0.002009	21.8388	114.347	-165.752	-0.078092	0.449662	-0.626174	-0.627473	-0.044643	21.8388	-0.624641	-1.817239E+8	2.456619E-10	NaN
291	1.000000	0.458989	7.36791e+06	-53189.1	955.817	-29747.3	0.000000	0.000000	6.458946	-0.015801	NaN	0.000000	0.001642	0.001657	28.0788	0.205812	0.002223	92.5808	151.161	-165.581	-0.035506	0.457659	-0.618146	-0.619476	-0.015801	92.5808	-0.618018	-1.473637E+8	1.072275E-10	NaN
291	1.000000	0.466982	7.36791e+06	-53189.1	955.818	-29747.3	0.000000	0.000000	6.466938	-0.055770	NaN	0.000000	0.001632	0.001663	28.0791	0.050666	0.002020	25.0796	28.559	-163.176	-0.067366	0.465630	-0.610153	-0.611505	-0.055770	25.0796	-0.608485	-1.089599E+8	5.118386E-10	NaN
291	1.000000	0.474955	7.36791e+06	-53189.1	955.818	-29747.3	0.000000	0.000000	6.474914	0.019642	NaN	0.000000	0.001666	0.001624	28.0789	0.040365	0.001993	20.2523	90.3559	-164.528	0.062183	0.473613	-0.602180	-0.603522	0.019642	20.2523	-0.602907	-9.130491E+7	-2.151230E-10	NaN
291	1.000000	0.482967	7.36791e+06	-53189.1	955.818	-29747.3	0.000000	0.000000	6.482927	0.041763	NaN	0.000000	0.001626	0.001651	28.0789	0.072354	0.002026	35.7112	178.382	-162.821	-0.027938	0.481683	-0.594168	-0.595452	0.041763	35.7112	-0.595045	-7.115369E+7	-5.869348E-10	NaN
291	1.000000	0.490974	7.36791e+06	-53189.1	955.818	-29747.3	0.000000	0.000000	6.490929	-0.064948	NaN	0.000000	0.001621	0.001653	28.079	0.081313	0.001853	43.879	-54.3895	-162.086	-0.041889	0.489659	-0.586161	-0.587476	-0.064948	43.879	-0.585051	-5.181095E+7	1.253549E-9	NaN
291	1.000000	0.498961	7.36791e+06	-53189.1	955.818	-29747.3	0.000000	0.000000	6.498920	0.020289	NaN	0.000000	0.001587	0.001640	28.0792	0.055530	0.002107	26.3555	78.2913	-164.962	-0.018680	0.497710	-0.578174	-0.579425	0.020289	26.3555	-0.578751	-4.241191E+7	-4.783689E-10	NaN
291	1.000000	0.506977	7.36791e+06	-53189.1	955.819	-29747.3	0.000000	0.000000	6.506932	-0.068284	NaN	0.000000	0.001596	0.001636	28.0789	0.042117	0.002025	20.8031	-58.601	-162.909	-0.026639	0.505655	-0.570158	-0.571480	-0.068284	20.8031	-0.567696	-2.983988E+7	2.288345E-9	NaN
291	1.000000	0.514975	7.36791e+06	-53189.1	955.818	-29747.3	0.000000	0.000000	6.514935	0.031320	NaN	0.000000	0.001607	0.001646	28.079	0.050203	0.001990	25.224	105.882	-163.581	0.021492	0.513706	-0.562160	-0.563429	0.031320	25.224	-0.563091	-2.577078E+7	-1.215348E-9	NaN
291	1.000000	0.522992	7.36791e+06	-53189.1	955.819	-29747.3	0.000000	0.000000	6.522949	-0.001849	NaN	0.000000	0.001594	0.001636	28.079	0.027191	0.002046	13.2905	174.024	-163.771	0.025923	0.521664	-0.554143	-0.555471	-0.001849	13.2905	-0.554039	-1.931461E+7	9.573872E-11	NaN
291	1.000000	0.530994	7.36791e+06	-53189.1	955.818	-29747.3	0.000000	0.000000	6.530952	0.012544	NaN	0.000000	0.001598	0.001645	28.0788	0.050528	0.002155	23.4519	-163.311	-163.761	0.084157	0.529658	-0.546141	-0.547477	0.012544	23.4519	-0.546542	-1.520730E+7	-8.248791E-10	NaN
291	1.000000	0.538992	7.36791e+06	-53189.1	955.818	-29747.3	0.000000	0.000000	6.538949	-0.028318	NaN	0.000000	0.001617	0.001661	28.0792	0.083667	0.002133	39.2277	-167.602	-165.326	-0.043810	0.537734	-0.538143	-0.539400	-0.028318	39.2277	-0.537601	-1.143095E+7	2.477345E-9	NaN
291	1.000000	0.546984	7.36791e+06	-53189.1	955.817	-29747.3	0.000000	0.000000	6.546938	-0.088747	NaN	0.000000	0.001633	0.001644	28.0788	0.073661	0.002042	36.0668	59.3846	-162.757	-0.114281	0.545698	-0.530151	-0.531437	-0.088747	36.0668	-0.528306	-8.49259e+06	1.044997E-8	NaN
291	1.000000	0.554988	7.36791e+06	-53189.1	955.819	-29747.3	0.000000	0.000000	6.554944	-0.046891	NaN	0.000000	0.001629	0.001675	28.0788	0.135781	0.002119	64.0648	-89.9908	-162.264	-0.083642	0.553706	-0.522147	-0.523429	-0.046891	64.0648	-0.521598	-6.852e+06	6.843401E-9	NaN
291	1.000000	0.563034	7.36791e+06	-53189.1	955.818	-29747.3	0.000000	0.000000	6.562991	-0.017081	NaN	0.000000	0.001638	0.001629	28.0789	0.048491	0.001940	24.9963	-155.754	-163.865	-0.035158	0.561693	-0.514101	-0.515442	-0.017081	24.9963	-0.513588	-5.30129e+06	3.222135E-9	NaN
291	1.000000	0.570990	7.36791e+06	-53189.1	955.818	-29747.3	0.000000	0.000000	6.570949	0.036697	NaN	0.000000	0.001629	0.001666	28.0789	0.055733	0.001899	29.3439	-25.8663	-165.721	0.044762	0.569712	-0.506145	-0.507423	0.036697	29.3439	-0.507083	-4.30309e+06	-8.528008E-9	NaN
291	1.000000	0.579018	7.36791e+06	-53189.1	955.818	-29747.3	0.000000	0.000000	6.578974	-0.041096	NaN	0.000000	0.001606	0.001628	28.0792	0.015570	0.002032	7.662638	35.7406	-162.111	-0.082531	0.577749	-0.498117	-0.499386	-0.041096	7.662638	-0.494095	-2.83526e+06	1.449469E-8	NaN
291	1.000000	0.587026	7.36791e+06	-53189.1	955.818	-29747.3	0.000000	0.000000	6.586984	0.012221	NaN	0.000000	0.001629	0.001649	28.0802	0.080034	0.001930	41.4766	-16.9539	-161.083	0.038196	0.585729	-0.490109	-0.491406	0.012221	41.4766	-0.490330	-2.5119e+06	-4.865225E-9	NaN
291	1.000000	0.595030	7.36791e+06	-53189.1	955.818	-29747.3	0.000000	0.000000	6.594986	-0.038661	NaN	0.000000	0.001603	0.001682	28.0804	0.064780	0.001998	32.4147	-149.096	-164.289	-0.045636	0.593703	-0.482105	-0.483432	-0.038661	32.4147	-0.481210	-1.8727e+06	2.064446E-8	NaN
291	1.000000	0.603029	7.36791e+06	-53189.1	955.817	-29747.3	0.000000	0.000000	6.602985	-0.046603	NaN	0.000000	0.001616	0.001676	28.0803	0.093843	0.001972	47.5864	156.851	-164.221	-0.119807	0.601716	-0.474106	-0.475419	-0.046603	47.5864	-0.473372	-1.45439e+06	3.204305E-8	NaN
291	1.000000	0.611012	7.36791e+06	-53189.1	955.819	-29747.3	0.000000	0.000000	6.610970	0.012187	NaN	0.000000	0.001605	0.001657	28.0801	0.090545	0.001942	46.6313	135.105	-165.902	-0.123173	0.609720	-0.466123	-0.467415	0.012187	46.6313	-0.466319	-1.15815e+06	-1.052251E-8	NaN
291	1.000000	0.619046	7.36791e+06	-53189.1	955.817	-29747.3	0.000000	0.000000	6.619002	-0.053318	NaN	0.000000	0.001612	0.001638	28.0804	0.040302	0.002064	19.5302	-127.565	-161.4	-0.019084	0.617709	-0.458088	-0.459426	-0.053318	19.5302	-0.456041	-830538	6.419636E-8	NaN
291	1.000000	0.627028	7.36791e+06	-53189.1	955.819	-29747.3	0.000000	0.000000	6.626985	-0.009163	NaN	0.000000	0.001629	0.001627	28.0802	0.017598	0.002099	8.384915	173.688	-166.218	-0.066994	0.625712	-0.450107	-0.451423	-0.009163	8.384915	-0.449288	-667281	1.373246E-8	NaN
291	1.000000	0.635028	7.36791e+06	-53189.1	955.818	-29747.3	0.000000	0.000000	6.634987	0.015128	NaN	0.000000	0.001620	0.001645	28.0804	0.077916	0.001843	42.268	36.1665	-163.676	0.071557	0.633733	-0.442107	-0.443402	0.015128	42.268	-0.442375	-533184	-2.837327E-8	NaN
291	1.000000	0.643054	7.36791e+06	-53189.1	955.819	-29747.3	0.000000	0.000000	6.643009	-0.066222	NaN	0.000000	0.001614	0.001631	28.0798	0.029196	0.002031	14.3784	83.153	-165.173	0.023146	0.641761	-0.434081	-0.435374	-0.066222	14.3784	-0.430627	-363860	1.819986E-7	NaN
291	1.000000	0.651042	7.36791e+06	-53189.1	955.819	-29747.3	0.000000	0.000000	6.651001	0.040132	NaN	0.000000	0.001617	0.001618	28.0798	0.077969	0.002157	36.1442	29.9698	-167.385	0.051756	0.649762	-0.426093	-0.427373	0.040132	36.1442	-0.426926	-322517	-1.244349E-7	NaN
291	1.000000	0.659072	7.36791e+06	-53189.1	955.819	-29747.3	0.000000	0.000000	6.659027	-0.069071	NaN	0.000000	0.001573	0.001619	28.0802	0.076951	0.002087	36.8784	15.5726	-165.999	-0.160917	0.657694	-0.418063	-0.419441	-0.069071	36.8784	-0.416658	-230674	2.994325E-7	NaN
291	1.000000	0.667041	7.36791e+06	-53189.1	955.819	-29747.3	0.000000	0.000000	6.667001	0.056730	NaN	0.000000	0.001627	0.001627	28.0801	0.054382	0.001958	27.7715	-118.693	-163.361	-0.026797	0.665740	-0.410094	-0.411395	0.056730	27.7715	-0.411626	-195667	-2.899296E-7	NaN
291	1.000000	0.675080	7.36791e+06	-53189.1	955.818	-29747.3	0.000000	0.000000	6.675037	-0.009025	NaN	0.000000	0.001632	0.001675	28.0804	0.126430	0.001948	64.9172	-169.52	-163.452	0.071977	0.673720	-0.402055	-0.403415	-0.009025	64.9172	-0.401951	-142498	6.333297E-8	NaN
291	1.000000	0.683074	7.36791e+06	-53189.1	955.818	-29747.3	0.000000	0.000000	6.683028	-0.091207	NaN	0.000000	0.001601	0.001632	28.0802	0.045867	0.002040	22.4868	142.884	-165.57	-0.036346	0.681787	-0.394061	-0.395348	-0.091207	22.4868	-0.391019	-99482.6	9.168120E-7	NaN
291	1.000000	0.691080	7.36791e+06	-53189.1	955.818	-29747.3	0.000000	0.000000	6.691037	-0.031354	NaN	0.000000	0.001647	0.001678	28.0802	0.135668	0.002013	67.4043	171.818	-163.738	-0.031166	0.689779	-0.386055	-0.387356	-0.031354	67.4043	-0.385706	-83501.8	3.754949E-7	NaN
291	1.000000	0.699064	7.36791e+06	-53189.1	955.818	-29747.3	0.000000	0.000000	6.699018	-0.098135	NaN	0.000000	0.001629	0.001636	28.08	0.102317	0.002048	49.9683	39.548	-166.998	-0.084971	0.697784	-0.378071	-0.379351	-0.098135	49.9683	-0.376598	-61806.2	1.587777E-6	NaN
291	1.000000	0.707098	7.36791e+06	-53189.1	955.82	-29747.3	0.000000	0.000000	6.707056	-0.005165	NaN	0.000000	0.001612	0.001610	28.0802	0.021456	0.002002	10.7162	-61.2167	-166.597	-0.081057	0.705765	-0.370037	-0.371370	-0.005165	10.7162	-0.369675	-49141.8	1.051004E-7	NaN
291	1.000000	0.715063	7.36791e+06	-53189.1	955.819	-29747.3	0.000000	0.000000	6.715020	-0.017604	NaN	0.000000	0.001606	0.001619	28.0802	0.051426	0.001971	26.0885	-146.233	-163.249	-0.035157	0.713803	-0.362072	-0.363332	-0.017604	26.0885	-0.361566	-37538.2	4.689641E-7	NaN
291	1.000000	0.723037	7.36791e+06	-53189.1	955.818	-29747.3	0.000000	0.000000	6.722996	0.048831	NaN	0.000000	0.001607	0.001657	28.0789	0.015907	0.001906	8.347505	123.682	-161.261	-0.038410	0.721753	-0.354098	-0.355382	0.048831	8.347505	-0.358486	-33880.5	-1.441269E-6	NaN
291	1.000000	0.731072	7.36791e+06	-53189.1	955.818	-29747.3	0.000000	0.000000	6.731029	-0.016194	NaN	0.000000	0.001618	0.001645	28.0806	0.032140	0.001963	16.3707	-12.4248	-166.392	-0.047340	0.729804	-0.346063	-0.347331	-0.016194	16.3707	-0.345321	-21828.8	7.418481E-7	NaN
291	1.000000	0.739091	7.36791e+06	-53189.1	955.818	-29747.3	0.000000	0.000000	6.739047	-0.039271	NaN	0.000000	0.001623	0.001668	28.0789	0.048895	0.002019	24.2227	-14.6889	-167.388	0.014149	0.737732	-0.338044	-0.339403	-0.039271	24.2227	-0.336828	-16416.8	2.392094E-6	NaN
291	1.000000	0.747082	7.36791e+06	-53189.1	955.818	-29747.3	0.000000	0.000000	6.747037	-0.077340	NaN	0.000000	0.001619	0.001637	28.0789	0.103561	0.002096	49.3976	122.743	-165.21	-0.097204	0.745741	-0.330053	-0.331394	-0.077340	49.3976	-0.328879	-12561	6.157137E-6	NaN
291	1.000000	0.755096	7.36791e+06	-53189.1	955.819	-29747.3	0.000000	0.000000	6.755053	-0.022796	NaN	0.000000	0.001603	0.001649	28.0788	0.074000	0.002031	36.4292	146.46	-166.71	-0.011305	0.753797	-0.322039	-0.323338	-0.022796	36.4292	-0.321570	-9811.4	2.323463E-6	NaN
291	1.000000	0.763104	7.36791e+06	-53189.1	955.816	-29747.3	0.000000	0.000000	6.763062	0.016261	NaN	0.000000	0.001626	0.001638	28.0789	0.061733	0.002007	30.7641	-125.151	-166.521	-0.043606	0.761772	-0.314031	-0.315363	0.016261	30.7641	-0.314428	-7700.21	-2.111725E-6	NaN
291	1.000000	0.771142	7.36791e+06	-53189.1	955.817	-29747.3	0.000000	0.000000	6.771101	0.028545	NaN	0.000000	0.001609	0.001645	28.0791	0.092362	0.002049	45.0852	126.78	-167.865	0.027121	0.769815	-0.305993	-0.307320	0.028545	45.0852	-0.306468	-5871.31	-4.861823E-6	NaN
291	1.000000	0.779101	7.36791e+06	-53189.1	955.818	-29747.3	0.000000	0.000000	6.779058	-0.010809	NaN	0.000000	0.001633	0.001633	28.0789	0.025738	0.002024	12.7134	-29.2236	-163.183	-0.012637	0.777830	-0.298034	-0.299305	-0.010809	12.7134	-0.297397	-4303.76	2.511517E-6	NaN
291	1.000000	0.787100	7.36791e+06	-53189.1	955.818	-29747.3	0.000000	0.000000	6.787060	0.054641	NaN	0.000000	0.001588	0.001621	28.0791	0.041261	0.001920	21.4951	132.257	-164.316	0.055131	0.785819	-0.290035	-0.291316	0.054641	21.4951	-0.291942	-3567.61	-1.531581E-5	NaN
291	1.000000	0.795113	7.36791e+06	-53189.1	955.819	-29747.3	0.000000	0.000000	6.795069	-0.023671	NaN	0.000000	0.001566	0.001638	28.0789	0.014327	0.001918	7.471562	37.3212	-167.147	-0.030328	0.793827	-0.282022	-0.283308	-0.023671	7.471562	-0.279646	-2331.49	1.015274E-5	NaN
291	1.000000	0.803107	7.36791e+06	-53189.1	955.818	-29747.3	0.000000	0.000000	6.803065	-0.000987	NaN	0.000000	0.001593	0.001637	28.0789	0.050789	0.001914	26.5355	44.8874	-164.524	0.002196	0.801759	-0.274028	-0.275376	-0.000987	26.5355	-0.274000	-1915.35	5.151330E-7	NaN
291	1.000000	0.811110	7.36791e+06	-53189.1	955.819	-29747.3	0.000000	0.000000	6.811068	0.006935	NaN	0.000000	0.001601	0.001670	28.0791	0.057416	0.001873	30.6496	-85.7101	-165.396	-0.038466	0.809805	-0.266025	-0.267330	0.006935	30.6496	-0.266195	-1457.53	-4.758036E-6	NaN
291	1.000000	0.819130	7.36791e+06	-53189.1	955.819	-29747.3	0.000000	0.000000	6.819090	0.054557	NaN	0.000000	0.001610	0.001635	28.0788	0.054056	0.001997	27.0628	-55.602	-165.742	0.009810	0.817749	-0.258005	-0.259386	0.054557	27.0628	-0.259516	-1152.14	-4.735239E-5	NaN
291	1.000000	0.827136	7.36791e+06	-53189.1	955.817	-29747.3	0.000000	0.000000	6.827097	0.076759	NaN	0.000000	0.001634	0.001659	28.079	0.188915	0.002057	91.8344	160.084	-163.204	0.104213	0.825822	-0.249999	-0.251313	0.076759	91.8344	-0.250626	-840.714	-9.130265E-5	NaN
291	1.000000	0.835126	7.36791e+06	-53189.1	955.817	-29747.3	0.000000	0.000000	6.835084	-0.014731	NaN	0.000000	0.001600	0.001645	28.0789	0.105582	0.002007	52.6011	-0.939227	-165.271	0.003689	0.833798	-0.242009	-0.243337	-0.014731	52.6011	-0.241799	-613.224	2.402183E-5	NaN
291	1.000000	0.843146	7.36791e+06	-53189.1	955.818	-29747.3	0.000000	0.000000	6.843105	0.024847	NaN	0.000000	0.001612	0.001649	28.0789	0.067831	0.002092	32.4299	153.524	-167.948	0.081766	0.841776	-0.233989	-0.235359	0.024847	32.4299	-0.234564	-472.497	-5.258594E-5	NaN
291	1.000000	0.851118	7.36791e+06	-53189.1	955.818	-29747.3	0.000000	0.000000	6.851078	0.052640	NaN	0.000000	0.001615	0.001652	28.0791	0.108640	0.001980	54.8681	91.0062	-163.672	0.018706	0.849875	-0.226017	-0.227260	0.052640	54.8681	-0.226737	-355.543	-0.000148	NaN
291	1.000000	0.859122	7.36791e+06	-53189.1	955.819	-29747.3	0.000000	0.000000	6.859079	-0.026682	NaN	0.000000	0.001614	0.001660	28.0801	0.035580	0.001956	18.187	114.018	-167.13	-0.064546	0.857838	-0.218013	-0.219297	-0.026682	18.187	-0.216913	-247.88	0.000108	NaN
291	1.000000	0.867141	7.36791e+06	-53189.1	955.818	-29747.3	0.000000	0.000000	6.867098	-0.001636	NaN	0.000000	0.001618	0.001669	28.0805	0.068330	0.001970	34.6827	12.5869	-163.461	0.030927	0.865873	-0.209994	-0.211262	-0.001636	34.6827	-0.209959	-191.494	8.545027E-6	NaN
291	1.000000	0.875147	7.36791e+06	-53189.1	955.819	-29747.3	0.000000	0.000000	6.875102	-0.059321	NaN	0.000000	0.001580	0.001695	28.0802	0.022915	0.002143	10.6927	79.3956	-164.883	-0.038607	0.873811	-0.201988	-0.203324	-0.059321	10.6927	-0.197827	-121.318	0.000489	NaN
291	1.000000	0.883148	7.36791e+06	-53189.1	955.818	-29747.3	0.000000	0.000000	6.883105	-0.016626	NaN	0.000000	0.001621	0.001694	28.0802	0.088414	0.001927	45.8803	-95.9202	-167.003	-0.022626	0.881816	-0.193987	-0.195319	-0.016626	45.8803	-0.193715	-103.728	0.000160	NaN
291	1.000000	0.891124	7.36791e+06	-53189.1	955.818	-29747.3	0.000000	0.000000	6.891082	-0.001302	NaN	0.000000	0.001593	0.001666	28.0802	0.065085	0.001969	33.0621	54.2209	-162.719	0.005530	0.889859	-0.186011	-0.187276	-0.001302	33.0621	-0.185981	-77.0295	1.690145E-5	NaN
291	1.000000	0.899119	7.36791e+06	-53189.1	955.818	-29747.3	0.000000	0.000000	6.899073	-0.096708	NaN	0.000000	0.001583	0.001704	28.0799	0.046271	0.002067	22.3813	64.0815	-167.425	-0.183258	0.897865	-0.178016	-0.179270	-0.096708	22.3813	-0.174775	-49.6727	0.001947	NaN
291	1.000000	0.907142	7.36791e+06	-53189.1	955.82	-29747.3	0.000000	0.000000	6.907098	-0.051928	NaN	0.000000	0.001603	0.001661	28.0804	0.087727	0.001985	44.1862	-82.2116	-166.445	-0.048296	0.905825	-0.169993	-0.171310	-0.051928	44.1862	-0.169111	-39.6433	0.001310	NaN
291	1.000000	0.915136	7.36791e+06	-53189.1	955.819	-29747.3	0.000000	0.000000	6.915094	-0.008360	NaN	0.000000	0.001604	0.001690	28.0801	0.073452	0.001957	37.5254	-60.3003	-164.453	0.073192	0.913873	-0.161999	-0.163262	-0.008360	37.5254	-0.161831	-29.5433	0.000283	NaN
291	1.000000	0.923135	7.36791e+06	-53189.1	955.819	-29747.3	0.000000	0.000000	6.923094	0.029526	NaN	0.000000	0.001597	0.001673	28.0802	0.060618	0.001945	31.1732	97.9281	-162.12	0.015542	0.921829	-0.154000	-0.155306	0.029526	31.1732	-0.154711	-22.0482	-0.001339	NaN
291	1.000000	0.931171	7.36791e+06	-53189.1	955.817	-29747.3	0.000000	0.000000	6.931127	-0.040397	NaN	0.000000	0.001574	0.001677	28.0801	0.157331	0.002095	75.0929	-84.2287	-163.487	-0.048780	0.929820	-0.145964	-0.147315	-0.040397	75.0929	-0.145561	-15.0154	0.002690	NaN
291	1.000000	0.939153	7.36791e+06	-53189.1	955.818	-29747.3	0.000000	0.000000	6.939109	-0.049686	NaN	0.000000	0.001598	0.001659	28.0803	0.028900	0.001989	14.5276	-17.4952	-162.873	-0.091131	0.937880	-0.137982	-0.139255	-0.049686	14.5276	-0.135417	-9.688299	0.005128	NaN
291	1.000000	0.947170	7.36791e+06	-53189.1	955.818	-29747.3	0.000000	0.000000	6.947128	0.002595	NaN	0.000000	0.001635	0.001658	28.0805	0.033658	0.002010	16.7427	93.0351	-166.624	-0.071146	0.945906	-0.129965	-0.131229	0.002595	16.7427	-0.130081	-7.648578	-0.000339	NaN
291	1.000000	0.955165	7.36791e+06	-53189.1	955.818	-29747.3	0.000000	0.000000	6.955119	-0.075152	NaN	0.000000	0.001595	0.001669	28.0801	0.068528	0.001997	34.3089	-118.51	-163.776	-0.022441	0.953902	-0.121970	-0.123233	-0.075152	34.3089	-0.120327	-4.905523	0.015320	NaN
291	1.000000	0.963168	7.36791e+06	-53189.1	955.818	-29747.3	0.000000	0.000000	6.963123	-0.072804	NaN	0.000000	0.001593	0.001651	28.0807	0.063443	0.002063	30.7573	-39.6139	-165.533	-0.026463	0.961887	-0.113967	-0.115248	-0.072804	30.7573	-0.112192	-3.340818	0.021792	NaN
291	1.000000	0.971158	7.36791e+06	-53189.1	955.817	-29747.3	0.000000	0.000000	6.971115	-0.028455	NaN	0.000000	0.001605	0.001691	28.0804	0.069414	0.002046	33.9266	116.221	-165.79	-0.026919	0.969857	-0.105977	-0.107278	-0.028455	33.9266	-0.105348	-2.391555	0.011898	NaN
291	1.000000	0.979195	7.36791e+06	-53189.1	955.817	-29747.3	0.000000	0.000000	6.979151	-0.050965	NaN	0.000000	0.001626	0.001734	28.0804	0.168886	0.002150	78.5548	-79.2541	-166.278	-0.039158	0.977881	-0.097940	-0.099254	-0.050965	78.5548	-0.097453	-1.603003	0.031793	NaN
291	1.000000	0.987192	7.36791e+06	-53189.1	955.817	-29747.3	0.000000	0.000000	6.987148	-0.033137	NaN	0.000000	0.001627	0.001698	28.0803	0.058690	0.001993	29.4524	-119.454	-166.266	-0.004287	0.985859	-0.089943	-0.091276	-0.033137	29.4524	-0.089100	-1.029517	0.032187	NaN
291	1.000000	0.995176	7.36791e+06	-53189.1	955.818	-29747.3	0.000000	0.000000	6.995133	-0.022993	NaN	0.000000	0.001633	0.001668	28.0793	0.012673	0.001948	6.504635	-129.11	-164.802	0.008014	0.993909	-0.081959	-0.083226	-0.022993	6.504635	-0.079308	-0.594755	0.038660	NaN
291	1.000000	1.003207	7.36791e+06	-53189.1	955.817	-29747.3	0.000000	0.000000	7.003166	0.036052	NaN	0.000000	0.001636	0.001705	28.0793	0.083217	0.002052	40.5463	11.8701	-164.769	0.073983	1.001867	-0.073928	-0.075268	0.036052	40.5463	-0.074595	-0.450848	-0.079965	NaN
291	1.000000	1.011214	7.36791e+06	-53189.1	955.817	-29747.3	0.000000	0.000000	7.011171	-0.006041	NaN	0.000000	0.001575	0.001723	28.0792	0.026827	0.001898	14.135	1.962196	-164.479	0.067289	1.009914	-0.065921	-0.067221	-0.006041	14.135	-0.065601	-0.258943	0.023328	NaN
291	1.000000	1.019199	7.36791e+06	-53189.1	955.817	-29747.3	0.000000	0.000000	7.019157	-0.003085	NaN	0.000000	0.001584	0.001762	28.0794	0.083554	0.002015	41.4638	69.2307	-163.85	-0.055286	1.017860	-0.057936	-0.059275	-0.003085	41.4638	-0.057880	-0.156414	0.019722	NaN
291	1.000000	1.027191	7.36791e+06	-53189.1	955.818	-29747.3	0.000000	0.000000	7.027148	-0.025200	NaN	0.000000	0.001599	0.001775	28.0792	0.045605	0.001826	24.9763	-54.6732	-161.753	-0.055770	1.025859	-0.049944	-0.051276	-0.025200	24.9763	-0.049187	-0.086221	0.292272	NaN
291	1.000000	1.035193	7.36791e+06	-53189.1	955.818	-29747.3	0.000000	0.000000	7.035152	0.044303	NaN	0.000000	0.001610	0.001743	28.079	0.024661	0.001938	12.7235	179.778	-160.388	0.065708	1.033886	-0.041942	-0.043249	0.044303	12.7235	-0.044554	-0.062280	-0.711349	NaN
291	1.000000	1.043219	7.36791e+06	-53189.1	955.818	-29747.3	0.000000	0.000000	7.043177	-0.001552	NaN	0.000000	0.001617	0.001753	28.079	0.083546	0.001953	42.771	-179.419	-166.399	0.000622	1.041954	-0.033916	-0.035181	-0.001552	42.771	-0.033889	-0.029711	0.052224	NaN
291	1.000000	1.051201	7.36791e+06	-53189.1	955.818	-29747.3	0.000000	0.000000	7.051157	-0.057012	NaN	0.000000	0.001635	0.001730	28.0789	0.121195	0.002070	58.5607	-86.3847	-167.293	-0.065755	1.049946	-0.025934	-0.027189	-0.057012	58.5607	-0.025203	-0.017078	3.338284	NaN
291	1.000000	1.059207	7.36791e+06	-53189.1	955.818	-29747.3	0.000000	0.000000	7.059166	0.008656	NaN	0.000000	0.001617	0.001710	28.0792	0.040096	0.002161	18.5551	-70.3846	-166.896	0.008907	1.057937	-0.017928	-0.019198	0.008656	18.5551	-0.018278	-0.011349	-0.762751	NaN
291	1.000000	1.067208	7.36791e+06	-53189.1	955.818	-29747.3	0.000000	0.000000	7.067166	-0.011301	NaN	0.000000	0.001611	0.001729	28.0789	0.087263	0.001986	43.9414	-13.8577	-162.662	0.044152	1.065936	-0.009927	-0.011199	-0.011301	43.9414	-0.009734	-0.006235	1.812490	NaN
291	1.000000	1.075221	7.36791e+06	-53189.1	955.819	-29747.3	0.000000	0.000000	7.075173	-0.143189	NaN	0.000000	0.001598	0.001738	28.079	0.079748	0.001953	40.8352	-157.663	-166.952	-0.125153	1.073916	-0.001913	-0.003219	-0.143189	40.8352	0.000716	0.000543	-263.743	1601.19
291	1.000000	1.083196	7.36791e+06	-53189.1	955.817	-29747.3	0.000000	0.000000	7.083284	3.169042	NaN	0.000000	0.001616	0.001734	28.0789	4.011415	0.002004	2001.83	14.5344	-168.58	2.165852	1.081858	0.006061	0.004723	3.169042	2001.83	0.004874	0.004018	788.626	28851.7
291	2.000000	1.089775	7.36791e+06	-53189.1	955.818	-29747.3	0.000000	0.000000	7.090154	10.2445	NaN	0.000000	0.001621	0.001729	28.079	9.588671	0.001682	5701.28	8.651929	-171.001	10.831	1.089309	0.012640	0.012174	10.2445	5701.28	0.011292	0.010653	961.617	50466.3
291	2.000000	1.091760	7.36791e+06	-53189.1	955.818	-29747.3	0.000000	0.000000	7.092231	12.4767	NaN	0.000000	0.001590	0.001739	28.0792	11.3703	0.001617	7029.86	5.176931	-172.162	11.7194	1.091469	0.014625	0.014334	12.4767	7029.86	0.013294	0.013077	954.122	56165.8
291	2.000000	1.093767	7.36791e+06	-53189.1	955.817	-29747.3	0.000000	0.000000	7.094367	15.6146	NaN	0.000000	0.001609	0.001718	28.0788	13.938	0.001689	8252.52	7.461139	-175.791	14.4617	1.093405	0.016632	0.016270	15.6146	8252.52	0.015213	0.015571	1002.82	60423.4
291	2.000000	1.095679	7.36791e+06	-53189.1	955.818	-29747.3	0.000000	0.000000	7.096413	18.8706	NaN	0.000000	0.001602	0.001663	28.0795	16.3554	0.001755	9319.93	6.215811	-177.008	17.7605	1.095436	0.018544	0.018301	18.8706	9319.93	0.017025	0.018082	1043.62	63323.5
291	2.000000	1.097702	7.36791e+06	-53189.1	955.817	-29747.3	0.000000	0.000000	7.098533	21.2084	NaN	0.000000	0.001591	0.001680	28.0789	18.4844	0.001734	10657.2	4.246360	-175.243	20.3184	1.097444	0.020568	0.020309	21.2084	10657.2	0.019075	0.021109	1004.68	67015.7
291	2.000000	1.099720	7.36791e+06	-53189.1	955.818	-29747.3	0.000000	0.000000	7.100783	26.8604	NaN	0.000000	0.001561	0.001683	28.0798	19.9798	0.001665	11998.1	5.981622	-177.797	27.0758	1.099423	0.022585	0.022288	26.8604	11998.1	0.020906	0.023986	1119.83	70779
291	2.000000	1.101712	7.36791e+06	-53189.1	955.817	-29747.3	0.000000	0.000000	7.103064	33.9046	NaN	0.000000	0.001612	0.001665	28.0802	22.577	0.001805	12505.3	5.372161	-176.188	33.4039	1.101289	0.024577	0.024154	33.9046	12505.3	0.022543	0.026697	1269.96	69925.2
291	2.000000	1.103713	7.36791e+06	-53189.1	955.818	-29747.3	0.000000	0.000000	7.105201	37.2012	NaN	0.000000	0.001555	0.001702	28.0801	24.3065	0.001856	13093.5	5.053024	-175.989	36.4568	1.103404	0.026578	0.026269	37.2012	13093.5	0.024447	0.030018	1239.29	69046
291	2.000000	1.105691	7.36791e+06	-53189.1	955.818	-29747.3	0.000000	0.000000	7.107406	42.7373	NaN	0.000000	0.001578	0.001712	28.0813	26.699	0.001801	14826.4	6.580021	-179.498	41.7843	1.105305	0.028556	0.028170	42.7373	14826.4	0.026394	0.033600	1271.95	73899.1
291	2.000000	1.107695	7.36791e+06	-53189.1	955.818	-29747.3	0.000000	0.000000	7.109527	45.5592	NaN	0.000000	0.001568	0.001705	28.0801	28.4605	0.001745	16312	3.557563	-178.627	44.9497	1.107396	0.030560	0.030261	45.5592	16312	0.028466	0.037623	1210.93	76833.6
291	2.000000	1.109651	7.36791e+06	-53189.1	955.819	-29747.3	0.000000	0.000000	7.111762	52.3481	NaN	0.000000	0.001553	0.001727	28.0802	29.8371	0.001730	17245.6	5.910212	179.203	51.0581	1.109340	0.032516	0.032205	52.3481	17245.6	0.030240	0.041242	1269.29	77585.5
291	2.000000	1.111622	7.36791e+06	-53189.1	955.819	-29747.3	0.000000	0.000000	7.114016	59.2146	NaN	0.000000	0.001566	0.001717	28.0805	32.0623	0.001836	17458.9	2.105754	-176.335	56.6649	1.111328	0.034487	0.034193	59.2146	17458.9	0.031944	0.044869	1319.73	75304
291	2.000000	1.113668	7.36791e+06	-53189.1	955.818	-29747.3	0.000000	0.000000	7.116347	66.1561	NaN	0.000000	0.001534	0.001702	28.08	34.8751	0.001866	18690.8	5.951359	179.161	65.8088	1.113334	0.036533	0.036199	66.1561	18690.8	0.033879	0.049167	1345.53	77013
291	2.000000	1.115647	7.36791e+06	-53189.1	955.817	-29747.3	0.000000	0.000000	7.118534	71.2319	NaN	0.000000	0.001572	0.001704	28.0802	36.0125	0.001758	20484.8	6.992114	176.788	70.0885	1.115356	0.038512	0.038221	71.2319	20484.8	0.035904	0.053872	1322.25	80635.5
291	2.000000	1.117701	7.36791e+06	-53189.1	955.818	-29747.3	0.000000	0.000000	7.120662	73.0109	NaN	0.000000	0.001571	0.001670	28.08	38.6841	0.001849	20923.4	6.580534	177.545	74.9852	1.117321	0.040566	0.040187	73.0109	20923.4	0.037949	0.058835	1240.94	78811.4
291	2.000000	1.119679	7.36791e+06	-53189.1	955.818	-29747.3	0.000000	0.000000	7.123069	83.4492	NaN	0.000000	0.001556	0.001688	28.0802	39.1981	0.001814	21607.3	4.639976	178.353	83.7278	1.119342	0.042544	0.042207	83.4492	21607.3	0.039647	0.063120	1322.07	78575.9
291	2.000000	1.121633	7.36791e+06	-53189.1	955.818	-29747.3	0.000000	0.000000	7.125483	94.6146	NaN	0.000000	0.001561	0.001668	28.0801	42.1688	0.001872	22526.3	5.574116	178.569	94.1008	1.121266	0.044498	0.044131	94.6146	22526.3	0.041348	0.067559	1400.47	79180.9
291	2.000000	1.123676	7.36791e+06	-53189.1	955.817	-29747.3	0.000000	0.000000	7.127706	99.0161	NaN	0.000000	0.001565	0.001674	28.0799	43.1943	0.001778	24295.1	1.291493	-177.922	100.067	1.123354	0.046541	0.046219	99.0161	24295.1	0.043484	0.073342	1350.07	81962.6
291	2.000000	1.125600	7.36791e+06	-53189.1	955.82	-29747.3	0.000000	0.000000	7.130062	109.497	NaN	0.000000	0.001542	0.001694	28.0803	45.0603	0.001802	25008.6	4.688266	177.707	109.052	1.125324	0.048465	0.048189	109.497	25008.6	0.045181	0.078103	1401.96	81757.7
291	2.000000	1.127691	7.36791e+06	-53189.1	955.818	-29747.3	0.000000	0.000000	7.132349	114.286	NaN	0.000000	0.001552	0.001649	28.08	48.0011	0.001831	26217.6	9.516795	172.868	116.451	1.127249	0.050556	0.050114	114.286	26217.6	0.047286	0.084211	1357.15	82543.6
291	2.000000	1.129629	7.36791e+06	-53189.1	955.818	-29747.3	0.000000	0.000000	7.134812	127.033	NaN	0.000000	0.001598	0.001678	28.0802	48.8883	0.001713	28539.1	7.072958	174.471	126.396	1.129255	0.052494	0.052120	127.033	28539.1	0.049156	0.089822	1414.27	87000.6
291	2.000000	1.131636	7.36791e+06	-53189.1	955.819	-29747.3	0.000000	0.000000	7.137034	132.283	NaN	0.000000	0.001594	0.001683	28.0805	51.2442	0.001740	29457.2	6.940297	173.481	134.149	1.131350	0.054501	0.054215	132.283	29457.2	0.051133	0.095947	1378.71	86886.1
291	2.000000	1.133618	7.36791e+06	-53189.1	955.817	-29747.3	0.000000	0.000000	7.139532	144.827	NaN	0.000000	0.001573	0.001679	28.0792	53.389	0.001762	30299	9.216779	172.122	143.399	1.133233	0.056483	0.056098	144.827	30299	0.052898	0.101580	1425.74	86855.5
291	2.000000	1.135691	7.36791e+06	-53189.1	955.819	-29747.3	0.000000	0.000000	7.141795	149.425	NaN	0.000000	0.001577	0.001713	28.0788	54.0402	0.001643	32891.6	3.492934	177.117	154.027	1.135288	0.058556	0.058153	149.425	32891.6	0.055149	0.108990	1371	91025.9
291	2.000000	1.137633	7.36791e+06	-53189.1	955.819	-29747.3	0.000000	0.000000	7.144298	163.056	NaN	0.000000	0.001592	0.001697	28.079	57.9952	0.001958	29621.4	6.446698	175.54	165.004	1.137306	0.060498	0.060171	163.056	29621.4	0.056370	0.113113	1441.53	80467.9
291	2.000000	1.139593	7.36791e+06	-53189.1	955.819	-29747.3	0.000000	0.000000	7.146697	173.749	NaN	0.000000	0.001629	0.001706	28.0789	59.0915	0.001876	31499.2	8.274986	172.471	171.689	1.139169	0.062458	0.062034	173.749	31499.2	0.058321	0.119855	1449.65	83127.3
291	2.000000	1.141635	7.36791e+06	-53189.1	955.817	-29747.3	0.000000	0.000000	7.148762	174.301	NaN	0.000000	0.001607	0.001705	28.0791	60.6308	0.001742	34813.2	5.562347	173.367	174.007	1.141390	0.064500	0.064255	174.301	34813.2	0.060745	0.128494	1356.5	88731.3
291	2.000000	1.143673	7.36791e+06	-53189.1	955.818	-29747.3	0.000000	0.000000	7.151422	189.415	NaN	0.000000	0.001617	0.001719	28.0788	62.7928	0.001817	34553.6	8.782596	172.222	189.74	1.143277	0.066538	0.066142	189.415	34553.6	0.062427	0.134655	1406.67	86030.9
291	2.000000	1.145572	7.36791e+06	-53189.1	955.818	-29747.3	0.000000	0.000000	7.153684	198.237	NaN	0.000000	0.001601	0.001779	28.0789	64.7509	0.001854	34929	5.456605	173.489	195.633	1.145253	0.068437	0.068118	198.237	34929	0.064181	0.141226	1403.69	84918.6
291	2.000000	1.147603	7.36791e+06	-53189.1	955.818	-29747.3	0.000000	0.000000	7.156190	209.813	NaN	0.000000	0.001610	0.001763	28.0788	66.3857	0.001891	35098.8	5.835600	174.093	208.498	1.147304	0.070468	0.070169	209.813	35098.8	0.065984	0.148138	1416.34	83316.8
291	2.000000	1.149594	7.36791e+06	-53189.1	955.819	-29747.3	0.000000	0.000000	7.158756	223.78	NaN	0.000000	0.001581	0.001771	28.0789	67.149	0.001833	36625.7	6.340110	173.636	222.678	1.149238	0.072459	0.072103	223.78	36625.7	0.067877	0.155558	1438.57	84842.6
291	2.000000	1.151568	7.36791e+06	-53189.1	955.819	-29747.3	0.000000	0.000000	7.161091	232.55	NaN	0.000000	0.001609	0.001741	28.079	69.7379	0.001801	38722	4.492842	173.939	229.66	1.151295	0.074433	0.074160	232.55	38722	0.069929	0.163798	1419.73	87413
291	2.000000	1.153637	7.36791e+06	-53189.1	955.819	-29747.3	0.000000	0.000000	7.163572	242.558	NaN	0.000000	0.001603	0.001754	28.0789	72.6468	0.001964	36990.8	8.527108	171.495	242.144	1.153296	0.076502	0.076161	242.558	36990.8	0.071584	0.170592	1421.86	81825.1
291	2.000000	1.155560	7.36791e+06	-53189.1	955.819	-29747.3	0.000000	0.000000	7.165945	253.502	NaN	0.000000	0.001621	0.001753	28.0791	73.6719	0.001831	40231.1	9.822591	169.266	252.429	1.155201	0.078425	0.078066	253.502	40231.1	0.073699	0.179461	1412.57	86766.1
291	2.000000	1.157657	7.36791e+06	-53189.1	955.819	-29747.3	0.000000	0.000000	7.168402	262.28	NaN	0.000000	0.001585	0.001764	28.0787	75.6755	0.001768	42803.2	3.894245	173.813	262.771	1.157349	0.080522	0.080215	262.28	42803.2	0.075926	0.189027	1387.53	89947.2
291	2.000000	1.159565	7.36791e+06	-53189.1	955.82	-29747.3	0.000000	0.000000	7.171072	280.807	NaN	0.000000	0.001615	0.001730	28.0788	76.7208	0.001789	42887.7	6.634726	171.262	279.155	1.159260	0.082430	0.082125	280.807	42887.7	0.077519	0.196012	1432.6	88504.2
291	2.000000	1.161639	7.36791e+06	-53189.1	955.819	-29747.3	0.000000	0.000000	7.173460	288.437	NaN	0.000000	0.001656	0.001692	28.0788	80.0576	0.001802	44424.8	4.639892	173.222	292.756	1.161215	0.084504	0.084080	288.437	44424.8	0.079634	0.205472	1403.78	89541.1
291	2.000000	1.163496	7.36791e+06	-53189.1	955.819	-29747.3	0.000000	0.000000	7.175958	304.018	NaN	0.000000	0.001607	0.001646	28.0789	81.0248	0.001889	42889.2	4.083817	174.406	296.241	1.163193	0.086361	0.086058	304.018	42889.2	0.081045	0.211895	1434.76	85125.6
291	2.000000	1.165656	7.36791e+06	-53189.1	955.819	-29747.3	0.000000	0.000000	7.178733	318.969	NaN	0.000000	0.001617	0.001665	28.0789	83.4936	0.001829	45643.7	10.7179	168.386	320.401	1.165073	0.088521	0.087938	318.969	45643.7	0.083280	0.222263	1435.1	88454.6
291	2.000000	1.167532	7.36791e+06	-53189.1	955.82	-29747.3	0.000000	0.000000	7.181011	328.742	NaN	0.000000	0.001616	0.001657	28.0794	84.9755	0.001786	47580.4	5.175839	172.279	324.122	1.167211	0.090397	0.090076	328.742	47580.4	0.085215	0.231430	1420.48	90363.1
291	2.000000	1.169544	7.36791e+06	-53189.1	955.818	-29747.3	0.000000	0.000000	7.183769	346.883	NaN	0.000000	0.001583	0.001616	28.08	86.6266	0.001887	45918.5	7.030117	170.463	343.334	1.169247	0.092409	0.092112	346.883	45918.5	0.086743	0.238787	1452.69	85853.1
291	2.000000	1.171548	7.36791e+06	-53189.1	955.818	-29747.3	0.000000	0.000000	7.186065	353.991	NaN	0.000000	0.001635	0.001645	28.08	87.9469	0.001732	50787.2	2.140825	175.023	353.296	1.171282	0.094413	0.094147	353.991	50787.2	0.089185	0.250771	1411.61	92659.1
291	2.000000	1.173636	7.36791e+06	-53189.1	955.818	-29747.3	0.000000	0.000000	7.188330	358.279	NaN	0.000000	0.001620	0.001693	28.0801	89.7666	0.001639	54771.3	3.495835	172.396	357.021	1.173433	0.096501	0.096298	358.279	54771.3	0.091595	0.262862	1362.99	97602.7
291	2.000000	1.175568	7.36791e+06	-53189.1	955.819	-29747.3	0.000000	0.000000	7.191317	383.924	NaN	0.000000	0.001631	0.001653	28.0801	91.4108	0.001766	51756.3	5.847656	171.39	383.161	1.175324	0.098433	0.098189	383.924	51756.3	0.092870	0.269369	1425.27	91109.2
291	2.000000	1.177550	7.36791e+06	-53189.1	955.818	-29747.3	0.000000	0.000000	7.194149	404.592	NaN	0.000000	0.001620	0.001667	28.0803	95.6579	0.001767	54142.3	9.876517	167.45	401.147	1.177116	0.100415	0.099981	404.592	54142.3	0.094811	0.279414	1448	93580.5
291	2.000000	1.179524	7.36791e+06	-53189.1	955.82	-29747.3	0.000000	0.000000	7.196887	423.179	NaN	0.000000	0.001602	0.001692	28.0799	94.9836	0.001809	52508.3	3.224184	174.086	421.557	1.179178	0.102389	0.102043	423.179	52508.3	0.096344	0.287474	1472.06	89475.1
291	2.000000	1.181475	7.36791e+06	-53189.1	955.818	-29747.3	0.000000	0.000000	7.199232	432.745	NaN	0.000000	0.001647	0.001687	28.08	98.2745	0.001879	52302.4	7.871304	168.618	425.932	1.181186	0.104340	0.104051	432.745	52302.4	0.098135	0.297020	1456.95	87680.2
291	2.000000	1.183513	7.36791e+06	-53189.1	955.819	-29747.3	0.000000	0.000000	7.201881	447.602	NaN	0.000000	0.001640	0.001652	28.0799	100.021	0.001824	54829.2	5.981824	170.296	443.165	1.183221	0.106378	0.106086	447.602	54829.2	0.100256	0.308516	1450.82	90187.5
291	2.000000	1.185508	7.36791e+06	-53189.1	955.819	-29747.3	0.000000	0.000000	7.204599	465.2	NaN	0.000000	0.001643	0.001646	28.08	101.221	0.001763	57416.6	8.706694	166.767	460.708	1.185285	0.108373	0.108150	465.2	57416.6	0.102296	0.319768	1454.81	92767
291	2.000000	1.187503	7.36791e+06	-53189.1	955.819	-29747.3	0.000000	0.000000	7.207271	481.655	NaN	0.000000	0.001627	0.001707	28.0801	103.679	0.001751	59218.2	0.679899	175.437	478.607	1.187216	0.110368	0.110081	481.655	59218.2	0.104268	0.330821	1455.94	94065.8