File: remote_trans/data/nanoindenter/0828-1/data/Data_2025-08-06,11h17m57s/2025-07-22_16-23-58_1_1047.txt
2025-07-22, 16:23:58, 1
Index	Phase	Displacement	Time	Pos X	Pos Y	Pos Z	Rot A	Rot B	Piezo Z	Force A	Force B	Gripper	Voltage A	Voltage B	Temperature	Amplitude force	Amplitude pos	Stiffness	Phase shift	Phase excitation	Force A raw	Displacement raw	HMax	HMax raw	Real Force	Real Stiffness	Contact Depth	Area	Hardness	Reduced Mod.
[#]	[#]	[um]	[s]	[um]	[um]	[um]	[m°]	[m°]	[um]	[uN]	[uN]	[V]	[V]	[V]	[°C]	[uN]	[um]	[N/m]	[°]	[°]	[uN]	[um]	[um]	[um]	[uN]	[N/m]	[um]	[um^2]	[MPa]	[MPa]
1047	1.000000	0.002569	7.37528e+06	-52489.1	1055.82	-29749.1	0.000000	0.000000	6.002790	-0.111139	NaN	0.000000	0.001763	0.001797	28.0832	0.065380	0.000849	76.9834	-21.6389	-166.865	-0.143984	0.001327	-1.035958	-1.037200	-0.111139	76.9834	-1.034875	-6.684227E+13	1.662698E-15	NaN
1047	1.000000	0.010528	7.37528e+06	-52489.1	1055.82	-29749.1	0.000000	0.000000	6.010752	-0.035700	NaN	0.000000	0.001667	0.001805	28.0821	0.051906	0.000897	57.8436	5.665194	-168.204	-0.096969	0.009244	-1.027999	-1.029283	-0.035700	57.8436	-1.027536	-5.325219E+13	6.703922E-16	NaN
1047	1.000000	0.018514	7.37528e+06	-52489.1	1055.82	-29749.1	0.000000	0.000000	6.018738	-0.045677	NaN	0.000000	0.001662	0.001789	28.0821	0.115384	0.001685	68.4769	-171.903	-165.683	-0.029897	0.017163	-1.020013	-1.021364	-0.045677	68.4769	-1.019513	-4.153352E+13	1.099774E-15	NaN
1047	1.000000	0.026560	7.37529e+06	-52489.1	1055.82	-29749.1	0.000000	0.000000	6.026781	-0.116915	NaN	0.000000	0.001675	0.001753	28.0822	0.049905	0.001814	27.5135	146.832	-162.521	-0.103406	0.025206	-1.011967	-1.013322	-0.116915	27.5135	-1.008780	-2.978270E+13	3.925596E-15	NaN
1047	1.000000	0.034510	7.37529e+06	-52489.1	1055.82	-29749.1	0.000000	0.000000	6.034733	-0.061528	NaN	0.000000	0.001633	0.001766	28.0822	0.066856	0.001954	34.2169	-80.8837	-167.447	-0.013192	0.033273	-1.004017	-1.005254	-0.061528	34.2169	-1.002669	-2.464322E+13	2.496764E-15	NaN
1047	1.000000	0.042512	7.37529e+06	-52489.1	1055.82	-29749.1	0.000000	0.000000	6.042736	-0.019945	NaN	0.000000	0.001685	0.001781	28.0821	0.015215	0.002016	7.545812	-54.9442	-169.241	-0.098678	0.041198	-0.996016	-0.997329	-0.019945	7.545812	-0.994033	-1.885504E+13	1.057816E-15	NaN
1047	1.000000	0.050528	7.37529e+06	-52489.1	1055.82	-29749.1	0.000000	0.000000	6.050751	-0.057776	NaN	0.000000	0.001696	0.001805	28.0822	0.051314	0.002169	23.6548	112.381	-164.693	-0.071328	0.049215	-0.987999	-0.989312	-0.057776	23.6548	-0.986167	-1.477376E+13	3.910736E-15	NaN
1047	1.000000	0.058536	7.37529e+06	-52489.1	1055.82	-29749.1	0.000000	0.000000	6.058758	-0.073749	NaN	0.000000	0.001683	0.001760	28.0821	0.113924	0.002151	52.9577	7.513961	-166.693	-0.076681	0.057200	-0.979991	-0.981327	-0.073749	52.9577	-0.978947	-1.180925E+13	6.245034E-15	NaN
1047	1.000000	0.066505	7.37529e+06	-52489.1	1055.82	-29749.1	0.000000	0.000000	6.066726	-0.108429	NaN	0.000000	0.001679	0.001767	28.0823	0.074281	0.001996	37.2181	28.7013	-167.627	-0.109941	0.065268	-0.972023	-0.973260	-0.108429	37.2181	-0.969838	-8.901738E+12	1.218061E-14	NaN
1047	1.000000	0.074521	7.37529e+06	-52489.1	1055.82	-29749.1	0.000000	0.000000	6.074745	-0.034748	NaN	0.000000	0.001670	0.001769	28.0821	0.075880	0.002091	36.283	-105.982	-167.33	-0.031086	0.073236	-0.964006	-0.965291	-0.034748	36.283	-0.963288	-7.264239E+12	4.783385E-15	NaN
1047	1.000000	0.082529	7.37529e+06	-52489.1	1055.82	-29749.1	0.000000	0.000000	6.082752	-0.054022	NaN	0.000000	0.001682	0.001771	28.0822	0.053166	0.001881	28.2656	4.199420	-162.721	0.030543	0.081252	-0.955998	-0.957275	-0.054022	28.2656	-0.954565	-5.540946E+12	9.749668E-15	NaN
1047	1.000000	0.090553	7.37529e+06	-52489.1	1055.82	-29749.1	0.000000	0.000000	6.090776	-0.037755	NaN	0.000000	0.001643	0.001797	28.0823	0.048331	0.001959	24.6747	133.405	-164.889	-0.028862	0.089207	-0.947975	-0.949320	-0.037755	24.6747	-0.946827	-4.357465E+12	8.664455E-15	NaN
1047	1.000000	0.098550	7.37529e+06	-52489.1	1055.82	-29749.1	0.000000	0.000000	6.098772	-0.102464	NaN	0.000000	0.001693	0.001765	28.082	0.049479	0.001914	25.8549	157.508	-165.888	-0.067365	0.097260	-0.939977	-0.941267	-0.102464	25.8549	-0.937005	-3.211609E+12	3.190432E-14	NaN
1047	1.000000	0.106542	7.37529e+06	-52489.1	1055.82	-29749.1	0.000000	0.000000	6.106766	-0.034180	NaN	0.000000	0.001651	0.001750	28.0822	0.099131	0.001814	54.6607	10.6284	-166.451	-0.097351	0.105255	-0.931985	-0.933272	-0.034180	54.6607	-0.931516	-2.708094E+12	1.262127E-14	NaN
1047	1.000000	0.114578	7.37529e+06	-52489.1	1055.82	-29749.1	0.000000	0.000000	6.114802	-0.054348	NaN	0.000000	0.001703	0.001778	28.0819	0.167689	0.002078	80.6924	-124.902	-163.515	-0.045661	0.113245	-0.923949	-0.925282	-0.054348	80.6924	-0.923444	-2.107172E+12	2.579195E-14	NaN
1047	1.000000	0.122563	7.37529e+06	-52489.1	1055.82	-29749.1	0.000000	0.000000	6.122785	-0.073685	NaN	0.000000	0.001695	0.001793	28.0821	0.073535	0.002026	36.3046	-132.703	-170.757	-0.009209	0.121261	-0.915964	-0.917266	-0.073685	36.3046	-0.914442	-1.592788E+12	4.626182E-14	NaN
1047	1.000000	0.130567	7.37529e+06	-52489.1	1055.82	-29749.1	0.000000	0.000000	6.130792	-0.012853	NaN	0.000000	0.001664	0.001802	28.0821	0.029229	0.002021	14.4645	-120.061	-164.497	-0.060872	0.129228	-0.907961	-0.909300	-0.012853	14.4645	-0.907294	-1.275299E+12	1.007865E-14	NaN
1047	1.000000	0.138564	7.37529e+06	-52489.1	1055.82	-29749.1	0.000000	0.000000	6.138786	-0.066955	NaN	0.000000	0.001640	0.001773	28.0822	0.057717	0.002093	27.5787	-116.213	-167.42	-0.026213	0.137256	-0.899964	-0.901271	-0.066955	27.5787	-0.898143	-9.593378E+11	6.979278E-14	NaN
1047	1.000000	0.146541	7.37529e+06	-52489.1	1055.82	-29749.1	0.000000	0.000000	6.146764	-0.065258	NaN	0.000000	0.001680	0.001770	28.0833	0.054189	0.001955	27.7246	-77.3107	-167.685	-0.060162	0.145281	-0.891986	-0.893246	-0.065258	27.7246	-0.890221	-7.497264E+11	8.704250E-14	NaN
1047	1.000000	0.154575	7.37529e+06	-52489.1	1055.82	-29749.1	0.000000	0.000000	6.154798	-0.078241	NaN	0.000000	0.001626	0.001767	28.0834	0.069346	0.001957	35.4374	72.5713	-168.081	-0.070163	0.153283	-0.883952	-0.885245	-0.078241	35.4374	-0.882296	-5.858119E+11	1.335602E-13	NaN
1047	1.000000	0.162544	7.37529e+06	-52489.1	1055.82	-29749.1	0.000000	0.000000	6.162764	-0.115764	NaN	0.000000	0.001653	0.001785	28.0836	0.040909	0.001959	20.882	9.926070	-168.867	-0.088925	0.161266	-0.875984	-0.877261	-0.115764	20.882	-0.871826	-4.228090E+11	2.737964E-13	NaN
1047	1.000000	0.170603	7.37529e+06	-52489.1	1055.82	-29749.1	0.000000	0.000000	6.170825	-0.085872	NaN	0.000000	0.001640	0.001767	28.0833	0.056542	0.002024	27.936	130.609	-166.596	-0.131924	0.169246	-0.867924	-0.869281	-0.085872	27.936	-0.865619	-3.484689E+11	2.464278E-13	NaN
1047	1.000000	0.178579	7.37529e+06	-52489.1	1055.82	-29749.1	0.000000	0.000000	6.178802	-0.053841	NaN	0.000000	0.001659	0.001806	28.0839	0.009371	0.001841	5.089236	-128.803	-165.521	-0.034722	0.177262	-0.859948	-0.861265	-0.053841	5.089236	-0.852014	-2.280374E+11	2.361070E-13	NaN
1047	1.000000	0.186598	7.37529e+06	-52489.1	1055.82	-29749.1	0.000000	0.000000	6.186820	-0.067110	NaN	0.000000	0.001684	0.001845	28.0832	0.043480	0.001975	22.0148	142.361	-167.026	-0.046909	0.185201	-0.851930	-0.853326	-0.067110	22.0148	-0.849643	-2.117905E+11	3.168689E-13	NaN
1047	1.000000	0.194605	7.37529e+06	-52489.1	1055.82	-29749.1	0.000000	0.000000	6.194826	-0.115663	NaN	0.000000	0.001679	0.001773	28.0837	0.064957	0.001908	34.0415	-122.323	-163.113	-0.127802	0.193305	-0.843922	-0.845222	-0.115663	34.0415	-0.841374	-1.636460E+11	7.067892E-13	NaN
1047	1.000000	0.202568	7.37529e+06	-52489.1	1055.82	-29749.1	0.000000	0.000000	6.202791	-0.060804	NaN	0.000000	0.001690	0.001804	28.0835	0.107931	0.001987	54.307	-71.6854	-163.643	-0.031100	0.201247	-0.835959	-0.837280	-0.060804	54.307	-0.835119	-1.346367E+11	4.516188E-13	NaN
1047	1.000000	0.210599	7.37529e+06	-52489.1	1055.82	-29749.1	0.000000	0.000000	6.210824	-0.009248	NaN	0.000000	0.001671	0.001777	28.0833	0.065790	0.001947	33.7902	73.5705	-166.926	-0.089188	0.209217	-0.827928	-0.829310	-0.009248	33.7902	-0.827723	-1.068846E+11	8.651945E-14	NaN
1047	1.000000	0.218556	7.37529e+06	-52489.1	1055.82	-29749.1	0.000000	0.000000	6.218781	-0.019782	NaN	0.000000	0.001670	0.001793	28.0836	0.066763	0.002012	33.1765	-28.4475	-166.807	0.049316	0.217260	-0.819971	-0.821268	-0.019782	33.1765	-0.819524	-8.274696E+10	2.390660E-13	NaN
1047	1.000000	0.226586	7.37529e+06	-52489.1	1055.82	-29749.1	0.000000	0.000000	6.226805	-0.166240	NaN	0.000000	0.001680	0.001812	28.0832	0.088555	0.002098	42.2092	-74.8556	-168.038	-0.129980	0.225325	-0.811941	-0.813202	-0.166240	42.2092	-0.808987	-5.954289E+10	2.791930E-12	NaN
1047	1.000000	0.234579	7.37529e+06	-52489.1	1055.82	-29749.1	0.000000	0.000000	6.234805	0.014126	NaN	0.000000	0.001656	0.001770	28.0836	0.079194	0.002061	38.4159	-96.9875	-170.369	-0.009349	0.233335	-0.803948	-0.805193	0.014126	38.4159	-0.804224	-5.130946E+10	-2.753128E-13	NaN
1047	1.000000	0.242611	7.37529e+06	-52489.1	1055.82	-29749.1	0.000000	0.000000	6.242836	-0.018817	NaN	0.000000	0.001649	0.001818	28.0833	0.132496	0.001986	66.7136	66.0537	-167.731	-0.141544	0.241300	-0.795916	-0.797227	-0.018817	66.7136	-0.795705	-3.931406E+10	4.786370E-13	NaN
1047	1.000000	0.250616	7.37529e+06	-52489.1	1055.82	-29749.1	0.000000	0.000000	6.250838	-0.080514	NaN	0.000000	0.001655	0.001763	28.0833	0.142036	0.002028	70.0204	-131.669	-163.177	-0.054931	0.249341	-0.787911	-0.789186	-0.080514	70.0204	-0.787049	-2.999141E+10	2.684574E-12	NaN
1047	1.000000	0.258621	7.37529e+06	-52489.1	1055.82	-29749.1	0.000000	0.000000	6.258843	-0.095090	NaN	0.000000	0.001680	0.001808	28.0832	0.044682	0.002073	21.5545	79.9469	-164.778	-0.060636	0.257305	-0.779906	-0.781222	-0.095090	21.5545	-0.776597	-2.162648E+10	4.396904E-12	NaN
1047	1.000000	0.266636	7.37529e+06	-52489.1	1055.82	-29749.1	0.000000	0.000000	6.266860	-0.012445	NaN	0.000000	0.001663	0.001771	28.0832	0.030284	0.002043	14.8227	92.1775	-168.722	-0.000917	0.265327	-0.771892	-0.773200	-0.012445	14.8227	-0.771262	-1.830056E+10	6.800143E-13	NaN
1047	1.000000	0.274617	7.37529e+06	-52489.1	1055.82	-29749.1	0.000000	0.000000	6.274841	-0.025268	NaN	0.000000	0.001644	0.001785	28.0838	0.053852	0.002088	25.7851	-60.6054	-165.561	0.026617	0.273328	-0.763910	-0.765199	-0.025268	25.7851	-0.763176	-1.420688E+10	1.778583E-12	NaN
1047	1.000000	0.282623	7.37529e+06	-52489.1	1055.82	-29749.1	0.000000	0.000000	6.282846	-0.068042	NaN	0.000000	0.001667	0.001816	28.0821	0.108847	0.001980	54.9791	-179.044	-168.162	-0.013405	0.281339	-0.755904	-0.757189	-0.068042	54.9791	-0.754976	-1.098860E+10	6.192028E-12	NaN
1047	1.000000	0.290627	7.37529e+06	-52489.1	1055.82	-29749.1	0.000000	0.000000	6.290850	-0.076011	NaN	0.000000	0.001642	0.001771	28.0821	0.024058	0.002020	11.908	84.299	-168.852	-0.087676	0.289281	-0.747900	-0.749246	-0.076011	11.908	-0.743112	-7.576100E+9	1.003294E-11	NaN
1047	1.000000	0.298625	7.37529e+06	-52489.1	1055.82	-29749.1	0.000000	0.000000	6.298850	-0.020846	NaN	0.000000	0.001693	0.001748	28.0822	0.086916	0.001979	43.9257	-153.648	-164.914	0.023159	0.297293	-0.739902	-0.741235	-0.020846	43.9257	-0.739546	-6.774515E+9	3.077137E-12	NaN
1047	1.000000	0.306647	7.37529e+06	-52489.1	1055.82	-29749.1	0.000000	0.000000	6.306872	-0.028071	NaN	0.000000	0.001696	0.001725	28.0819	0.037919	0.002009	18.8716	100.138	-166.596	-0.049342	0.305332	-0.731880	-0.733195	-0.028071	18.8716	-0.730764	-5.143078E+9	5.457923E-12	NaN
1047	1.000000	0.314652	7.37529e+06	-52489.1	1055.82	-29749.1	0.000000	0.000000	6.314875	-0.049642	NaN	0.000000	0.001716	0.001766	28.0823	0.097666	0.002173	44.9507	179.612	-166.107	0.061251	0.313312	-0.723875	-0.725215	-0.049642	44.9507	-0.723047	-4.036696E+9	1.229766E-11	NaN
1047	1.000000	0.322653	7.37529e+06	-52489.1	1055.82	-29749.1	0.000000	0.000000	6.322879	0.015935	NaN	0.000000	0.001678	0.001783	28.0821	0.061703	0.001934	31.8995	-85.3323	-164.653	-0.057612	0.321302	-0.715875	-0.717225	0.015935	31.8995	-0.716249	-3.260732E+9	-4.887066E-12	NaN
1047	1.000000	0.330646	7.37529e+06	-52489.1	1055.82	-29749.1	0.000000	0.000000	6.330866	-0.143441	NaN	0.000000	0.001707	0.001758	28.0821	0.026832	0.002009	13.3545	-15.8481	-165.083	-0.176151	0.329287	-0.707881	-0.709240	-0.143441	13.3545	-0.699826	-1.946026E+9	7.370964E-11	NaN
1047	1.000000	0.338644	7.37529e+06	-52489.1	1055.82	-29749.1	0.000000	0.000000	6.338867	-0.063561	NaN	0.000000	0.001656	0.001786	28.0822	0.065412	0.002093	31.2452	101.912	-166.465	-0.041693	0.337285	-0.699883	-0.701242	-0.063561	31.2452	-0.698357	-1.858228E+9	3.420521E-11	NaN
1047	1.000000	0.346656	7.37529e+06	-52489.1	1055.82	-29749.1	0.000000	0.000000	6.346877	-0.108030	NaN	0.000000	0.001721	0.001786	28.082	0.020243	0.002055	9.849472	4.167646	-165.576	-0.091294	0.345291	-0.691872	-0.693236	-0.108030	9.849472	-0.683645	-1.169647E+9	9.236157E-11	NaN
1047	1.000000	0.354647	7.37529e+06	-52489.1	1055.82	-29749.1	0.000000	0.000000	6.354868	-0.108797	NaN	0.000000	0.001664	0.001783	28.082	0.004763	0.002018	2.360135	-40.0942	-168.944	-0.111288	0.353313	-0.683880	-0.685214	-0.108797	2.360135	-0.649306	-3.962118E+8	2.745940E-10	NaN
1047	1.000000	0.362655	7.37529e+06	-52489.1	1055.82	-29749.1	0.000000	0.000000	6.362879	-0.028134	NaN	0.000000	0.001650	0.001759	28.082	0.068699	0.002112	32.5205	31.7968	-167.053	-0.086231	0.361353	-0.675872	-0.677175	-0.028134	32.5205	-0.675223	-8.971527E+8	3.135951E-11	NaN
1047	1.000000	0.370660	7.37529e+06	-52489.1	1055.82	-29749.1	0.000000	0.000000	6.370882	-0.074442	NaN	0.000000	0.001734	0.001763	28.0821	0.061206	0.002012	30.4238	-59.1054	-165.865	-0.082361	0.369364	-0.667867	-0.669163	-0.074442	30.4238	-0.666032	-6.715425E+8	1.108525E-10	NaN
1047	1.000000	0.378625	7.37529e+06	-52489.1	1055.82	-29749.1	0.000000	0.000000	6.378851	0.005503	NaN	0.000000	0.001694	0.001737	28.082	0.028277	0.002093	13.5112	118.995	-167.752	-0.091726	0.377378	-0.659902	-0.661149	0.005503	13.5112	-0.660207	-5.588680E+8	-9.846894E-12	NaN
1047	1.000000	0.386633	7.37529e+06	-52489.1	1055.82	-29749.1	0.000000	0.000000	6.386855	-0.094227	NaN	0.000000	0.001683	0.001744	28.0819	0.064751	0.001975	32.7873	-160.838	-167.231	-0.030981	0.385336	-0.651894	-0.653191	-0.094227	32.7873	-0.649739	-4.016554E+8	2.345970E-10	NaN
1047	1.000000	0.394642	7.37529e+06	-52489.1	1055.82	-29749.1	0.000000	0.000000	6.394866	-0.026699	NaN	0.000000	0.001693	0.001772	28.0818	0.111991	0.002002	55.9355	90.5107	-163.337	-0.057612	0.393352	-0.643886	-0.645176	-0.026699	55.9355	-0.643528	-3.301291E+8	8.087588E-11	NaN
1047	1.000000	0.402639	7.37529e+06	-52489.1	1055.82	-29749.1	0.000000	0.000000	6.402863	-0.033418	NaN	0.000000	0.001695	0.001749	28.0816	0.065605	0.001925	34.0724	-82.5415	-165.746	-0.039123	0.401354	-0.635889	-0.637173	-0.033418	34.0724	-0.635153	-2.533793E+8	1.318897E-10	NaN
1047	1.000000	0.410651	7.37529e+06	-52489.1	1055.82	-29749.1	0.000000	0.000000	6.410872	-0.105535	NaN	0.000000	0.001697	0.001758	28.0819	0.009809	0.001952	5.024206	106.785	-167.844	-0.116885	0.409356	-0.627876	-0.629171	-0.105535	5.024206	-0.612122	-1.222677E+8	8.631436E-10	NaN
1047	1.000000	0.418687	7.37529e+06	-52489.1	1055.82	-29749.1	0.000000	0.000000	6.418907	-0.130114	NaN	0.000000	0.001662	0.001756	28.0831	0.092283	0.001968	46.9005	-144.03	-164.994	-0.088548	0.417341	-0.619840	-0.621186	-0.130114	46.9005	-0.617760	-1.461627E+8	8.902017E-10	NaN
1047	1.000000	0.426687	7.37529e+06	-52489.1	1055.82	-29749.1	0.000000	0.000000	6.426909	-0.103580	NaN	0.000000	0.001662	0.001770	28.0832	0.085914	0.002038	42.1557	26.496	-166.299	-0.118486	0.425309	-0.611840	-0.613218	-0.103580	42.1557	-0.609997	-1.143074E+8	9.061543E-10	NaN
1047	1.000000	0.434679	7.37529e+06	-52489.1	1055.82	-29749.1	0.000000	0.000000	6.434901	-0.083708	NaN	0.000000	0.001686	0.001759	28.0828	0.047964	0.001897	25.2899	27.273	-167.811	-0.135723	0.433309	-0.603849	-0.605219	-0.083708	25.2899	-0.601366	-8.695133E+7	9.626939E-10	NaN
1047	1.000000	0.442708	7.37529e+06	-52489.1	1055.82	-29749.1	0.000000	0.000000	6.442934	-0.001921	NaN	0.000000	0.001682	0.001731	28.083	0.021461	0.001898	11.3087	169.011	-168.951	-0.020532	0.441408	-0.595819	-0.597120	-0.001921	11.3087	-0.595692	-7.262917E+7	2.645596E-11	NaN
1047	1.000000	0.450698	7.37529e+06	-52489.1	1055.82	-29749.1	0.000000	0.000000	6.450923	-0.016660	NaN	0.000000	0.001660	0.001759	28.0829	0.112184	0.001900	59.0404	67.6839	-166.581	-0.089406	0.449405	-0.587829	-0.589123	-0.016660	59.0404	-0.587618	-5.621027E+7	2.963904E-10	NaN
1047	1.000000	0.458699	7.37529e+06	-52489.1	1055.82	-29749.1	0.000000	0.000000	6.458923	-0.024613	NaN	0.000000	0.001665	0.001779	28.083	0.048574	0.002073	23.4327	-102.277	-166.191	-0.041313	0.457364	-0.579828	-0.581163	-0.024613	23.4327	-0.579040	-4.280379E+7	5.750111E-10	NaN
1047	1.000000	0.466699	7.37529e+06	-52489.1	1055.82	-29749.1	0.000000	0.000000	6.466921	-0.078028	NaN	0.000000	0.001704	0.001797	28.0831	0.040333	0.001850	21.8009	118.029	-165.213	-0.168905	0.465415	-0.571828	-0.573112	-0.078028	21.8009	-0.569144	-3.124650E+7	2.497166E-9	NaN
1047	1.000000	0.474694	7.37529e+06	-52489.1	1055.82	-29749.1	0.000000	0.000000	6.474918	-0.032520	NaN	0.000000	0.001675	0.001790	28.0828	0.112602	0.001849	60.8944	44.2696	-170.272	-0.036818	0.473367	-0.563834	-0.565160	-0.032520	60.8944	-0.563433	-2.605313E+7	1.248227E-9	NaN
1047	1.000000	0.482691	7.37529e+06	-52489.1	1055.82	-29749.1	0.000000	0.000000	6.482914	-0.057884	NaN	0.000000	0.001665	0.001751	28.0832	0.079715	0.002100	37.9626	148.284	-167.438	0.018157	0.481360	-0.555836	-0.557167	-0.057884	37.9626	-0.554693	-1.972114E+7	2.935114E-9	NaN
1047	1.000000	0.490694	7.37529e+06	-52489.1	1055.82	-29749.1	0.000000	0.000000	6.490917	-0.044678	NaN	0.000000	0.001671	0.001768	28.083	0.023675	0.002014	11.7547	-90.9093	-164.102	-0.140301	0.489421	-0.547834	-0.549107	-0.044678	11.7547	-0.544983	-1.446917E+7	3.087787E-9	NaN
1047	1.000000	0.498724	7.37529e+06	-52489.1	1055.82	-29749.1	0.000000	0.000000	6.498945	-0.094793	NaN	0.000000	0.001661	0.001773	28.0831	0.124107	0.002028	61.186	121.224	-169.087	-0.043073	0.497431	-0.539803	-0.541096	-0.094793	61.186	-0.538641	-1.181719E+7	8.021646E-9	NaN
1047	1.000000	0.506675	7.37529e+06	-52489.1	1055.82	-29749.1	0.000000	0.000000	6.506899	-0.038601	NaN	0.000000	0.001650	0.001806	28.0831	0.115694	0.002019	57.29	62.8653	-169.661	-0.159394	0.505454	-0.531852	-0.533073	-0.038601	57.29	-0.531347	-9.36e+06	4.124027E-9	NaN
1047	1.000000	0.514708	7.37529e+06	-52489.1	1055.82	-29749.1	0.000000	0.000000	6.514927	-0.156505	NaN	0.000000	0.001661	0.001801	28.083	0.186537	0.001864	100.068	-97.972	-166.9	-0.106762	0.513415	-0.523820	-0.525112	-0.156505	100.068	-0.522647	-7.08598e+06	2.208662E-8	NaN
1047	1.000000	0.522763	7.37529e+06	-52489.1	1055.82	-29749.1	0.000000	0.000000	6.522985	-0.071256	NaN	0.000000	0.001641	0.001804	28.0836	0.029895	0.002135	14.0047	105.932	-167.478	-0.050616	0.521398	-0.515764	-0.517130	-0.071256	14.0047	-0.511948	-5.0298e+06	1.416670E-8	NaN
1047	1.000000	0.530728	7.37529e+06	-52489.1	1055.82	-29749.1	0.000000	0.000000	6.530950	-0.080074	NaN	0.000000	0.001653	0.001812	28.0831	0.141002	0.001989	70.8926	6.013505	-164.911	0.009007	0.529437	-0.507799	-0.509090	-0.080074	70.8926	-0.506952	-4.28499e+06	1.868717E-8	NaN
1047	1.000000	0.538725	7.37529e+06	-52489.1	1055.82	-29749.1	0.000000	0.000000	6.538948	-0.064531	NaN	0.000000	0.001653	0.001772	28.0832	0.102470	0.002072	49.4568	16.3933	-163.121	-0.099071	0.537413	-0.499802	-0.501115	-0.064531	49.4568	-0.498824	-3.30072e+06	1.955071E-8	NaN
1047	1.000000	0.546725	7.37529e+06	-52489.1	1055.82	-29749.1	0.000000	0.000000	6.546948	-0.051856	NaN	0.000000	0.001639	0.001768	28.0832	0.130334	0.002081	62.6405	-79.8191	-168.385	0.050631	0.545466	-0.491803	-0.493061	-0.051856	62.6405	-0.491182	-2.5817e+06	2.008615E-8	NaN
1047	1.000000	0.554727	7.37529e+06	-52489.1	1055.82	-29749.1	0.000000	0.000000	6.554951	-0.034699	NaN	0.000000	0.001637	0.001787	28.0819	0.061602	0.001952	31.563	-83.1939	-164.949	0.001490	0.553417	-0.483800	-0.485110	-0.034699	31.563	-0.482976	-1.98232e+06	1.750410E-8	NaN
1047	1.000000	0.562738	7.37529e+06	-52489.1	1055.82	-29749.1	0.000000	0.000000	6.562962	-0.035532	NaN	0.000000	0.001653	0.001748	28.0822	0.009567	0.001932	4.953049	163.46	-165.832	-0.048210	0.561407	-0.475790	-0.477120	-0.035532	4.953049	-0.470409	-1.32175e+06	2.688290E-8	NaN
1047	1.000000	0.570737	7.37529e+06	-52489.1	1055.82	-29749.1	0.000000	0.000000	6.570962	-0.018056	NaN	0.000000	0.001618	0.001767	28.082	0.041432	0.001922	21.5586	11.2439	-167.036	0.010674	0.569448	-0.467790	-0.469080	-0.018056	21.5586	-0.467162	-1.19014e+06	1.517127E-8	NaN
1047	1.000000	0.578747	7.37529e+06	-52489.1	1055.82	-29749.1	0.000000	0.000000	6.578972	-0.007294	NaN	0.000000	0.001678	0.001754	28.0822	0.068330	0.001956	34.9319	166.844	-173.032	-0.077676	0.577455	-0.459780	-0.461072	-0.007294	34.9319	-0.459623	-932663	7.820832E-9	NaN
1047	1.000000	0.586744	7.37529e+06	-52489.1	1055.82	-29749.1	0.000000	0.000000	6.586965	-0.100362	NaN	0.000000	0.001671	0.001735	28.082	0.087997	0.001967	44.7382	29.0676	-167.814	-0.074365	0.585458	-0.451784	-0.453069	-0.100362	44.7382	-0.450101	-685123	1.464884E-7	NaN
1047	1.000000	0.594772	7.37529e+06	-52489.1	1055.82	-29749.1	0.000000	0.000000	6.594992	-0.131287	NaN	0.000000	0.001645	0.001718	28.0819	0.059539	0.002088	28.5088	175.872	-164.649	-0.113330	0.593477	-0.443755	-0.445050	-0.131287	28.5088	-0.440302	-498448	2.633912E-7	NaN
1047	1.000000	0.602773	7.37529e+06	-52489.1	1055.82	-29749.1	0.000000	0.000000	6.602995	-0.103779	NaN	0.000000	0.001638	0.001769	28.0819	0.075955	0.002036	37.3069	112.631	-168.271	-0.066885	0.601478	-0.435754	-0.437050	-0.103779	37.3069	-0.433668	-401720	2.583356E-7	NaN
1047	1.000000	0.610759	7.37529e+06	-52489.1	1055.82	-29749.1	0.000000	0.000000	6.610982	-0.068601	NaN	0.000000	0.001683	0.001753	28.0819	0.065037	0.002011	32.3357	-171.137	-166.476	-0.061660	0.609492	-0.427768	-0.429035	-0.068601	32.3357	-0.426177	-314739	2.179620E-7	NaN
1047	1.000000	0.618788	7.37529e+06	-52489.1	1055.82	-29749.1	0.000000	0.000000	6.619009	-0.112316	NaN	0.000000	0.001723	0.001790	28.0818	0.090077	0.001995	45.1454	138.566	-168.612	-0.130197	0.617435	-0.419739	-0.421093	-0.112316	45.1454	-0.417873	-240018	4.679496E-7	NaN
1047	1.000000	0.626766	7.37529e+06	-52489.1	1055.82	-29749.1	0.000000	0.000000	6.626989	-0.069275	NaN	0.000000	0.001726	0.001787	28.0819	0.109434	0.001980	55.2579	154.131	-167.173	-0.074298	0.625440	-0.411761	-0.413088	-0.069275	55.2579	-0.410821	-190579	3.634984E-7	NaN
1047	1.000000	0.634749	7.37529e+06	-52489.1	1055.82	-29749.1	0.000000	0.000000	6.634971	-0.102866	NaN	0.000000	0.001740	0.001770	28.0819	0.110174	0.001958	56.265	-140.961	-166.426	-0.035971	0.633447	-0.403778	-0.405080	-0.102866	56.265	-0.402407	-144645	7.111567E-7	NaN
1047	1.000000	0.642789	7.37529e+06	-52489.1	1055.82	-29749.1	0.000000	0.000000	6.643013	-0.048551	NaN	0.000000	0.001700	0.001797	28.0818	0.080421	0.002122	37.902	134.15	-167.718	-0.071816	0.641497	-0.395738	-0.397030	-0.048551	37.902	-0.394777	-112579	4.312629E-7	NaN
1047	1.000000	0.650782	7.37529e+06	-52489.1	1055.82	-29749.1	0.000000	0.000000	6.651008	-0.004253	NaN	0.000000	0.001735	0.001795	28.0818	0.151811	0.002011	75.4792	166.708	-165.726	-0.056849	0.649512	-0.387745	-0.389016	-0.004253	75.4792	-0.387703	-89185.4	4.768557E-8	NaN
1047	1.000000	0.658788	7.37529e+06	-52489.1	1055.82	-29749.1	0.000000	0.000000	6.659014	0.006637	NaN	0.000000	0.001699	0.001800	28.0819	0.034926	0.002036	17.1517	-160.947	-165.69	-0.074621	0.657430	-0.379739	-0.381098	0.006637	17.1517	-0.380029	-69232.3	-9.586620E-8	NaN
1047	1.000000	0.666772	7.37529e+06	-52489.1	1055.82	-29749.1	0.000000	0.000000	6.666994	-0.093230	NaN	0.000000	0.001752	0.001791	28.0819	0.033168	0.001911	17.3579	-57.9606	-165.939	-0.111529	0.665489	-0.371755	-0.373038	-0.093230	17.3579	-0.367727	-46065.3	2.023869E-6	NaN
1047	1.000000	0.674796	7.37529e+06	-52489.1	1055.82	-29749.1	0.000000	0.000000	6.675020	-0.049119	NaN	0.000000	0.001696	0.001807	28.0819	0.044985	0.001937	23.2291	-87.3136	-165.02	-0.107479	0.673464	-0.363731	-0.365064	-0.049119	23.2291	-0.362145	-38268.5	1.283535E-6	NaN
1047	1.000000	0.682770	7.37529e+06	-52489.1	1055.82	-29749.1	0.000000	0.000000	6.682993	-0.067329	NaN	0.000000	0.001687	0.001816	28.0819	0.036016	0.001980	18.186	0.955628	-166.702	-0.159638	0.681478	-0.355757	-0.357049	-0.067329	18.186	-0.352980	-28198.7	2.387669E-6	NaN
1047	1.000000	0.690778	7.37529e+06	-52489.1	1055.82	-29749.1	0.000000	0.000000	6.690999	-0.107267	NaN	0.000000	0.001725	0.001761	28.0832	0.100691	0.002031	49.5839	-152.581	-165.145	-0.049549	0.689485	-0.347750	-0.349042	-0.107267	49.5839	-0.346127	-22425.7	4.783222E-6	NaN
1047	1.000000	0.698801	7.37529e+06	-52489.1	1055.82	-29749.1	0.000000	0.000000	6.699024	-0.065136	NaN	0.000000	0.001757	0.001808	28.0832	0.089290	0.002045	43.6616	-90.8283	-166.345	-0.051881	0.697481	-0.339726	-0.341046	-0.065136	43.6616	-0.338607	-17427.9	3.737485E-6	NaN
1047	1.000000	0.706815	7.37529e+06	-52489.1	1055.82	-29749.1	0.000000	0.000000	6.707036	-0.119192	NaN	0.000000	0.001724	0.001777	28.0831	0.115268	0.001936	59.5316	164.397	-163.978	-0.070689	0.705467	-0.331712	-0.333061	-0.119192	59.5316	-0.330210	-13138	9.072287E-6	NaN
1047	1.000000	0.714800	7.37529e+06	-52489.1	1055.82	-29749.1	0.000000	0.000000	6.715022	-0.092095	NaN	0.000000	0.001734	0.001805	28.0832	0.046444	0.001930	24.0688	-29.7034	-164.916	-0.025843	0.713505	-0.323727	-0.325022	-0.092095	24.0688	-0.320857	-9577.51	9.615745E-6	NaN
1047	1.000000	0.722817	7.37529e+06	-52489.1	1055.82	-29749.1	0.000000	0.000000	6.723039	-0.087468	NaN	0.000000	0.001747	0.001774	28.0833	0.109068	0.001974	55.2541	102.1	-163.6	-0.133255	0.721506	-0.315710	-0.317021	-0.087468	55.2541	-0.314523	-7725.17	1.132244E-5	NaN
1047	1.000000	0.730822	7.37529e+06	-52489.1	1055.82	-29749.1	0.000000	0.000000	6.731044	-0.064638	NaN	0.000000	0.001727	0.001777	28.0834	0.036807	0.002057	17.8932	118.866	-164.137	-0.055729	0.729510	-0.307706	-0.309017	-0.064638	17.8932	-0.304996	-5583.43	1.157684E-5	NaN
1047	1.000000	0.738837	7.37529e+06	-52489.1	1055.82	-29749.1	0.000000	0.000000	6.739061	-0.021758	NaN	0.000000	0.001741	0.001755	28.0834	0.100201	0.002054	48.7846	77.7396	-166.688	-0.007302	0.737525	-0.299690	-0.301002	-0.021758	48.7846	-0.299356	-4603.05	4.726760E-6	NaN
1047	1.000000	0.746822	7.37529e+06	-52489.1	1055.82	-29749.1	0.000000	0.000000	6.747041	-0.143131	NaN	0.000000	0.001688	0.001742	28.0834	0.076840	0.002130	36.0706	-129.781	-165.641	-0.102875	0.745508	-0.291705	-0.293019	-0.143131	36.0706	-0.288729	-3193.44	4.482038E-5	NaN
1047	1.000000	0.754826	7.37529e+06	-52489.1	1055.82	-29749.1	0.000000	0.000000	6.755047	-0.097268	NaN	0.000000	0.001600	0.001793	28.0832	0.055276	0.002113	26.1605	101.619	-166.29	-0.072968	0.753489	-0.283702	-0.285038	-0.097268	26.1605	-0.280913	-2436.35	3.992354E-5	NaN
1047	1.000000	0.762854	7.37529e+06	-52489.1	1055.82	-29749.1	0.000000	0.000000	6.763077	-0.075828	NaN	0.000000	0.001656	0.001788	28.0833	0.025580	0.001996	12.8168	-67.7204	-164.872	-0.094202	0.761523	-0.275673	-0.277005	-0.075828	12.8168	-0.271236	-1739.09	4.360234E-5	NaN
1047	1.000000	0.770830	7.37529e+06	-52489.1	1055.82	-29749.1	0.000000	0.000000	6.771053	-0.073179	NaN	0.000000	0.001678	0.001736	28.0832	0.036352	0.001985	18.3119	69.2083	-169.373	-0.090207	0.769490	-0.267697	-0.269038	-0.073179	18.3119	-0.264700	-1382.95	5.291522E-5	NaN
1047	1.000000	0.778836	7.37529e+06	-52489.1	1055.82	-29749.1	0.000000	0.000000	6.779057	-0.112037	NaN	0.000000	0.001670	0.001761	28.0833	0.076802	0.002124	36.1602	133.038	-167.491	-0.156131	0.777555	-0.259691	-0.260972	-0.112037	36.1602	-0.257367	-1067.87	0.000105	NaN
1047	1.000000	0.786801	7.37529e+06	-52489.1	1055.82	-29749.1	0.000000	0.000000	6.787023	-0.071030	NaN	0.000000	0.001645	0.001771	28.0836	0.105606	0.001951	54.1258	-32.2495	-162.925	-0.086550	0.785541	-0.251726	-0.252986	-0.071030	54.1258	-0.250742	-844.189	8.413976E-5	NaN
1047	1.000000	0.794844	7.37529e+06	-52489.1	1055.82	-29749.1	0.000000	0.000000	6.795067	-0.064217	NaN	0.000000	0.001669	0.001778	28.0834	0.106459	0.001970	54.0313	55.9771	-165.586	-0.142482	0.793540	-0.243683	-0.244988	-0.064217	54.0313	-0.242792	-635.473	0.000101	NaN
1047	1.000000	0.802822	7.37529e+06	-52489.1	1055.82	-29749.1	0.000000	0.000000	6.803046	-0.049573	NaN	0.000000	0.001679	0.001799	28.0832	0.060236	0.001933	31.162	-133.52	-169.215	-0.066048	0.801519	-0.235705	-0.237008	-0.049573	31.162	-0.234512	-471.609	0.000105	NaN
1047	1.000000	0.810805	7.37529e+06	-52489.1	1055.82	-29749.1	0.000000	0.000000	6.811030	-0.018713	NaN	0.000000	0.001654	0.001751	28.0832	0.040725	0.001935	21.0437	34.6002	-166.19	-0.034194	0.809546	-0.227722	-0.228981	-0.018713	21.0437	-0.227055	-359.695	5.202532E-5	NaN
1047	1.000000	0.818851	7.37529e+06	-52489.1	1055.82	-29749.1	0.000000	0.000000	6.819074	-0.060500	NaN	0.000000	0.001633	0.001740	28.0832	0.043286	0.002006	21.573	23.5454	-165.436	-0.034616	0.817545	-0.219676	-0.220983	-0.060500	21.573	-0.217572	-253.993	0.000238	NaN
1047	1.000000	0.826844	7.37529e+06	-52489.1	1055.82	-29749.1	0.000000	0.000000	6.827068	-0.036345	NaN	0.000000	0.001642	0.001778	28.0823	0.027306	0.002087	13.0826	5.539139	-166.349	-0.119172	0.825525	-0.211683	-0.213003	-0.036345	13.0826	-0.209599	-188.942	0.000192	NaN
1047	1.000000	0.834867	7.37529e+06	-52489.1	1055.82	-29749.1	0.000000	0.000000	6.835092	-0.014157	NaN	0.000000	0.001660	0.001747	28.0822	0.046743	0.001909	24.4834	56.4103	-167.538	-0.001258	0.833501	-0.203660	-0.205026	-0.014157	24.4834	-0.203226	-148.795	9.514482E-5	NaN
1047	1.000000	0.842866	7.37529e+06	-52489.1	1055.82	-29749.1	0.000000	0.000000	6.843089	-0.061003	NaN	0.000000	0.001612	0.001778	28.0823	0.052944	0.001986	26.6573	84.4188	-168.386	-0.025825	0.841535	-0.195661	-0.196993	-0.061003	26.6573	-0.193945	-104.643	0.000583	NaN
1047	1.000000	0.850875	7.37529e+06	-52489.1	1055.82	-29749.1	0.000000	0.000000	6.851099	-0.041546	NaN	0.000000	0.001606	0.001769	28.0819	0.067313	0.002033	33.1088	-48.8722	-166.476	-0.170183	0.849577	-0.187652	-0.188950	-0.041546	33.1088	-0.186711	-79.2362	0.000524	NaN
1047	1.000000	0.858862	7.37529e+06	-52489.1	1055.82	-29749.1	0.000000	0.000000	6.859084	-0.098618	NaN	0.000000	0.001620	0.001754	28.0818	0.104527	0.002117	49.3674	168.34	-163.702	-0.066507	0.857552	-0.179665	-0.180976	-0.098618	49.3674	-0.178167	-56.7839	0.001737	NaN
1047	1.000000	0.866864	7.37529e+06	-52489.1	1055.82	-29749.1	0.000000	0.000000	6.867084	-0.130050	NaN	0.000000	0.001644	0.001776	28.082	0.091678	0.001995	45.9504	104.453	-163.792	-0.124646	0.865565	-0.171663	-0.172963	-0.130050	45.9504	-0.169540	-40.33	0.003225	NaN
1047	1.000000	0.874861	7.37529e+06	-52489.1	1055.82	-29749.1	0.000000	0.000000	6.875087	0.005099	NaN	0.000000	0.001650	0.001750	28.0819	0.090442	0.002003	45.1587	-144.05	-163.839	-0.025818	0.873545	-0.163666	-0.164982	0.005099	45.1587	-0.163751	-31.9405	-0.000160	NaN
1047	1.000000	0.882881	7.37529e+06	-52489.1	1055.82	-29749.1	0.000000	0.000000	6.883104	-0.063317	NaN	0.000000	0.001678	0.001754	28.0823	0.074470	0.002037	36.5548	16.2306	-168.63	-0.078417	0.881548	-0.155647	-0.156979	-0.063317	36.5548	-0.154348	-21.7185	0.002915	NaN
1047	1.000000	0.890885	7.37529e+06	-52489.1	1055.82	-29749.1	0.000000	0.000000	6.891107	-0.075698	NaN	0.000000	0.001698	0.001732	28.082	0.021928	0.002026	10.8256	-5.259499	-165.295	-0.095903	0.889633	-0.147642	-0.148894	-0.075698	10.8256	-0.142398	-13.1172	0.005771	NaN
1047	1.000000	0.898870	7.37529e+06	-52489.1	1055.82	-29749.1	0.000000	0.000000	6.899094	-0.023376	NaN	0.000000	0.001670	0.001763	28.0821	0.025260	0.002102	12.0178	-143.337	-170.017	0.007111	0.897580	-0.139658	-0.140947	-0.023376	12.0178	-0.138199	-10.9404	0.002137	NaN
1047	1.000000	0.906868	7.37529e+06	-52489.1	1055.82	-29749.1	0.000000	0.000000	6.907090	-0.086027	NaN	0.000000	0.001682	0.001745	28.0819	0.136578	0.001885	72.4423	137.039	-165.873	-0.119327	0.905573	-0.131660	-0.132954	-0.086027	72.4423	-0.130769	-7.887269	0.010907	NaN
1047	1.000000	0.914881	7.37529e+06	-52489.1	1055.82	-29749.1	0.000000	0.000000	6.915103	-0.088902	NaN	0.000000	0.001681	0.001770	28.082	0.016911	0.001869	9.046267	-12.998	-165.914	-0.078362	0.913519	-0.123647	-0.125008	-0.088902	9.046267	-0.116276	-4.058219	0.021907	NaN
1047	1.000000	0.922901	7.37529e+06	-52489.1	1055.82	-29749.1	0.000000	0.000000	6.923123	-0.071514	NaN	0.000000	0.001664	0.001766	28.0819	0.133055	0.001955	68.056	-119.429	-165.035	-0.122690	0.921632	-0.115627	-0.116896	-0.071514	68.056	-0.114838	-3.791168	0.018863	NaN
1047	1.000000	0.930882	7.37529e+06	-52489.1	1055.82	-29749.1	0.000000	0.000000	6.931101	-0.159955	NaN	0.000000	0.001664	0.001792	28.0823	0.012844	0.002086	6.156888	-169.317	-167.172	-0.054419	0.929569	-0.107645	-0.108958	-0.159955	6.156888	-0.088160	-0.978170	0.163525	NaN
1047	1.000000	0.938909	7.37529e+06	-52489.1	1055.82	-29749.1	0.000000	0.000000	6.939133	-0.031986	NaN	0.000000	0.001683	0.001774	28.0821	0.050304	0.001986	25.3329	-29.4658	-168.182	-0.029521	0.937581	-0.099619	-0.100947	-0.031986	25.3329	-0.098672	-1.706951	0.018738	NaN
1047	1.000000	0.946876	7.37529e+06	-52489.1	1055.82	-29749.1	0.000000	0.000000	6.947098	-0.084817	NaN	0.000000	0.001677	0.001711	28.0819	0.022041	0.001960	11.2448	-146.596	-167.66	-0.053859	0.945603	-0.091652	-0.092924	-0.084817	11.2448	-0.085994	-0.868305	0.097681	NaN
1047	1.000000	0.954899	7.37529e+06	-52489.1	1055.82	-29749.1	0.000000	0.000000	6.955117	-0.180026	NaN	0.000000	0.001682	0.001767	28.0817	0.049109	0.001988	24.6972	153.676	-168.426	-0.132045	0.953550	-0.083628	-0.084977	-0.180026	24.6972	-0.078161	-0.556447	0.323528	NaN
1047	1.000000	0.962880	7.37529e+06	-52489.1	1055.82	-29749.1	0.000000	0.000000	6.963101	-0.103964	NaN	0.000000	0.001650	0.001727	28.0828	0.018239	0.001968	9.265565	174.962	-166.71	-0.081662	0.961593	-0.075647	-0.076935	-0.103964	9.265565	-0.067232	-0.287086	0.362134	NaN
1047	1.000000	0.970930	7.37529e+06	-52489.1	1055.82	-29749.1	0.000000	0.000000	6.971150	-0.148112	NaN	0.000000	0.001663	0.001728	28.0832	0.041559	0.002001	20.7725	-3.219792	-168.006	-0.051827	0.969604	-0.067597	-0.068924	-0.148112	20.7725	-0.062249	-0.208711	0.709652	NaN
1047	1.000000	0.978924	7.37529e+06	-52489.1	1055.82	-29749.1	0.000000	0.000000	6.979149	-0.025273	NaN	0.000000	0.001654	0.001751	28.0834	0.048933	0.002047	23.9041	121.558	-170.55	-0.056342	0.977541	-0.059603	-0.060986	-0.025273	23.9041	-0.058810	-0.166431	0.151852	NaN
1047	1.000000	0.986915	7.37529e+06	-52489.1	1055.82	-29749.1	0.000000	0.000000	6.987137	-0.081799	NaN	0.000000	0.001651	0.001750	28.0831	0.047264	0.001964	24.0675	147.471	-166.131	-0.137572	0.985589	-0.051612	-0.052938	-0.081799	24.0675	-0.049063	-0.085478	0.956959	NaN
1047	1.000000	0.994928	7.37529e+06	-52489.1	1055.82	-29749.1	0.000000	0.000000	6.995151	-0.056881	NaN	0.000000	0.001648	0.001764	28.0831	0.042770	0.001888	22.6475	-111.423	-166.767	-0.145496	0.993594	-0.043599	-0.044933	-0.056881	22.6475	-0.041715	-0.051002	1.115271	NaN
1047	1.000000	1.002921	7.37529e+06	-52489.1	1055.82	-29749.1	0.000000	0.000000	7.003147	0.002219	NaN	0.000000	0.001640	0.001730	28.0831	0.033947	0.001987	17.0839	-15.6707	-168.647	0.015496	1.001628	-0.035606	-0.036899	0.002219	17.0839	-0.035703	-0.033594	-0.066067	NaN
1047	1.000000	1.010915	7.37529e+06	-52489.1	1055.82	-29749.1	0.000000	0.000000	7.011138	-0.058611	NaN	0.000000	0.001676	0.001742	28.0832	0.115676	0.002020	57.2785	-179.912	-167.355	-0.153833	1.009567	-0.027612	-0.028960	-0.058611	57.2785	-0.026845	-0.018874	3.105438	NaN
1047	1.000000	1.018937	7.37529e+06	-52489.1	1055.82	-29749.1	0.000000	0.000000	7.019157	-0.126120	NaN	0.000000	0.001670	0.001754	28.0833	0.050709	0.001851	27.4005	67.583	-164.935	-0.092233	1.017594	-0.019591	-0.020933	-0.126120	27.4005	-0.016139	-0.009969	12.6516	NaN
1047	1.000000	1.026917	7.37529e+06	-52489.1	1055.82	-29749.1	0.000000	0.000000	7.027140	-0.081049	NaN	0.000000	0.001676	0.001731	28.0831	0.078822	0.002095	37.6217	28.5544	-165.676	-0.070898	1.025612	-0.011610	-0.012915	-0.081049	37.6217	-0.009994	-0.006384	12.6957	NaN
1047	1.000000	1.034919	7.37529e+06	-52489.1	1055.82	-29749.1	0.000000	0.000000	7.035143	-0.036249	NaN	0.000000	0.001691	0.001766	28.0831	0.106172	0.002118	50.1347	125.745	-164.252	-0.025713	1.033622	-0.003608	-0.004905	-0.036249	50.1347	-0.003066	-0.002164	16.7478	NaN
1047	1.000000	1.042922	7.37529e+06	-52489.1	1055.82	-29749.1	0.000000	0.000000	7.043312	4.015086	NaN	0.000000	0.001668	0.001754	28.0829	4.945593	0.001833	2697.89	9.973593	-165.951	2.868565	1.041572	0.004394	0.003045	4.015086	2697.89	0.003278	0.002615	1535.13	48197.3
1047	2.000000	1.048503	7.37529e+06	-52489.1	1055.82	-29749.1	0.000000	0.000000	7.049144	10.1215	NaN	0.000000	0.001664	0.001796	28.083	10.0872	0.001550	6506.94	7.336142	-174.505	9.760499	1.048164	0.009975	0.009637	10.1215	6506.94	0.008809	0.007887	1283.24	66939.4
1047	2.000000	1.050442	7.37529e+06	-52489.1	1055.82	-29749.1	0.000000	0.000000	7.051219	13.4124	NaN	0.000000	0.001639	0.001776	28.083	12.4393	0.001696	7333.04	6.693067	-175.213	13.2537	1.050111	0.011915	0.011584	13.4124	7333.04	0.010543	0.009791	1369.88	67708.7
1047	2.000000	1.052487	7.37529e+06	-52489.1	1055.82	-29749.1	0.000000	0.000000	7.053344	15.3456	NaN	0.000000	0.001645	0.001777	28.0834	14.6462	0.001833	7989.62	7.635134	-174.404	15.1722	1.052090	0.013960	0.013563	15.3456	7989.62	0.012520	0.012118	1266.3	66309.6
1047	2.000000	1.054388	7.37529e+06	-52489.1	1055.82	-29749.1	0.000000	0.000000	7.055367	18.3253	NaN	0.000000	0.001634	0.001807	28.0832	16.3018	0.001718	9487.27	5.165399	-175.869	17.711	1.054159	0.015861	0.015631	18.3253	9487.27	0.014412	0.014510	1262.97	71959.1
1047	2.000000	1.056427	7.37529e+06	-52489.1	1055.82	-29749.1	0.000000	0.000000	7.057590	22.8034	NaN	0.000000	0.001683	0.001790	28.0829	19.4122	0.001901	10209	6.688600	-175.738	22.9798	1.056072	0.017900	0.017545	22.8034	10209	0.016225	0.016953	1345.08	71635.9
1047	2.000000	1.058371	7.37529e+06	-52489.1	1055.82	-29749.1	0.000000	0.000000	7.059699	26.8158	NaN	0.000000	0.001678	0.001751	28.0831	20.3133	0.001755	11576.1	6.994266	-179.132	25.623	1.058114	0.019843	0.019587	26.8158	11576.1	0.018106	0.019653	1364.45	75443.2
1047	2.000000	1.060373	7.37529e+06	-52489.1	1055.82	-29749.1	0.000000	0.000000	7.061863	30.7524	NaN	0.000000	0.001681	0.001732	28.0828	23.24	0.001837	12652.9	6.270826	-178.308	29.3933	1.060038	0.021845	0.021511	30.7524	12652.9	0.020022	0.022578	1362.07	76935.3
1047	2.000000	1.062442	7.37529e+06	-52489.1	1055.82	-29749.1	0.000000	0.000000	7.064110	35.0697	NaN	0.000000	0.001687	0.001766	28.0825	25.1116	0.001770	14184.6	6.980232	-179.453	35.5027	1.062009	0.023915	0.023482	35.0697	14184.6	0.022060	0.025884	1354.89	80552.1
1047	2.000000	1.064384	7.37529e+06	-52489.1	1055.82	-29749.1	0.000000	0.000000	7.066239	39.612	NaN	0.000000	0.001667	0.001731	28.0821	26.9392	0.001815	14840.6	6.081176	-179.622	39.1974	1.064062	0.025857	0.025534	39.612	14840.6	0.023855	0.028965	1367.57	79668.5
1047	2.000000	1.066409	7.37529e+06	-52489.1	1055.82	-29749.1	0.000000	0.000000	7.068561	46.8432	NaN	0.000000	0.001661	0.001716	28.0817	29.6602	0.001777	16689.1	7.297693	177.026	46.4469	1.066060	0.027882	0.027532	46.8432	16689.1	0.025777	0.032444	1443.81	84652
1047	2.000000	1.068391	7.37529e+06	-52489.1	1055.82	-29749.1	0.000000	0.000000	7.070719	51.103	NaN	0.000000	0.001659	0.001766	28.0818	31.0048	0.001740	17816.6	8.464554	176.414	52.8542	1.068083	0.029864	0.029556	51.103	17816.6	0.027713	0.036137	1414.16	85629.5
1047	2.000000	1.070324	7.37529e+06	-52489.1	1055.82	-29749.1	0.000000	0.000000	7.072866	56.313	NaN	0.000000	0.001642	0.001747	28.0819	32.3496	0.001780	18177.8	4.464908	-179.756	54.8437	1.070028	0.031797	0.031501	56.313	18177.8	0.029474	0.039660	1419.9	83394.8
1047	2.000000	1.072436	7.37529e+06	-52489.1	1055.82	-29749.1	0.000000	0.000000	7.075162	60.8077	NaN	0.000000	0.001674	0.001728	28.0827	35.4431	0.001838	19288	3.651265	179.917	61.9032	1.072043	0.033909	0.033515	60.8077	19288	0.031544	0.044006	1381.82	84005.4
1047	2.000000	1.074338	7.37529e+06	-52489.1	1055.82	-29749.1	0.000000	0.000000	7.077449	70.1734	NaN	0.000000	0.001667	0.001781	28.0823	36.9686	0.001856	19922.1	7.041772	176.725	69.7494	1.074007	0.035810	0.035480	70.1734	19922.1	0.033169	0.047568	1475.24	83455.2
1047	2.000000	1.076340	7.37529e+06	-52489.1	1055.82	-29749.1	0.000000	0.000000	7.079688	75.9206	NaN	0.000000	0.001633	0.001728	28.082	38.015	0.001707	22273.1	0.724576	-178.808	73.4603	1.076086	0.037813	0.037558	75.9206	22273.1	0.035257	0.052345	1450.39	88944.1
1047	2.000000	1.078318	7.37529e+06	-52489.1	1055.82	-29749.1	0.000000	0.000000	7.082017	84.4645	NaN	0.000000	0.001623	0.001752	28.0818	38.4974	0.001659	23211.8	3.294900	178.921	81.1257	1.078017	0.039790	0.039489	84.4645	23211.8	0.037061	0.056655	1490.87	89097.5
1047	2.000000	1.080339	7.37529e+06	-52489.1	1055.82	-29749.1	0.000000	0.000000	7.084265	89.9716	NaN	0.000000	0.001638	0.001736	28.082	42.8134	0.001817	23562.8	6.441324	176.106	88.4388	1.080022	0.041812	0.041495	89.9716	23562.8	0.038948	0.061339	1466.8	86922.8
1047	2.000000	1.082355	7.37529e+06	-52489.1	1055.82	-29749.1	0.000000	0.000000	7.086515	95.6598	NaN	0.000000	0.001632	0.001748	28.0829	44.2893	0.001803	24564.9	3.494486	177.937	94.6162	1.082120	0.043828	0.043593	95.6598	24564.9	0.040907	0.066394	1440.79	87101.3
1047	2.000000	1.084356	7.37529e+06	-52489.1	1055.82	-29749.1	0.000000	0.000000	7.088796	102.46	NaN	0.000000	0.001638	0.001741	28.0822	45.5461	0.001822	24999.9	0.582304	-179.504	99.9585	1.084061	0.045829	0.045534	102.46	24999.9	0.042755	0.071343	1436.17	85513.9
1047	2.000000	1.086381	7.37529e+06	-52489.1	1055.82	-29749.1	0.000000	0.000000	7.091281	113.657	NaN	0.000000	0.001662	0.001742	28.0817	46.9889	0.001602	29323.2	2.915295	176.605	115.417	1.086131	0.047854	0.047604	113.657	29323.2	0.044947	0.077437	1467.74	96274.5
1047	2.000000	1.088308	7.37529e+06	-52489.1	1055.82	-29749.1	0.000000	0.000000	7.093583	122.767	NaN	0.000000	0.001650	0.001715	28.082	48.8786	0.001737	28142	5.692562	173.954	120.986	1.088090	0.049781	0.049563	122.767	28142	0.046509	0.081930	1498.44	89827
1047	2.000000	1.090411	7.37529e+06	-52489.1	1055.82	-29749.1	0.000000	0.000000	7.096030	131.132	NaN	0.000000	0.001621	0.001775	28.0817	51.4709	0.001755	29322.8	4.809739	175.571	131.297	1.090035	0.051884	0.051508	131.132	29322.8	0.048530	0.087924	1491.43	90349.6
1047	2.000000	1.092397	7.37529e+06	-52489.1	1055.82	-29749.1	0.000000	0.000000	7.098428	141.15	NaN	0.000000	0.001656	0.001780	28.0823	53.4932	0.001827	29278.5	2.239740	179.027	141.124	1.091993	0.053870	0.053466	141.15	29278.5	0.050254	0.093201	1514.47	87621.7
1047	2.000000	1.094281	7.37529e+06	-52489.1	1055.82	-29749.1	0.000000	0.000000	7.100736	151.461	NaN	0.000000	0.001643	0.001762	28.0822	55.0799	0.001743	31604.7	6.200193	173.994	146.301	1.093907	0.055754	0.055380	151.461	31604.7	0.052160	0.099206	1526.73	91676
1047	2.000000	1.096225	7.37529e+06	-52489.1	1055.82	-29749.1	0.000000	0.000000	7.102903	156.889	NaN	0.000000	0.001649	0.001728	28.083	57.8907	0.001756	32960.1	3.833559	174.994	152.444	1.096109	0.057698	0.057581	156.889	32960.1	0.054128	0.105599	1485.72	92668.8
1047	2.000000	1.098236	7.37529e+06	-52489.1	1055.82	-29749.1	0.000000	0.000000	7.105484	170.739	NaN	0.000000	0.001612	0.001757	28.0834	59.0246	0.001823	32380.2	4.978668	174.31	166.312	1.098060	0.059709	0.059533	170.739	32380.2	0.055754	0.111025	1537.85	88785.7
1047	2.000000	1.100335	7.37529e+06	-52489.1	1055.82	-29749.1	0.000000	0.000000	7.107958	179.862	NaN	0.000000	0.001611	0.001773	28.0829	61.533	0.001744	35288	1.412447	177.257	179.646	1.099998	0.061808	0.061471	179.862	35288	0.057985	0.118683	1515.48	93584.9
1047	2.000000	1.102288	7.37529e+06	-52489.1	1055.82	-29749.1	0.000000	0.000000	7.110472	193.519	NaN	0.000000	0.001645	0.001738	28.0833	63.7626	0.001714	37193.3	4.046816	174.637	190.402	1.102014	0.063761	0.063487	193.519	37193.3	0.059858	0.125301	1544.43	95997.6
1047	2.000000	1.104368	7.37529e+06	-52489.1	1055.82	-29749.1	0.000000	0.000000	7.113039	205.347	NaN	0.000000	0.001634	0.001754	28.0828	66.3532	0.001863	35613.3	10.0924	169.98	205.967	1.103852	0.065841	0.065325	205.347	35613.3	0.061516	0.131301	1563.94	89795
1047	2.000000	1.106279	7.37529e+06	-52489.1	1055.82	-29749.1	0.000000	0.000000	7.115540	219.707	NaN	0.000000	0.001602	0.001750	28.0828	68.745	0.001753	39220.4	4.720425	173.437	217.649	1.105969	0.067752	0.067442	219.707	39220.4	0.063550	0.138846	1582.38	96165.5
1047	2.000000	1.108359	7.37529e+06	-52489.1	1055.82	-29749.1	0.000000	0.000000	7.118097	231.303	NaN	0.000000	0.001609	0.001723	28.0829	69.4235	0.001754	39569.2	3.421606	174.525	232.311	1.107970	0.069831	0.069443	231.303	39569.2	0.065447	0.146063	1583.58	94593.4
1047	2.000000	1.110330	7.37529e+06	-52489.1	1055.82	-29749.1	0.000000	0.000000	7.120551	243.027	NaN	0.000000	0.001685	0.001717	28.083	71.548	0.001665	42968.7	2.534923	174.587	242.356	1.109956	0.071803	0.071429	243.027	42968.7	0.067561	0.154308	1574.95	99938.2
1047	2.000000	1.112350	7.37529e+06	-52489.1	1055.82	-29749.1	0.000000	0.000000	7.122929	251.736	NaN	0.000000	0.001632	0.001726	28.0839	74.844	0.001701	43989.1	7.290624	169.957	251.652	1.112016	0.073823	0.073489	251.736	43989.1	0.069531	0.162184	1552.17	99796.3
1047	2.000000	1.114230	7.37529e+06	-52489.1	1055.82	-29749.1	0.000000	0.000000	7.125549	269.73	NaN	0.000000	0.001618	0.001753	28.0829	76.3308	0.001763	43297.1	3.050665	174.657	265.05	1.113921	0.075703	0.075394	269.73	43297.1	0.071030	0.168305	1602.63	96423.5
1047	2.000000	1.116241	7.37529e+06	-52489.1	1055.82	-29749.1	0.000000	0.000000	7.127959	279.454	NaN	0.000000	0.001629	0.001767	28.0831	78.752	0.001779	44262.6	-0.145455	177.216	273.924	1.115913	0.077713	0.077386	279.454	44262.6	0.072978	0.176413	1584.09	96281.9
1047	2.000000	1.118199	7.37529e+06	-52489.1	1055.82	-29749.1	0.000000	0.000000	7.130544	294.692	NaN	0.000000	0.001608	0.001747	28.0829	79.2719	0.001820	43554.8	0.450506	176.87	288.905	1.117863	0.079671	0.079336	294.692	43554.8	0.074597	0.183289	1607.8	92948.2
1047	2.000000	1.120185	7.37529e+06	-52489.1	1055.82	-29749.1	0.000000	0.000000	7.133022	306.637	NaN	0.000000	0.001634	0.001786	28.0828	81.9565	0.001795	45651.5	1.130935	175.852	300.507	1.119874	0.081658	0.081346	306.637	45651.5	0.076620	0.192056	1596.6	95173
1047	2.000000	1.122336	7.37529e+06	-52489.1	1055.82	-29749.1	0.000000	0.000000	7.135572	316.346	NaN	0.000000	0.001639	0.001776	28.0833	83.6106	0.001755	47643	1.205695	175.28	315.503	1.122029	0.083809	0.083502	316.346	47643	0.078829	0.201846	1567.26	96886.2
1047	2.000000	1.124224	7.37529e+06	-52489.1	1055.82	-29749.1	0.000000	0.000000	7.138521	342.144	NaN	0.000000	0.001667	0.001742	28.0828	84.5932	0.001700	49762.7	3.708983	172.67	336.053	1.123862	0.085696	0.085335	342.144	49762.7	0.080540	0.209585	1632.48	99310.8
1047	2.000000	1.126326	7.37529e+06	-52489.1	1055.82	-29749.1	0.000000	0.000000	7.140930	349.613	NaN	0.000000	0.001634	0.001759	28.0829	88.2029	0.001777	49645.8	5.494886	170.982	349.898	1.126012	0.087799	0.087485	349.613	49645.8	0.082517	0.218700	1598.59	96990.9
1047	2.000000	1.128284	7.37529e+06	-52489.1	1055.82	-29749.1	0.000000	0.000000	7.143716	369.747	NaN	0.000000	0.001650	0.001773	28.0828	88.7071	0.001846	48065.1	5.821866	170.633	368.188	1.128022	0.089757	0.089495	369.747	48065.1	0.083987	0.225595	1638.99	92456.7
1047	2.000000	1.130206	7.37529e+06	-52489.1	1055.82	-29749.1	0.000000	0.000000	7.146168	382.627	NaN	0.000000	0.001668	0.001780	28.0819	91.7752	0.001790	51271.3	4.279222	171.863	377.275	1.129793	0.091679	0.091266	382.627	51271.3	0.086081	0.235588	1624.14	96509.9
1047	2.000000	1.132318	7.37529e+06	-52489.1	1055.82	-29749.1	0.000000	0.000000	7.148670	392.113	NaN	0.000000	0.001628	0.001766	28.0818	94.0288	0.001791	52501	2.070941	173.82	391.285	1.132171	0.093791	0.093644	392.113	52501	0.088189	0.245851	1594.92	96739.8
1047	2.000000	1.134313	7.37529e+06	-52489.1	1055.82	-29749.1	0.000000	0.000000	7.151656	416.193	NaN	0.000000	0.001668	0.001794	28.0818	97.1952	0.001904	51044.5	7.873110	168.554	417.207	1.133920	0.095786	0.095393	416.193	51044.5	0.089671	0.253184	1643.83	92683.8
1047	2.000000	1.136251	7.37529e+06	-52489.1	1055.82	-29749.1	0.000000	0.000000	7.154352	434.63	NaN	0.000000	0.001622	0.001762	28.0819	98.4583	0.001898	51862.2	6.751083	169.432	433.739	1.135988	0.097724	0.097461	434.63	51862.2	0.091439	0.262070	1658.45	92558.2
1047	2.000000	1.138204	7.37529e+06	-52489.1	1055.82	-29749.1	0.000000	0.000000	7.157012	451.82	NaN	0.000000	0.001643	0.001721	28.0816	98.796	0.001792	55129.8	6.035952	169.988	446.024	1.137825	0.099677	0.099297	451.82	55129.8	0.093530	0.272768	1656.42	96441.2
1047	2.000000	1.140253	7.37529e+06	-52489.1	1055.82	-29749.1	0.000000	0.000000	7.159873	471.57	NaN	0.000000	0.001664	0.001752	28.0817	100.508	0.001765	56936.9	1.555379	173.929	469.798	1.139989	0.101725	0.101462	471.57	56936.9	0.095514	0.283095	1665.77	97769
1047	2.000000	1.142252	7.37529e+06	-52489.1	1055.82	-29749.1	0.000000	0.000000	7.162465	485.983	NaN	0.000000	0.001680	0.001736	28.0817	103.612	0.001700	60963.7	6.690424	168.524	483.074	1.142038	0.103725	0.103511	485.983	60963.7	0.097746	0.294937	1647.75	102560
1047	2.000000	1.144213	7.37529e+06	-52489.1	1055.82	-29749.1	0.000000	0.000000	7.165161	503.852	NaN	0.000000	0.001664	0.001752	28.0818	104.288	0.001760	59270.3	4.358154	170.53	498.774	1.143951	0.105685	0.105424	503.852	59270.3	0.099310	0.303364	1660.88	98317
1047	2.000000	1.146307	7.37529e+06	-52489.1	1055.82	-29749.1	0.000000	0.000000	7.167682	514.24	NaN	0.000000	0.001648	0.001789	28.0822	107.953	0.001848	58402	3.126539	172.181	513.938	1.146123	0.107780	0.107595	514.24	58402	0.101176	0.313569	1639.96	95287.2