File: remote_trans/data/nanoindenter/0828-1/data/Data_2025-08-06,11h17m57s/2025-07-22_16-23-58_1_639.txt
2025-07-22, 16:23:58, 1
Index	Phase	Displacement	Time	Pos X	Pos Y	Pos Z	Rot A	Rot B	Piezo Z	Force A	Force B	Gripper	Voltage A	Voltage B	Temperature	Amplitude force	Amplitude pos	Stiffness	Phase shift	Phase excitation	Force A raw	Displacement raw	HMax	HMax raw	Real Force	Real Stiffness	Contact Depth	Area	Hardness	Reduced Mod.
[#]	[#]	[um]	[s]	[um]	[um]	[um]	[m°]	[m°]	[um]	[uN]	[uN]	[V]	[V]	[V]	[°C]	[uN]	[um]	[N/m]	[°]	[°]	[uN]	[um]	[um]	[um]	[uN]	[N/m]	[um]	[um^2]	[MPa]	[MPa]
639	1.000000	0.002347	7.3713e+06	-45139.1	1005.82	-29773.4	0.000000	0.000000	6.002748	-0.073231	NaN	0.000000	0.001755	0.001702	28.0833	0.069874	0.000936	74.6622	-87.2513	-168.584	-0.080269	0.001118	-1.114095	-1.115324	-0.073231	74.6622	-1.113360	-7.574876E+14	9.667567E-17	NaN
639	1.000000	0.012492	7.3713e+06	-45139.1	1005.82	-29773.4	0.000000	0.000000	6.012895	-0.013792	NaN	0.000000	0.001747	0.001674	28.0831	0.045477	0.001273	35.7147	-16.2363	18.5831	-0.075438	0.011013	-1.103951	-1.105430	-0.013792	35.7147	-1.103661	-5.613237E+14	2.456982E-17	NaN
639	1.000000	0.022330	7.3713e+06	-45139.1	1005.82	-29773.4	0.000000	0.000000	6.022733	-0.015484	NaN	0.000000	0.001709	0.001689	28.083	0.038768	0.001669	23.2301	-2.108884	-164.808	-0.012645	0.021076	-1.094112	-1.095366	-0.015484	23.2301	-1.093612	-4.114473E+14	3.763412E-17	NaN
639	1.000000	0.032370	7.3713e+06	-45139.1	1005.82	-29773.4	0.000000	0.000000	6.032771	-0.072639	NaN	0.000000	0.001752	0.001717	28.0821	0.072562	0.001912	37.9436	-64.7487	14.7652	-0.139588	0.030946	-1.084073	-1.085496	-0.072639	37.9436	-1.082637	-2.930465E+14	2.478765E-16	NaN
639	1.000000	0.042346	7.3713e+06	-45139.1	1005.82	-29773.4	0.000000	0.000000	6.042751	0.028318	NaN	0.000000	0.001761	0.001680	28.0821	0.086806	0.002034	42.6854	143.087	-167.058	0.025380	0.041075	-1.074097	-1.075367	0.028318	42.6854	-1.074594	-2.285110E+14	-1.239238E-16	NaN
639	1.000000	0.052390	7.3713e+06	-45139.1	1005.82	-29773.4	0.000000	0.000000	6.052793	-0.032321	NaN	0.000000	0.001708	0.001707	28.082	0.100651	0.001979	50.8477	-136.539	17.3685	-0.019572	0.050956	-1.064052	-1.065487	-0.032321	50.8477	-1.063576	-1.625058E+14	1.988908E-16	NaN
639	1.000000	0.062323	7.3713e+06	-45139.1	1005.82	-29773.4	0.000000	0.000000	6.062726	-0.021053	NaN	0.000000	0.001716	0.001719	28.0815	0.099076	0.002029	48.8267	-84.2175	-165.5	-0.114533	0.060995	-1.054120	-1.055447	-0.021053	48.8267	-1.053796	-1.200722E+14	1.753332E-16	NaN
639	1.000000	0.072350	7.3713e+06	-45139.1	1005.82	-29773.4	0.000000	0.000000	6.072753	-0.015009	NaN	0.000000	0.001723	0.001707	28.0819	0.041272	0.002094	19.71	-131.017	16.848	-0.011710	0.071005	-1.044092	-1.045438	-0.015009	19.71	-1.043521	-8.736057E+13	1.718095E-16	NaN
639	1.000000	0.082375	7.3713e+06	-45139.1	1005.82	-29773.4	0.000000	0.000000	6.082780	0.046083	NaN	0.000000	0.001743	0.001714	28.0818	0.125946	0.002056	61.2689	111.297	-166.01	-0.007752	0.080995	-1.034068	-1.035447	0.046083	61.2689	-1.034632	-6.634080E+13	-6.946425E-16	NaN
639	1.000000	0.092375	7.3713e+06	-45139.1	1005.82	-29773.4	0.000000	0.000000	6.092778	-0.023968	NaN	0.000000	0.001663	0.001700	28.0818	0.045603	0.002121	21.5038	-125.527	10.9297	-0.093464	0.091047	-1.024068	-1.025396	-0.023968	21.5038	-1.023232	-4.660535E+13	5.142811E-16	NaN
639	1.000000	0.102381	7.3713e+06	-45139.1	1005.82	-29773.4	0.000000	0.000000	6.102782	-0.066150	NaN	0.000000	0.001665	0.001682	28.0817	0.087867	0.001968	44.6536	174.653	-167.486	-0.019423	0.101046	-1.014061	-1.015396	-0.066150	44.6536	-1.012950	-3.389140E+13	1.951834E-15	NaN
639	1.000000	0.112356	7.3713e+06	-45139.1	1005.82	-29773.4	0.000000	0.000000	6.112757	-0.080418	NaN	0.000000	0.001641	0.001726	28.0817	0.020563	0.002049	10.0352	66.0447	15.9278	-0.063955	0.111008	-1.004086	-1.005435	-0.080418	10.0352	-0.998076	-2.137306E+13	3.762576E-15	NaN
639	1.000000	0.122379	7.3713e+06	-45139.1	1005.82	-29773.4	0.000000	0.000000	6.122782	-0.044990	NaN	0.000000	0.001673	0.001739	28.0819	0.074194	0.001918	38.6735	38.4747	-161.884	-0.025529	0.121090	-0.994063	-0.995352	-0.044990	38.6735	-0.993191	-1.836875E+13	2.449271E-15	NaN
639	1.000000	0.132391	7.3713e+06	-45139.1	1005.82	-29773.4	0.000000	0.000000	6.132795	-0.006508	NaN	0.000000	0.001656	0.001700	28.0817	0.039103	0.002052	19.058	26.1732	12.5935	-0.063911	0.130992	-0.984051	-0.985451	-0.006508	19.058	-0.983795	-1.372581E+13	4.741140E-16	NaN
639	1.000000	0.142369	7.3713e+06	-45139.1	1005.82	-29773.4	0.000000	0.000000	6.142771	-0.048119	NaN	0.000000	0.001689	0.001686	28.082	0.031646	0.002011	15.7353	-57.7446	-161.613	0.006035	0.141087	-0.974073	-0.975355	-0.048119	15.7353	-0.971780	-9.454653E+12	5.089472E-15	NaN
639	1.000000	0.152392	7.3713e+06	-45139.1	1005.82	-29773.4	0.000000	0.000000	6.152796	-0.010349	NaN	0.000000	0.001710	0.001704	28.0818	0.089266	0.002030	43.9787	60.6974	15.3246	0.003072	0.151050	-0.964050	-0.965392	-0.010349	43.9787	-0.963874	-7.397580E+12	1.399014E-15	NaN
639	1.000000	0.162368	7.3713e+06	-45139.1	1005.82	-29773.4	0.000000	0.000000	6.162771	-0.028813	NaN	0.000000	0.001697	0.001718	28.0819	0.065054	0.001980	32.8507	72.3585	-161.486	-0.094482	0.161106	-0.954074	-0.955337	-0.028813	32.8507	-0.953417	-5.346901E+12	5.388670E-15	NaN
639	1.000000	0.172392	7.3713e+06	-45139.1	1005.82	-29773.4	0.000000	0.000000	6.172797	0.035983	NaN	0.000000	0.001702	0.001709	28.083	0.051394	0.002002	25.6728	-116.458	13.6103	0.025009	0.171036	-0.944051	-0.945406	0.035983	25.6728	-0.945102	-4.130144E+12	-8.712180E-15	NaN
639	1.000000	0.182388	7.3713e+06	-45139.1	1005.82	-29773.4	0.000000	0.000000	6.182790	-0.046064	NaN	0.000000	0.001689	0.001687	28.083	0.079091	0.002126	37.1929	-6.310435	-165.348	-0.108799	0.181081	-0.934054	-0.935361	-0.046064	37.1929	-0.933125	-2.846922E+12	1.618013E-14	NaN
639	1.000000	0.192405	7.3713e+06	-45139.1	1005.82	-29773.4	0.000000	0.000000	6.192808	-0.010323	NaN	0.000000	0.001705	0.001722	28.0831	0.033548	0.001919	17.4788	38.2648	17.1994	0.012379	0.190999	-0.924038	-0.925443	-0.010323	17.4788	-0.923595	-2.117092E+12	4.875998E-15	NaN
639	1.000000	0.202381	7.3713e+06	-45139.1	1005.82	-29773.4	0.000000	0.000000	6.202785	-0.011022	NaN	0.000000	0.001701	0.001715	28.0828	0.062419	0.002066	30.2188	61.6135	-164.767	-0.046498	0.201138	-0.914061	-0.915305	-0.011022	30.2188	-0.913788	-1.560707E+12	7.062063E-15	NaN
639	1.000000	0.212395	7.3713e+06	-45139.1	1005.82	-29773.4	0.000000	0.000000	6.212799	0.003964	NaN	0.000000	0.001688	0.001681	28.0829	0.036751	0.001955	18.7955	16.6183	14.9198	0.027842	0.211047	-0.904048	-0.905396	0.003964	18.7955	-0.904206	-1.158490E+12	-3.421611E-15	NaN
639	1.000000	0.222441	7.3713e+06	-45139.1	1005.82	-29773.4	0.000000	0.000000	6.222842	-0.076224	NaN	0.000000	0.001687	0.001677	28.083	0.007202	0.001917	3.756857	39.1702	-163.059	-0.079653	0.221052	-0.894001	-0.895390	-0.076224	3.756857	-0.878784	-5.251280E+11	1.451523E-13	NaN
639	1.000000	0.232386	7.3713e+06	-45139.1	1005.82	-29773.4	0.000000	0.000000	6.232790	0.008747	NaN	0.000000	0.001668	0.001684	28.083	0.063042	0.002010	31.372	-10.594	15.7786	0.021314	0.231061	-0.884057	-0.885382	0.008747	31.372	-0.884266	-6.228623E+11	-1.404306E-14	NaN
639	1.000000	0.242439	7.3713e+06	-45139.1	1005.82	-29773.4	0.000000	0.000000	6.242840	-0.070935	NaN	0.000000	0.001666	0.001692	28.083	0.044122	0.001910	23.0969	53.9216	-164.064	-0.086322	0.241122	-0.874003	-0.875321	-0.070935	23.0969	-0.871700	-4.211550E+11	1.684296E-13	NaN
639	1.000000	0.252419	7.3713e+06	-45139.1	1005.82	-29773.4	0.000000	0.000000	6.252825	0.042653	NaN	0.000000	0.001688	0.001692	28.083	0.140144	0.001943	72.1238	-29.5838	18.4075	0.015128	0.251063	-0.864023	-0.865379	0.042653	72.1238	-0.864467	-3.361815E+11	-1.268749E-13	NaN
639	1.000000	0.262440	7.3713e+06	-45139.1	1005.82	-29773.4	0.000000	0.000000	6.262843	-0.020815	NaN	0.000000	0.001673	0.001675	28.0835	0.057145	0.001993	28.67	35.676	-161.984	0.112508	0.261066	-0.854002	-0.855376	-0.020815	28.67	-0.853458	-2.385363E+11	8.726215E-14	NaN
639	1.000000	0.272436	7.3713e+06	-45139.1	1005.82	-29773.4	0.000000	0.000000	6.272838	-0.045053	NaN	0.000000	0.001678	0.001729	28.0829	0.038126	0.001940	19.6488	113.976	11.7362	0.007142	0.271065	-0.844006	-0.845377	-0.045053	19.6488	-0.842286	-1.683708E+11	2.675791E-13	NaN
639	1.000000	0.282440	7.3713e+06	-45139.1	1005.82	-29773.4	0.000000	0.000000	6.282842	-0.034612	NaN	0.000000	0.001658	0.001715	28.0834	0.120605	0.002141	56.3414	137.977	-163.837	-0.038467	0.281104	-0.834003	-0.835338	-0.034612	56.3414	-0.833542	-1.281718E+11	2.700434E-13	NaN
639	1.000000	0.292423	7.3713e+06	-45139.1	1005.82	-29773.4	0.000000	0.000000	6.292823	-0.087017	NaN	0.000000	0.001664	0.001698	28.083	0.193976	0.002086	92.9838	160.88	16.5143	-0.117471	0.291034	-0.824020	-0.825409	-0.087017	92.9838	-0.823318	-9.315422E+10	9.341146E-13	NaN
639	1.000000	0.302463	7.3713e+06	-45139.1	1005.82	-29773.4	0.000000	0.000000	6.302866	-0.025358	NaN	0.000000	0.001713	0.001670	28.0824	0.110432	0.002035	54.2692	-0.016852	-166.415	-0.029549	0.301130	-0.813979	-0.815312	-0.025358	54.2692	-0.813629	-6.883382E+10	3.683997E-13	NaN
639	1.000000	0.312461	7.3713e+06	-45139.1	1005.82	-29773.4	0.000000	0.000000	6.312865	0.004208	NaN	0.000000	0.001715	0.001703	28.0817	0.008910	0.002046	4.355766	145.897	11.2142	0.003153	0.311050	-0.803981	-0.805393	0.004208	4.355766	-0.804706	-5.208738E+10	-8.078283E-14	NaN
639	1.000000	0.322468	7.3713e+06	-45139.1	1005.82	-29773.4	0.000000	0.000000	6.322872	0.015284	NaN	0.000000	0.001716	0.001716	28.0819	0.021029	0.001905	11.0389	86.4019	-165.057	-0.010781	0.321134	-0.793975	-0.795308	0.015284	11.0389	-0.795013	-3.847349E+10	-3.972604E-13	NaN
639	1.000000	0.332461	7.3713e+06	-45139.1	1005.82	-29773.4	0.000000	0.000000	6.332862	-0.068103	NaN	0.000000	0.001647	0.001694	28.0817	0.039015	0.002005	19.4596	134.006	16.3492	-0.037801	0.331087	-0.783981	-0.785355	-0.068103	19.4596	-0.781357	-2.509958E+10	2.713312E-12	NaN
639	1.000000	0.342446	7.3713e+06	-45139.1	1005.82	-29773.4	0.000000	0.000000	6.342847	-0.063211	NaN	0.000000	0.001640	0.001698	28.0819	0.063553	0.002118	30.0069	-123.719	-164.828	-0.053177	0.341147	-0.773997	-0.775296	-0.063211	30.0069	-0.772417	-1.897424E+10	3.331417E-12	NaN
639	1.000000	0.352471	7.3713e+06	-45139.1	1005.82	-29773.4	0.000000	0.000000	6.352876	0.006418	NaN	0.000000	0.001669	0.001671	28.0815	0.099214	0.002119	46.8302	-110.48	17.1385	0.018720	0.351125	-0.763971	-0.765317	0.006418	46.8302	-0.764074	-1.461228E+10	-4.392492E-13	NaN
639	1.000000	0.362473	7.3713e+06	-45139.1	1005.82	-29773.4	0.000000	0.000000	6.362876	-0.028233	NaN	0.000000	0.001649	0.001680	28.0817	0.075600	0.001905	39.6928	-119.269	-164.313	-0.035206	0.361147	-0.753969	-0.755296	-0.028233	39.6928	-0.753436	-1.047088E+10	2.696373E-12	NaN
639	1.000000	0.372474	7.3713e+06	-45139.1	1005.82	-29773.4	0.000000	0.000000	6.372879	0.018440	NaN	0.000000	0.001655	0.001689	28.0816	0.107021	0.001950	54.8838	-146.039	15.5603	0.029857	0.371115	-0.743968	-0.745328	0.018440	54.8838	-0.744220	-7.843856E+9	-2.350894E-12	NaN
639	1.000000	0.382473	7.3713e+06	-45139.1	1005.82	-29773.4	0.000000	0.000000	6.382875	-0.045216	NaN	0.000000	0.001673	0.001680	28.0819	0.119720	0.002052	58.3324	52.8295	-169.308	-0.090258	0.381199	-0.733969	-0.735243	-0.045216	58.3324	-0.733388	-5.584435E+9	8.096813E-12	NaN
639	1.000000	0.392490	7.3713e+06	-45139.1	1005.82	-29773.4	0.000000	0.000000	6.392893	-0.038663	NaN	0.000000	0.001656	0.001667	28.0818	0.080362	0.001972	40.7526	-113.411	15.2189	-0.075886	0.391088	-0.723952	-0.725355	-0.038663	40.7526	-0.723241	-4.061285E+9	9.520012E-12	NaN
639	1.000000	0.402477	7.3713e+06	-45139.1	1005.82	-29773.4	0.000000	0.000000	6.402879	-0.066322	NaN	0.000000	0.001670	0.001701	28.0818	0.085685	0.002003	42.784	-164.764	-168.447	-0.051237	0.401184	-0.713965	-0.715258	-0.066322	42.784	-0.712802	-2.926106E+9	2.266557E-11	NaN
639	1.000000	0.412496	7.3713e+06	-45139.1	1005.82	-29773.4	0.000000	0.000000	6.412899	-0.016236	NaN	0.000000	0.001676	0.001751	28.0822	0.045383	0.001986	22.8459	-7.003099	14.5179	-0.038127	0.411116	-0.703947	-0.705326	-0.016236	22.8459	-0.703414	-2.178434E+9	7.453150E-12	NaN
639	1.000000	0.422500	7.3713e+06	-45139.1	1005.82	-29773.4	0.000000	0.000000	6.422903	-0.010585	NaN	0.000000	0.001712	0.001696	28.0819	0.014998	0.001999	7.501259	-7.070715	-165.048	-0.016030	0.421227	-0.693943	-0.695216	-0.010585	7.501259	-0.692884	-1.564349E+9	6.766302E-12	NaN
639	1.000000	0.432505	7.3713e+06	-45139.1	1005.82	-29773.4	0.000000	0.000000	6.432907	-0.026811	NaN	0.000000	0.001694	0.001711	28.0821	0.079023	0.001972	40.0648	-8.188416	15.9537	-0.035616	0.431200	-0.683938	-0.685243	-0.026811	40.0648	-0.683436	-1.161961E+9	2.307356E-11	NaN
639	1.000000	0.442521	7.3713e+06	-45139.1	1005.82	-29773.4	0.000000	0.000000	6.442926	0.009140	NaN	0.000000	0.001658	0.001702	28.0833	0.084124	0.001961	42.8929	171.208	-167.245	-0.005590	0.441198	-0.673921	-0.675245	0.009140	42.8929	-0.674081	-8.654396E+8	-1.056065E-11	NaN
639	1.000000	0.452512	7.3713e+06	-45139.1	1005.82	-29773.4	0.000000	0.000000	6.452915	-0.021565	NaN	0.000000	0.001671	0.001711	28.0835	0.077763	0.001927	40.3637	121.878	14.376	0.026734	0.451189	-0.663931	-0.665254	-0.021565	40.3637	-0.663530	-6.206074E+8	3.474748E-11	NaN
639	1.000000	0.462524	7.3713e+06	-45139.1	1005.82	-29773.4	0.000000	0.000000	6.462927	-0.022789	NaN	0.000000	0.001672	0.001684	28.0831	0.055408	0.001986	27.8945	89.0526	-165.029	-0.061602	0.461233	-0.653919	-0.655210	-0.022789	27.8945	-0.653306	-4.495205E+8	5.069618E-11	NaN
639	1.000000	0.472520	7.3713e+06	-45139.1	1005.82	-29773.4	0.000000	0.000000	6.472923	-0.022280	NaN	0.000000	0.001689	0.001671	28.0834	0.120969	0.001956	61.8479	122.507	15.8134	-0.009967	0.471205	-0.643923	-0.645238	-0.022280	61.8479	-0.643653	-3.314343E+8	6.722257E-11	NaN
639	1.000000	0.482501	7.3713e+06	-45139.1	1005.82	-29773.4	0.000000	0.000000	6.482905	0.009988	NaN	0.000000	0.001689	0.001685	28.0834	0.039615	0.002071	19.1265	158.926	-163.374	-0.053534	0.481233	-0.633942	-0.635209	0.009988	19.1265	-0.634333	-2.469009E+8	-4.045279E-11	NaN
639	1.000000	0.492541	7.3713e+06	-45139.1	1005.82	-29773.4	0.000000	0.000000	6.492941	-0.074961	NaN	0.000000	0.001663	0.001706	28.0834	0.054725	0.002001	27.3514	108.676	15.0572	-0.124733	0.491127	-0.623902	-0.625315	-0.074961	27.3514	-0.621846	-1.663452E+8	4.506360E-10	NaN
639	1.000000	0.502500	7.3713e+06	-45139.1	1005.82	-29773.4	0.000000	0.000000	6.502904	-0.004290	NaN	0.000000	0.001689	0.001730	28.0833	0.033068	0.002143	15.4341	115.049	-165.965	0.051414	0.501218	-0.613943	-0.615225	-0.004290	15.4341	-0.613734	-1.286716E+8	3.333714E-11	NaN
639	1.000000	0.512535	7.3713e+06	-45139.1	1005.82	-29773.4	0.000000	0.000000	6.512942	0.092091	NaN	0.000000	0.001683	0.001711	28.0843	0.063972	0.002057	31.0937	151.252	13.9038	0.026099	0.511173	-0.603908	-0.605269	0.092091	31.0937	-0.606129	-1.011226E+8	-9.106910E-10	NaN
639	1.000000	0.522534	7.3713e+06	-45139.1	1005.82	-29773.4	0.000000	0.000000	6.522935	-0.069387	NaN	0.000000	0.001701	0.001709	28.085	0.040120	0.002095	19.1548	-44.4287	-160.231	-0.060784	0.521229	-0.593908	-0.595214	-0.069387	19.1548	-0.591191	-6.296361E+7	1.102025E-9	NaN
639	1.000000	0.532567	7.3713e+06	-45139.1	1005.82	-29773.4	0.000000	0.000000	6.532972	0.035785	NaN	0.000000	0.001690	0.001732	28.0837	0.054001	0.001981	27.2541	-4.344813	15.3599	-0.101675	0.531143	-0.583876	-0.585299	0.035785	27.2541	-0.584860	-5.149790E+7	-6.948916E-10	NaN
639	1.000000	0.542550	7.3713e+06	-45139.1	1005.82	-29773.4	0.000000	0.000000	6.542954	0.023213	NaN	0.000000	0.001683	0.001739	28.0835	0.045453	0.001977	22.9873	-161.682	-161.806	0.020566	0.541250	-0.573893	-0.575192	0.023213	22.9873	-0.574650	-3.722793E+7	-6.235403E-10	NaN
639	1.000000	0.552552	7.3713e+06	-45139.1	1005.82	-29773.4	0.000000	0.000000	6.552955	-0.020844	NaN	0.000000	0.001661	0.001729	28.0836	0.046879	0.002056	22.8002	-66.0119	11.1939	0.018056	0.551227	-0.563890	-0.565215	-0.020844	22.8002	-0.563204	-2.586416E+7	8.059143E-10	NaN
639	1.000000	0.562604	7.3713e+06	-45139.1	1005.82	-29773.4	0.000000	0.000000	6.563006	-0.047139	NaN	0.000000	0.001695	0.001729	28.0836	0.062990	0.001946	32.3753	97.0447	-168.855	-0.042123	0.561261	-0.553839	-0.555182	-0.047139	32.3753	-0.552747	-1.853497E+7	2.543268E-9	NaN
639	1.000000	0.572581	7.3713e+06	-45139.1	1005.82	-29773.4	0.000000	0.000000	6.572985	0.011829	NaN	0.000000	0.001661	0.001685	28.0833	0.103829	0.001908	54.4071	154.731	13.6752	-0.073901	0.571216	-0.543862	-0.545226	0.011829	54.4071	-0.544025	-1.403339E+7	-8.429394E-10	NaN
639	1.000000	0.582604	7.3713e+06	-45139.1	1005.82	-29773.4	0.000000	0.000000	6.583007	-0.040765	NaN	0.000000	0.001722	0.001670	28.0821	0.060830	0.001966	30.9441	-79.5805	-164.621	-0.029259	0.581251	-0.533838	-0.535192	-0.040765	30.9441	-0.532850	-9.82081e+06	4.150919E-9	NaN
639	1.000000	0.592600	7.3713e+06	-45139.1	1005.82	-29773.4	0.000000	0.000000	6.593002	-0.045364	NaN	0.000000	0.001744	0.001651	28.0822	0.011219	0.001907	5.884465	0.488998	12.5819	-0.111996	0.591239	-0.523842	-0.525204	-0.045364	5.884465	-0.518061	-6.11817e+06	7.414557E-9	NaN
639	1.000000	0.602596	7.3713e+06	-45139.1	1005.82	-29773.4	0.000000	0.000000	6.602998	-0.045593	NaN	0.000000	0.001787	0.001684	28.0823	0.098739	0.002034	48.5551	176.01	-163.987	0.001570	0.601248	-0.513847	-0.515195	-0.045593	48.5551	-0.513143	-5.2261e+06	8.724165E-9	NaN
639	1.000000	0.612601	7.3713e+06	-45139.1	1005.82	-29773.4	0.000000	0.000000	6.613001	-0.074627	NaN	0.000000	0.001738	0.001694	28.0821	0.136852	0.001954	70.0483	-10.3447	15.9522	-0.007363	0.611239	-0.503842	-0.505204	-0.074627	70.0483	-0.503043	-3.77972e+06	1.974420E-8	NaN
639	1.000000	0.622579	7.3713e+06	-45139.1	1005.82	-29773.4	0.000000	0.000000	6.622984	0.041507	NaN	0.000000	0.001784	0.001680	28.0818	0.074667	0.002015	37.0603	-162.893	-163.013	0.017622	0.621319	-0.493864	-0.495123	0.041507	37.0603	-0.494704	-2.89134e+06	-1.435550E-8	NaN
639	1.000000	0.632610	7.3713e+06	-45139.1	1005.82	-29773.4	0.000000	0.000000	6.633015	0.025055	NaN	0.000000	0.001769	0.001685	28.0824	0.021690	0.001980	10.9553	109.207	12.2274	-0.003936	0.631251	-0.483832	-0.485192	0.025055	10.9553	-0.485547	-2.15351e+06	-1.163467E-8	NaN
639	1.000000	0.642597	7.3713e+06	-45139.1	1005.82	-29773.4	0.000000	0.000000	6.642997	-0.104858	NaN	0.000000	0.001785	0.001648	28.0821	0.034794	0.001990	17.4815	101.172	-168.61	-0.120325	0.641244	-0.473845	-0.475199	-0.104858	17.4815	-0.469347	-1.27715e+06	8.210307E-8	NaN
639	1.000000	0.652599	7.3713e+06	-45139.1	1005.82	-29773.4	0.000000	0.000000	6.653002	-0.008763	NaN	0.000000	0.001794	0.001701	28.0822	0.068362	0.002104	32.4901	45.8562	14.4864	0.026253	0.651268	-0.463844	-0.465174	-0.008763	32.4901	-0.463641	-1.06212e+06	8.250853E-9	NaN
639	1.000000	0.662624	7.3713e+06	-45139.1	1005.82	-29773.4	0.000000	0.000000	6.663027	-0.017164	NaN	0.000000	0.001755	0.001690	28.082	0.041313	0.002000	20.6612	-133.392	-166.899	-0.006164	0.661270	-0.453819	-0.455173	-0.017164	20.6612	-0.453196	-757408	2.266101E-8	NaN
639	1.000000	0.672613	7.3713e+06	-45139.1	1005.82	-29773.4	0.000000	0.000000	6.673011	-0.121931	NaN	0.000000	0.001799	0.001685	28.0824	0.090981	0.002019	45.0543	-92.7983	13.7801	-0.041611	0.671236	-0.443830	-0.445206	-0.121931	45.0543	-0.441800	-523319	2.329951E-7	NaN
639	1.000000	0.682621	7.3713e+06	-45139.1	1005.82	-29773.4	0.000000	0.000000	6.683022	-0.057881	NaN	0.000000	0.001734	0.001709	28.082	0.050469	0.002047	24.6569	-43.1028	-164.496	-0.017379	0.681277	-0.433822	-0.435165	-0.057881	24.6569	-0.432061	-381254	1.518172E-7	NaN
639	1.000000	0.692620	7.3713e+06	-45139.1	1005.82	-29773.4	0.000000	0.000000	6.693027	0.085244	NaN	0.000000	0.001738	0.001688	28.0821	0.134926	0.001868	72.218	-122.253	13.3792	0.040364	0.691302	-0.423823	-0.425141	0.085244	72.218	-0.424708	-300017	-2.841303E-7	NaN
639	1.000000	0.702618	7.3713e+06	-45139.1	1005.82	-29773.4	0.000000	0.000000	6.703022	-0.012321	NaN	0.000000	0.001762	0.001657	28.0821	0.037702	0.002007	18.7881	101.908	-164.807	-0.033335	0.701342	-0.413824	-0.415100	-0.012321	18.7881	-0.413332	-206902	5.955222E-8	NaN
639	1.000000	0.712632	7.3713e+06	-45139.1	1005.82	-29773.4	0.000000	0.000000	6.713036	0.016825	NaN	0.000000	0.001757	0.001692	28.0834	0.051619	0.001980	26.0692	-113.825	16.5245	0.028352	0.711263	-0.403811	-0.405179	0.016825	26.0692	-0.404295	-153888	-1.093349E-7	NaN
639	1.000000	0.722620	7.3713e+06	-45139.1	1005.82	-29773.4	0.000000	0.000000	6.723024	-0.009786	NaN	0.000000	0.001761	0.001710	28.0835	0.029879	0.002027	14.7432	141.321	-161.456	-0.102998	0.721297	-0.393822	-0.395146	-0.009786	14.7432	-0.393324	-107324	9.118376E-8	NaN
639	1.000000	0.732654	7.3713e+06	-45139.1	1005.82	-29773.4	0.000000	0.000000	6.733056	-0.049652	NaN	0.000000	0.001762	0.001710	28.0831	0.089660	0.001979	45.2963	-30.0605	13.4293	0.051792	0.731297	-0.383788	-0.385145	-0.049652	45.2963	-0.382966	-76284.9	6.508796E-7	NaN
639	1.000000	0.742657	7.3713e+06	-45139.1	1005.82	-29773.4	0.000000	0.000000	6.743059	-0.029573	NaN	0.000000	0.001766	0.001712	28.0837	0.091653	0.002050	44.7038	132.671	-166.661	-0.058672	0.741334	-0.373786	-0.375109	-0.029573	44.7038	-0.373290	-55395.5	5.338563E-7	NaN
639	1.000000	0.752658	7.3713e+06	-45139.1	1005.82	-29773.4	0.000000	0.000000	6.753063	0.024864	NaN	0.000000	0.001771	0.001691	28.0834	0.062865	0.002046	30.7239	130.544	15.8713	0.035086	0.751256	-0.363785	-0.365187	0.024864	30.7239	-0.364392	-41236	-6.029772E-7	NaN
639	1.000000	0.762653	7.3713e+06	-45139.1	1005.82	-29773.4	0.000000	0.000000	6.763058	0.021109	NaN	0.000000	0.001776	0.001663	28.0833	0.010959	0.001927	5.687337	85.8356	-164.961	-0.009771	0.761310	-0.353789	-0.355132	0.021109	5.687337	-0.356573	-31788.6	-6.640338E-7	NaN
639	1.000000	0.772660	7.3713e+06	-45139.1	1005.82	-29773.4	0.000000	0.000000	6.773062	-0.047290	NaN	0.000000	0.001773	0.001706	28.0833	0.054611	0.001949	28.0175	-108.197	17.0015	-0.000858	0.771280	-0.343782	-0.345162	-0.047290	28.0175	-0.342516	-19870.8	2.379852E-6	NaN
639	1.000000	0.782644	7.3713e+06	-45139.1	1005.82	-29773.4	0.000000	0.000000	6.783046	-0.060862	NaN	0.000000	0.001787	0.001691	28.0836	0.086694	0.001891	45.8429	120.038	-162.936	-0.074089	0.781342	-0.333798	-0.335101	-0.060862	45.8429	-0.332802	-14337.1	4.245026E-6	NaN
639	1.000000	0.792662	7.3713e+06	-45139.1	1005.82	-29773.4	0.000000	0.000000	6.793065	-0.043251	NaN	0.000000	0.001747	0.001669	28.0832	0.066487	0.002035	32.6684	25.9095	19.7407	-0.082215	0.791352	-0.323780	-0.325090	-0.043251	32.6684	-0.322787	-10224.3	4.230239E-6	NaN
639	1.000000	0.802640	7.3713e+06	-45139.1	1005.82	-29773.4	0.000000	0.000000	6.803045	0.023879	NaN	0.000000	0.001740	0.001668	28.0833	0.089219	0.001948	45.8068	-52.5243	-163.166	0.022973	0.801358	-0.313802	-0.315085	0.023879	45.8068	-0.314193	-7638.99	-3.125946E-6	NaN
639	1.000000	0.812664	7.3713e+06	-45139.1	1005.82	-29773.4	0.000000	0.000000	6.813067	-0.034055	NaN	0.000000	0.001761	0.001691	28.0833	0.057022	0.001969	28.9621	-61.9434	15.6653	-0.029774	0.811305	-0.303778	-0.305138	-0.034055	28.9621	-0.302896	-5196.54	6.553468E-6	NaN
639	1.000000	0.822691	7.3713e+06	-45139.1	1005.82	-29773.4	0.000000	0.000000	6.823096	0.020673	NaN	0.000000	0.001773	0.001685	28.0835	0.051970	0.001974	26.3285	-130.919	-167.625	-0.061889	0.821407	-0.293752	-0.295036	0.020673	26.3285	-0.294341	-3874.71	-5.335294E-6	NaN
639	1.000000	0.832667	7.3713e+06	-45139.1	1005.82	-29773.4	0.000000	0.000000	6.833071	-0.007440	NaN	0.000000	0.001748	0.001678	28.0832	0.109906	0.001972	55.746	-95.1546	15.8511	0.066826	0.831314	-0.283775	-0.285129	-0.007440	55.746	-0.283675	-2681.26	2.774640E-6	NaN
639	1.000000	0.842661	7.3713e+06	-45139.1	1005.82	-29773.4	0.000000	0.000000	6.843063	-0.042127	NaN	0.000000	0.001753	0.001675	28.0834	0.071212	0.001970	36.1566	-139.437	-165.741	-0.038463	0.841362	-0.273782	-0.275080	-0.042127	36.1566	-0.272908	-1843.73	2.284898E-5	NaN
639	1.000000	0.852675	7.3713e+06	-45139.1	1005.82	-29773.4	0.000000	0.000000	6.853079	-4.793212E-5	NaN	0.000000	0.001779	0.001711	28.0822	0.073444	0.002035	36.0947	-172.229	12.7429	0.067696	0.851294	-0.263767	-0.265149	-4.793212E-5	36.0947	-0.263766	-1338.28	3.581630E-8	NaN
639	1.000000	0.862691	7.37131e+06	-45139.1	1005.82	-29773.4	0.000000	0.000000	6.863094	-0.023396	NaN	0.000000	0.001762	0.001685	28.082	0.110338	0.002075	53.1775	-59.3024	-162.578	-0.038375	0.861405	-0.253751	-0.255038	-0.023396	53.1775	-0.253421	-928.524	2.519653E-5	NaN
639	1.000000	0.872693	7.37131e+06	-45139.1	1005.82	-29773.4	0.000000	0.000000	6.873095	-0.047992	NaN	0.000000	0.001733	0.001699	28.0819	0.042539	0.001986	21.4205	72.7993	14.737	-0.102510	0.871345	-0.243749	-0.245098	-0.047992	21.4205	-0.242069	-619.202	7.750577E-5	NaN
639	1.000000	0.882696	7.37131e+06	-45139.1	1005.82	-29773.4	0.000000	0.000000	6.883098	-0.048062	NaN	0.000000	0.001745	0.001700	28.0821	0.058507	0.002009	29.1195	-5.408495	-163.386	-0.006614	0.881379	-0.233747	-0.235064	-0.048062	29.1195	-0.232509	-438.607	0.000110	NaN
639	1.000000	0.892719	7.37131e+06	-45139.1	1005.82	-29773.4	0.000000	0.000000	6.893121	-0.042043	NaN	0.000000	0.001683	0.001689	28.0821	0.017437	0.002007	8.687779	-173.424	15.407	-0.031455	0.891270	-0.223724	-0.225173	-0.042043	8.687779	-0.220094	-278.729	0.000151	NaN
639	1.000000	0.902723	7.37131e+06	-45139.1	1005.82	-29773.4	0.000000	0.000000	6.903128	0.037095	NaN	0.000000	0.001679	0.001670	28.0821	0.031892	0.001911	16.6871	-112.043	-163.44	0.121447	0.901379	-0.213720	-0.215064	0.037095	16.6871	-0.215387	-234.279	-0.000158	NaN
639	1.000000	0.912705	7.37131e+06	-45139.1	1005.82	-29773.4	0.000000	0.000000	6.913106	-0.065632	NaN	0.000000	0.001688	0.001713	28.0822	0.079365	0.001874	42.3542	76.3354	14.5103	-0.021578	0.911367	-0.203737	-0.205076	-0.065632	42.3542	-0.202575	-145.189	0.000452	NaN
639	1.000000	0.922732	7.37131e+06	-45139.1	1005.82	-29773.4	0.000000	0.000000	6.923136	-0.002663	NaN	0.000000	0.001672	0.001721	28.0824	0.029750	0.001995	14.9154	-36.7585	-163.938	-0.021473	0.921428	-0.193710	-0.195014	-0.002663	14.9154	-0.193576	-103.178	2.580926E-5	NaN
639	1.000000	0.932702	7.37131e+06	-45139.1	1005.82	-29773.4	0.000000	0.000000	6.933103	-0.059358	NaN	0.000000	0.001685	0.001690	28.0822	0.052536	0.002072	25.3587	4.544184	14.9323	-0.059072	0.931333	-0.183741	-0.185110	-0.059358	25.3587	-0.181985	-65.9449	0.000900	NaN
639	1.000000	0.942702	7.37131e+06	-45139.1	1005.82	-29773.4	0.000000	0.000000	6.943104	-0.028361	NaN	0.000000	0.001699	0.001667	28.0824	0.005603	0.002093	2.677353	-42.6233	-166.281	-0.097312	0.941453	-0.173741	-0.174989	-0.028361	2.677353	-0.165796	-34.6956	0.000817	NaN
639	1.000000	0.952725	7.37131e+06	-45139.1	1005.82	-29773.4	0.000000	0.000000	6.953131	0.052911	NaN	0.000000	0.001651	0.001723	28.0822	0.111314	0.002077	53.585	175.395	13.8095	-0.049944	0.951347	-0.163717	-0.165096	0.052911	53.585	-0.164458	-32.8686	-0.001610	NaN
639	1.000000	0.962746	7.37131e+06	-45139.1	1005.82	-29773.4	0.000000	0.000000	6.963147	-0.056349	NaN	0.000000	0.001717	0.001717	28.0826	0.080982	0.002024	40.0185	118.762	-167.193	-0.099517	0.961425	-0.153697	-0.155017	-0.056349	40.0185	-0.152641	-20.23	0.002785	NaN
639	1.000000	0.972754	7.37131e+06	-45139.1	1005.82	-29773.4	0.000000	0.000000	6.973159	0.031296	NaN	0.000000	0.001657	0.001682	28.0821	0.090707	0.002114	42.9062	-174.048	18.7059	0.010550	0.971392	-0.143688	-0.145050	0.031296	42.9062	-0.144235	-14.1908	-0.002205	NaN
639	1.000000	0.982724	7.37131e+06	-45139.1	1005.82	-29773.4	0.000000	0.000000	6.983124	-0.094570	NaN	0.000000	0.001662	0.001669	28.0823	0.038286	0.002052	18.661	36.1537	-167.378	-0.100610	0.981473	-0.133719	-0.134969	-0.094570	18.661	-0.129918	-7.593136	0.012455	NaN
639	1.000000	0.992746	7.37131e+06	-45139.1	1005.82	-29773.4	0.000000	0.000000	6.993146	-0.086138	NaN	0.000000	0.001648	0.001695	28.0834	0.065039	0.001952	33.3158	83.7639	17.8004	-0.048504	0.991387	-0.123697	-0.125055	-0.086138	33.3158	-0.121757	-5.241148	0.016435	NaN
639	1.000000	1.002706	7.37131e+06	-45139.1	1005.82	-29773.4	0.000000	0.000000	7.003110	-0.001952	NaN	0.000000	0.001636	0.001696	28.0836	0.069267	0.002094	33.0812	-151.297	-166.756	0.005271	1.001440	-0.113736	-0.115003	-0.001952	33.0812	-0.113692	-3.589769	0.000544	NaN
639	1.000000	1.012720	7.37131e+06	-45139.1	1005.82	-29773.4	0.000000	0.000000	7.013124	0.008511	NaN	0.000000	0.001630	0.001709	28.0833	0.113535	0.002010	56.4933	72.1036	12.7596	0.016146	1.011320	-0.103723	-0.105123	0.008511	56.4933	-0.103836	-2.217940	-0.003838	NaN
639	1.000000	1.022750	7.37131e+06	-45139.1	1005.82	-29773.4	0.000000	0.000000	7.023155	0.028169	NaN	0.000000	0.001637	0.001714	28.0831	0.114545	0.002014	56.8835	79.3365	-162.585	0.003707	1.021428	-0.093693	-0.095014	0.028169	56.8835	-0.094064	-1.342881	-0.020977	NaN
639	1.000000	1.032730	7.37131e+06	-45139.1	1005.82	-29773.4	0.000000	0.000000	7.033133	-0.018074	NaN	0.000000	0.001672	0.001689	28.0835	0.033016	0.001964	16.814	7.818850	16.3836	-0.066287	1.031374	-0.083713	-0.085068	-0.018074	16.814	-0.082906	-0.730577	0.024739	NaN
639	1.000000	1.042752	7.37131e+06	-45139.1	1005.82	-29773.4	0.000000	0.000000	7.043154	-0.044629	NaN	0.000000	0.001671	0.001702	28.0832	0.047898	0.001986	24.1162	77.2275	-166.618	-0.102550	1.041476	-0.073690	-0.074967	-0.044629	24.1162	-0.072302	-0.392706	0.113645	NaN
639	1.000000	1.052752	7.37131e+06	-45139.1	1005.82	-29773.4	0.000000	0.000000	7.053151	-0.100677	NaN	0.000000	0.001693	0.001702	28.0831	0.064490	0.002060	31.3106	1.877589	11.1524	0.015550	1.051385	-0.063691	-0.065057	-0.100677	31.3106	-0.061279	-0.195905	0.513909	NaN
639	1.000000	1.062758	7.37131e+06	-45139.1	1005.82	-29773.4	0.000000	0.000000	7.063160	-0.034892	NaN	0.000000	0.001664	0.001725	28.083	0.080509	0.001952	41.2428	-151.675	-166.559	-0.090001	1.061459	-0.053685	-0.054983	-0.034892	41.2428	-0.053050	-0.112697	0.309608	NaN
639	1.000000	1.072777	7.37131e+06	-45139.1	1005.82	-29773.4	0.000000	0.000000	7.073178	-0.076565	NaN	0.000000	0.001662	0.001702	28.0834	0.085582	0.001959	43.6967	-142.993	14.5742	-0.060829	1.071410	-0.043666	-0.045032	-0.076565	43.6967	-0.042352	-0.053335	1.435562	NaN
639	1.000000	1.082789	7.37131e+06	-45139.1	1005.82	-29773.4	0.000000	0.000000	7.083191	-0.053395	NaN	0.000000	0.001685	0.001708	28.0832	0.082148	0.001987	41.3345	-59.8181	-163.011	-0.050829	1.081469	-0.033654	-0.034974	-0.053395	41.3345	-0.032685	-0.027418	1.947436	NaN
639	1.000000	1.092758	7.37131e+06	-45139.1	1005.82	-29773.4	0.000000	0.000000	7.093161	-0.013661	NaN	0.000000	0.001672	0.001675	28.0831	0.093488	0.001943	48.117	13.7091	13.6426	-0.094689	1.091452	-0.023685	-0.024990	-0.013661	48.117	-0.023472	-0.015400	0.887086	NaN
639	1.000000	1.102748	7.37131e+06	-45139.1	1005.82	-29773.4	0.000000	0.000000	7.103149	-0.066376	NaN	0.000000	0.001651	0.001696	28.0833	0.078800	0.001950	40.4203	65.646	-164.609	-0.066775	1.101475	-0.013694	-0.014968	-0.066376	40.4203	-0.012463	-0.007793	8.516866	NaN
639	1.000000	1.112788	7.37131e+06	-45139.1	1005.82	-29773.4	0.000000	0.000000	7.113207	0.365660	NaN	0.000000	0.001629	0.001712	28.0832	0.824006	0.001939	424.899	8.691064	13.5645	0.020606	1.111390	-0.003654	-0.005052	0.365660	424.899	-0.004300	-0.002972	-123.029	NaN
639	2.000000	1.121275	7.37131e+06	-45139.1	1005.82	-29773.4	0.000000	0.000000	7.122137	11.1434	NaN	0.000000	0.001653	0.001699	28.0819	10.235	0.001610	6358.38	5.137661	-170.524	9.711780	1.120853	0.004833	0.004410	11.1434	6358.38	0.003518	0.002821	3950.47	109379
639	2.000000	1.123866	7.37131e+06	-45139.1	1005.82	-29773.4	0.000000	0.000000	7.124961	16.8049	NaN	0.000000	0.001643	0.001716	28.0819	13.4503	0.001503	8951.19	9.281275	2.659736	15.8519	1.123447	0.007423	0.007005	16.8049	8951.19	0.006015	0.005079	3308.53	114750
639	2.000000	1.126312	7.37131e+06	-45139.1	1005.82	-29773.4	0.000000	0.000000	7.127632	22.2838	NaN	0.000000	0.001657	0.001732	28.0823	16.4296	0.001763	9317.96	6.414515	-173.672	22.3499	1.125955	0.009870	0.009512	22.2838	9317.96	0.008076	0.007121	3129.52	100888
639	2.000000	1.128738	7.37131e+06	-45139.1	1005.82	-29773.4	0.000000	0.000000	7.130292	27.9717	NaN	0.000000	0.001630	0.001702	28.0821	19.1682	0.001840	10419	7.784820	3.776992	27.1518	1.128363	0.012296	0.011920	27.9717	10419	0.010282	0.009497	2945.36	97680.9
639	2.000000	1.131212	7.37131e+06	-45139.1	1005.82	-29773.4	0.000000	0.000000	7.132942	32.2581	NaN	0.000000	0.001670	0.001708	28.0821	22.2293	0.001716	12955	3.312235	-175.921	31.31	1.130985	0.014770	0.014543	32.2581	12955	0.012902	0.012589	2562.45	105492
639	2.000000	1.133737	7.37131e+06	-45139.1	1005.82	-29773.4	0.000000	0.000000	7.135793	40.2061	NaN	0.000000	0.001650	0.001678	28.0821	23.8663	0.001714	13920.6	1.819091	5.688698	37.1895	1.133365	0.017294	0.016923	40.2061	13920.6	0.015128	0.015456	2601.24	102300
639	2.000000	1.136273	7.37131e+06	-45139.1	1005.82	-29773.4	0.000000	0.000000	7.138506	44.5043	NaN	0.000000	0.001709	0.001689	28.0824	26.7686	0.001751	15286	3.978616	-176.155	45.933	1.135912	0.019830	0.019470	44.5043	15286	0.017647	0.018978	2345.02	101377
639	2.000000	1.138727	7.37131e+06	-45139.1	1005.82	-29773.4	0.000000	0.000000	7.141257	51.7141	NaN	0.000000	0.001679	0.001717	28.0818	29.1482	0.001683	17317	3.951398	1.775649	50.0626	1.138360	0.022285	0.021918	51.7141	17317	0.020045	0.022613	2286.93	105212
639	2.000000	1.141245	7.37131e+06	-45139.1	1005.82	-29773.4	0.000000	0.000000	7.144064	58.7524	NaN	0.000000	0.001689	0.001729	28.0818	32.4524	0.001792	18112.8	4.604659	-179.24	59.5074	1.140947	0.024802	0.024504	58.7524	18112.8	0.022370	0.026403	2225.19	101843
639	2.000000	1.143740	7.37131e+06	-45139.1	1005.82	-29773.4	0.000000	0.000000	7.147000	69.4911	NaN	0.000000	0.001686	0.001740	28.0822	34.2188	0.001885	18150.3	3.633181	2.925998	70.1427	1.143360	0.027297	0.026917	69.4911	18150.3	0.024426	0.029979	2317.96	95773.8
639	2.000000	1.146127	7.37131e+06	-45139.1	1005.82	-29773.4	0.000000	0.000000	7.149659	76.1032	NaN	0.000000	0.001685	0.001746	28.0824	36.7676	0.001800	20429.8	6.949670	177.431	73.1952	1.145890	0.029684	0.029448	76.1032	20429.8	0.026890	0.034545	2203.04	100426
639	2.000000	1.148677	7.37131e+06	-45139.1	1005.82	-29773.4	0.000000	0.000000	7.152757	89.421	NaN	0.000000	0.001664	0.001715	28.0819	38.7134	0.001730	22381.4	6.982070	-3.722498	87.0426	1.148348	0.032235	0.031905	89.421	22381.4	0.029238	0.039180	2282.3	103307
639	2.000000	1.151204	7.37131e+06	-45139.1	1005.82	-29773.4	0.000000	0.000000	7.155540	95.6438	NaN	0.000000	0.001656	0.001711	28.0819	41.63	0.001811	22989.4	5.361462	177.597	94.8574	1.150872	0.034762	0.034430	95.6438	22989.4	0.031642	0.044215	2163.15	99888.6
639	2.000000	1.153690	7.37131e+06	-45139.1	1005.82	-29773.4	0.000000	0.000000	7.158460	106.225	NaN	0.000000	0.001641	0.001712	28.0821	42.6513	0.001804	23645.1	2.013328	1.852628	103.426	1.153408	0.037247	0.036965	106.225	23645.1	0.033878	0.049166	2160.57	97428
639	2.000000	1.156147	7.37131e+06	-45139.1	1005.82	-29773.4	0.000000	0.000000	7.161524	120.973	NaN	0.000000	0.001656	0.001671	28.0834	45.558	0.001710	26636.4	5.306336	177.151	117.936	1.155832	0.039705	0.039389	120.973	26636.4	0.036298	0.054812	2207.03	103946
639	2.000000	1.158722	7.37131e+06	-45139.1	1005.82	-29773.4	0.000000	0.000000	7.164390	128.069	NaN	0.000000	0.001706	0.001662	28.0834	49.0005	0.001821	26914.5	6.384640	-3.450086	128.991	1.158296	0.042279	0.041854	128.069	26914.5	0.038711	0.060739	2108.54	99776.2
639	2.000000	1.161269	7.37131e+06	-45139.1	1005.82	-29773.4	0.000000	0.000000	7.167314	137.227	NaN	0.000000	0.001651	0.001715	28.0831	52.1733	0.001903	27423	9.023829	174.086	140.444	1.160871	0.044826	0.044428	137.227	27423	0.041073	0.066832	2053.32	96916.6
639	2.000000	1.163697	7.37131e+06	-45139.1	1005.82	-29773.4	0.000000	0.000000	7.170151	147.204	NaN	0.000000	0.001650	0.001642	28.0833	52.9567	0.001828	28970.8	2.331707	-0.964294	145.119	1.163417	0.047254	0.046975	147.204	28970.8	0.043443	0.073229	2010.17	97811.7
639	2.000000	1.166211	7.37131e+06	-45139.1	1005.82	-29773.4	0.000000	0.000000	7.173334	163.454	NaN	0.000000	0.001676	0.001705	28.0833	55.7799	0.001796	31065.8	6.284487	174.375	162.591	1.165855	0.049768	0.049413	163.454	31065.8	0.045822	0.079938	2044.75	100387
639	2.000000	1.168635	7.37131e+06	-45139.1	1005.82	-29773.4	0.000000	0.000000	7.176268	175.871	NaN	0.000000	0.001658	0.001753	28.0832	57.4428	0.001795	32010.5	2.906328	-1.824396	172.494	1.168323	0.052192	0.051881	175.871	32010.5	0.048072	0.086546	2032.1	99412.6
639	2.000000	1.171175	7.37131e+06	-45139.1	1005.82	-29773.4	0.000000	0.000000	7.179245	186.485	NaN	0.000000	0.001667	0.001720	28.0831	60.0587	0.001871	32100.4	4.168269	175.841	184.22	1.170912	0.054733	0.054470	186.485	32100.4	0.050376	0.093578	1992.83	95873.1
639	2.000000	1.173724	7.37131e+06	-45139.1	1005.82	-29773.4	0.000000	0.000000	7.182223	196.927	NaN	0.000000	0.001661	0.001722	28.0833	61.4947	0.001759	34951.5	3.872635	-4.448086	197.215	1.173438	0.057282	0.056996	196.927	34951.5	0.053056	0.102093	1928.9	99940.3
639	2.000000	1.176223	7.37131e+06	-45139.1	1005.82	-29773.4	0.000000	0.000000	7.185336	211.865	NaN	0.000000	0.001582	0.001686	28.0832	63.3624	0.001713	36988.6	5.689021	173.323	214.133	1.175782	0.059780	0.059339	211.865	36988.6	0.055484	0.110116	1924.02	101839
639	2.000000	1.178651	7.37131e+06	-45139.1	1005.82	-29773.4	0.000000	0.000000	7.188413	227.662	NaN	0.000000	0.001639	0.001683	28.0833	66.0966	0.001851	35701.9	5.555206	-6.094145	226.326	1.178343	0.062209	0.061901	227.662	35701.9	0.057426	0.116741	1950.15	95467
639	2.000000	1.181088	7.37131e+06	-45139.1	1005.82	-29773.4	0.000000	0.000000	7.191506	243.614	NaN	0.000000	0.001626	0.001691	28.0831	68.2729	0.001768	38608.9	4.568886	174.406	239.266	1.180816	0.064645	0.064374	243.614	38608.9	0.059913	0.125496	1941.2	99573.9
639	2.000000	1.183618	7.37131e+06	-45139.1	1005.82	-29773.4	0.000000	0.000000	7.194836	263.092	NaN	0.000000	0.001617	0.001697	28.0834	69.6037	0.001757	39608.9	6.048349	-7.435878	257.767	1.183211	0.067175	0.066768	263.092	39608.9	0.062194	0.133791	1966.43	98935.5
639	2.000000	1.186088	7.37131e+06	-45139.1	1005.82	-29773.4	0.000000	0.000000	7.198009	280.179	NaN	0.000000	0.001632	0.001689	28.0832	72.1125	0.001768	40785.6	4.986708	173.552	276.233	1.185779	0.069645	0.069337	280.179	40785.6	0.064493	0.142411	1967.4	98743.5
639	2.000000	1.188552	7.37131e+06	-45139.1	1005.82	-29773.4	0.000000	0.000000	7.201136	296.307	NaN	0.000000	0.001620	0.001688	28.0828	74.9702	0.001887	39740.1	4.423531	-5.576387	288.912	1.188249	0.072110	0.071806	296.307	39740.1	0.066518	0.150212	1972.6	93680.8
639	2.000000	1.191109	7.37131e+06	-45139.1	1005.82	-29773.4	0.000000	0.000000	7.204255	309.978	NaN	0.000000	0.001624	0.001711	28.0819	77.0821	0.001730	44548	4.283104	172.673	306.087	1.190857	0.074667	0.074414	309.978	44548	0.069448	0.161850	1915.22	101168
639	2.000000	1.193657	7.37131e+06	-45139.1	1005.82	-29773.4	0.000000	0.000000	7.207530	327.659	NaN	0.000000	0.001630	0.001685	28.0821	79.491	0.001875	42395.7	4.339378	-5.872218	325.771	1.193392	0.077215	0.076950	327.659	42395.7	0.071418	0.169906	1928.47	93970.4
639	2.000000	1.196148	7.37131e+06	-45139.1	1005.82	-29773.4	0.000000	0.000000	7.210868	348.259	NaN	0.000000	0.001606	0.001696	28.0819	81.8842	0.001762	46470.9	4.684694	172.988	345.559	1.195763	0.079706	0.079320	348.259	46470.9	0.074085	0.181101	1923.01	99768.7
639	2.000000	1.198513	7.37131e+06	-45139.1	1005.82	-29773.4	0.000000	0.000000	7.214111	369.636	NaN	0.000000	0.001643	0.001657	28.0819	83.6219	0.001865	44842.4	2.321941	-3.923315	360.262	1.198152	0.082071	0.081710	369.636	44842.4	0.075888	0.188863	1957.17	94273.3
639	2.000000	1.201115	7.37131e+06	-45139.1	1005.82	-29773.4	0.000000	0.000000	7.217211	381.731	NaN	0.000000	0.001630	0.001700	28.0821	87.9959	0.001996	44096.9	6.358666	171.587	377.963	1.200885	0.084673	0.084443	381.731	44096.9	0.078181	0.198948	1918.75	90325.8
639	2.000000	1.203615	7.37131e+06	-45139.1	1005.82	-29773.4	0.000000	0.000000	7.220853	409.511	NaN	0.000000	0.001625	0.001703	28.0823	87.2193	0.001747	49927.1	5.731136	-8.144002	405.235	1.203213	0.087173	0.086770	409.511	49927.1	0.081021	0.211788	1933.59	99119.4
639	2.000000	1.206167	7.37131e+06	-45139.1	1005.82	-29773.4	0.000000	0.000000	7.223970	423.258	NaN	0.000000	0.001676	0.001693	28.0823	90.199	0.001887	47798.9	3.986629	173.264	423.599	1.205932	0.089725	0.089490	423.258	47798.9	0.083084	0.221345	1912.22	92823.2
639	2.000000	1.208626	7.37131e+06	-45139.1	1005.82	-29773.4	0.000000	0.000000	7.227360	445.911	NaN	0.000000	0.001680	0.001688	28.0819	92.7612	0.001763	52604.1	4.821331	-7.782235	442.947	1.208270	0.092184	0.091827	445.911	52604.1	0.085826	0.234358	1902.7	99278.1
639	2.000000	1.211163	7.37131e+06	-45139.1	1005.82	-29773.4	0.000000	0.000000	7.230676	464.867	NaN	0.000000	0.001686	0.001697	28.0825	96.1604	0.001834	52429.5	3.607113	173.186	466.43	1.210893	0.094720	0.094450	464.867	52429.5	0.088070	0.245266	1895.36	96723.2
639	2.000000	1.213572	7.37131e+06	-45139.1	1005.82	-29773.4	0.000000	0.000000	7.233720	480.301	NaN	0.000000	0.001672	0.001690	28.0814	97.246	0.001880	51722.9	1.590875	-4.660513	473.99	1.213282	0.097130	0.096840	480.301	51722.9	0.090165	0.255656	1878.7	93460.6
639	2.000000	1.216143	7.37131e+06	-45139.1	1005.82	-29773.4	0.000000	0.000000	7.237305	504.965	NaN	0.000000	0.001665	0.001697	28.0821	99.5014	0.001784	55771.8	6.565269	169.095	506.229	1.215834	0.099701	0.099391	504.965	55771.8	0.092910	0.269576	1873.18	98140.2
639	2.000000	1.218564	7.37131e+06	-45139.1	1005.82	-29773.4	0.000000	0.000000	7.240325	519.547	NaN	0.000000	0.001689	0.001707	28.0818	102.571	0.001889	54303.5	1.762553	-6.189868	513.735	1.218209	0.102122	0.101767	519.547	54303.5	0.094946	0.280121	1854.72	93740.6
639	2.000000	1.219029	7.37131e+06	-45139.1	1005.82	-29773.4	0.000000	0.000000	7.241122	527.654	NaN	0.000000	0.001692	0.001716	28.0818	102.607	0.001903	53932	0.493521	175.847	522.455	1.218726	0.102586	0.102283	527.654	53932	0.095248	0.281704	1873.08	92837.5