File: remote_trans/data/nanoindenter/0828-1/data/Data_2025-08-06,11h17m57s/2025-07-22_16-23-58_1_1144.txt
2025-07-22, 16:23:58, 1
Index	Phase	Displacement	Time	Pos X	Pos Y	Pos Z	Rot A	Rot B	Piezo Z	Force A	Force B	Gripper	Voltage A	Voltage B	Temperature	Amplitude force	Amplitude pos	Stiffness	Phase shift	Phase excitation	Force A raw	Displacement raw	HMax	HMax raw	Real Force	Real Stiffness	Contact Depth	Area	Hardness	Reduced Mod.
[#]	[#]	[um]	[s]	[um]	[um]	[um]	[m°]	[m°]	[um]	[uN]	[uN]	[V]	[V]	[V]	[°C]	[uN]	[um]	[N/m]	[°]	[°]	[uN]	[um]	[um]	[um]	[uN]	[N/m]	[um]	[um^2]	[MPa]	[MPa]
1144	1.000000	0.002563	7.37625e+06	-57339.1	1055.82	-29737.1	0.000000	0.000000	6.002775	-0.061151	NaN	0.000000	0.001616	0.001681	28.0819	0.034132	0.001044	32.7048	175.465	-165.504	-0.007499	0.001298	-1.002297	-1.003561	-0.061151	32.7048	-1.000894	-2.332443E+13	2.621768E-15	NaN
1144	1.000000	0.010566	7.37625e+06	-57339.1	1055.82	-29737.1	0.000000	0.000000	6.010778	-0.044766	NaN	0.000000	0.001598	0.001650	28.0814	0.044973	0.000844	53.2714	-96.8437	-161.422	-0.046415	0.009243	-0.994294	-0.995616	-0.044766	53.2714	-0.993664	-1.864035E+13	2.401570E-15	NaN
1144	1.000000	0.018520	7.37625e+06	-57339.1	1055.82	-29737.1	0.000000	0.000000	6.018733	-0.024595	NaN	0.000000	0.001593	0.001680	28.0812	0.058003	0.001739	33.3546	10.749	-162.37	-0.027561	0.017239	-0.986340	-0.987620	-0.024595	33.3546	-0.985787	-1.460049E+13	1.684548E-15	NaN
1144	1.000000	0.026597	7.37625e+06	-57339.1	1055.82	-29737.1	0.000000	0.000000	6.026811	-0.020738	NaN	0.000000	0.001584	0.001653	28.0813	0.136381	0.001785	76.4205	112.24	-164.803	-0.068066	0.025199	-0.978263	-0.979661	-0.020738	76.4205	-0.978059	-1.148843E+13	1.805116E-15	NaN
1144	1.000000	0.034508	7.37625e+06	-57339.1	1055.82	-29737.1	0.000000	0.000000	6.034723	0.007573	NaN	0.000000	0.001553	0.001664	28.0811	0.041248	0.001976	20.8738	54.9831	-169.083	0.010857	0.033217	-0.970351	-0.971643	0.007573	20.8738	-0.970624	-9.121504E+12	-8.302019E-16	NaN
1144	1.000000	0.042533	7.37625e+06	-57339.1	1055.82	-29737.1	0.000000	0.000000	6.042748	0.008593	NaN	0.000000	0.001573	0.001651	28.0817	0.020724	0.001974	10.4986	176.503	-166.383	-0.045866	0.041234	-0.962326	-0.963626	0.008593	10.4986	-0.962940	-7.186308E+12	-1.195771E-15	NaN
1144	1.000000	0.050534	7.37625e+06	-57339.1	1055.82	-29737.1	0.000000	0.000000	6.050747	-0.051631	NaN	0.000000	0.001585	0.001665	28.0812	0.053262	0.002022	26.3412	-114.076	-171.765	0.067784	0.049275	-0.954325	-0.955585	-0.051631	26.3412	-0.952855	-5.254535E+12	9.826017E-15	NaN
1144	1.000000	0.058527	7.37625e+06	-57339.1	1055.82	-29737.1	0.000000	0.000000	6.058738	-0.078322	NaN	0.000000	0.001608	0.001675	28.0814	0.051257	0.001983	25.8526	164.127	-167.889	-0.028885	0.057272	-0.946333	-0.947588	-0.078322	25.8526	-0.944060	-3.998668E+12	1.958699E-14	NaN
1144	1.000000	0.066536	7.37625e+06	-57339.1	1055.82	-29737.1	0.000000	0.000000	6.066750	0.002944	NaN	0.000000	0.001561	0.001727	28.0819	0.026304	0.001895	13.8836	78.0016	-165.956	0.007447	0.065188	-0.938324	-0.939671	0.002944	13.8836	-0.938483	-3.362533E+12	-8.756148E-16	NaN
1144	1.000000	0.074567	7.37625e+06	-57339.1	1055.82	-29737.1	0.000000	0.000000	6.074779	-0.052771	NaN	0.000000	0.001587	0.001700	28.0827	0.019503	0.002077	9.392178	10.5917	-163.101	0.007294	0.073255	-0.930293	-0.931604	-0.052771	9.392178	-0.926079	-2.287030E+12	2.307388E-14	NaN
1144	1.000000	0.082542	7.37625e+06	-57339.1	1055.82	-29737.1	0.000000	0.000000	6.082753	-0.076764	NaN	0.000000	0.001586	0.001720	28.0828	0.070897	0.002072	34.2183	62.4346	-168.23	-0.009325	0.081251	-0.922318	-0.923609	-0.076764	34.2183	-0.920635	-1.931001E+12	3.975349E-14	NaN
1144	1.000000	0.090559	7.37625e+06	-57339.1	1055.82	-29737.1	0.000000	0.000000	6.090776	0.055067	NaN	0.000000	0.001544	0.001718	28.0825	0.115620	0.002004	57.7004	147.743	-164.609	0.016779	0.089280	-0.914300	-0.915580	0.055067	57.7004	-0.915016	-1.621465E+12	-3.396144E-14	NaN
1144	1.000000	0.098534	7.37625e+06	-57339.1	1055.82	-29737.1	0.000000	0.000000	6.098751	0.048703	NaN	0.000000	0.001570	0.001713	28.0827	0.072842	0.001993	36.5419	159.201	-168.235	-0.009132	0.097209	-0.906325	-0.907651	0.048703	36.5419	-0.907325	-1.276530E+12	-3.815235E-14	NaN
1144	1.000000	0.106538	7.37625e+06	-57339.1	1055.82	-29737.1	0.000000	0.000000	6.106752	-0.007973	NaN	0.000000	0.001592	0.001693	28.0827	0.026187	0.002063	12.6929	-136.082	-168.19	-0.035661	0.105266	-0.898322	-0.899594	-0.007973	12.6929	-0.897851	-9.506556E+11	8.387204E-15	NaN
1144	1.000000	0.114558	7.37625e+06	-57339.1	1055.82	-29737.1	0.000000	0.000000	6.114770	-0.057810	NaN	0.000000	0.001630	0.001676	28.0828	0.040174	0.001952	20.5808	-100.915	-168.288	-0.019544	0.113241	-0.890302	-0.891618	-0.057810	20.5808	-0.888195	-7.039055E+11	8.212801E-14	NaN
1144	1.000000	0.122574	7.37625e+06	-57339.1	1055.82	-29737.1	0.000000	0.000000	6.122788	-0.021684	NaN	0.000000	0.001656	0.001680	28.0825	0.044373	0.002002	22.1692	-142.229	-167.544	-0.046324	0.121201	-0.882286	-0.883658	-0.021684	22.1692	-0.881552	-5.723950E+11	3.788286E-14	NaN
1144	1.000000	0.130610	7.37625e+06	-57339.1	1055.82	-29737.1	0.000000	0.000000	6.130826	0.035816	NaN	0.000000	0.001667	0.001656	28.0827	0.075795	0.001974	38.4035	120.331	-169.291	0.010584	0.129267	-0.874250	-0.875592	0.035816	38.4035	-0.874949	-4.660088E+11	-7.685671E-14	NaN
1144	1.000000	0.138577	7.37625e+06	-57339.1	1055.82	-29737.1	0.000000	0.000000	6.138791	0.000244	NaN	0.000000	0.001658	0.001686	28.0829	0.120169	0.002112	56.8902	173.575	-172.913	-0.025143	0.137238	-0.866283	-0.867622	0.000244	56.8902	-0.866286	-3.557906E+11	-6.861418E-16	NaN
1144	1.000000	0.146563	7.37625e+06	-57339.1	1055.82	-29737.1	0.000000	0.000000	6.146775	-0.042275	NaN	0.000000	0.001676	0.001693	28.0829	0.080806	0.002063	39.1788	-148.905	-167.275	-0.016420	0.145259	-0.858297	-0.859600	-0.042275	39.1788	-0.857488	-2.704666E+11	1.563027E-13	NaN
1144	1.000000	0.154588	7.37625e+06	-57339.1	1055.82	-29737.1	0.000000	0.000000	6.154804	0.038335	NaN	0.000000	0.001696	0.001680	28.0831	0.037833	0.002104	17.9775	136.924	-164.648	0.066265	0.153272	-0.850272	-0.851588	0.038335	17.9775	-0.851871	-2.270258E+11	-1.688558E-13	NaN
1144	1.000000	0.162588	7.37625e+06	-57339.1	1055.82	-29737.1	0.000000	0.000000	6.162803	0.031072	NaN	0.000000	0.001649	0.001689	28.0829	0.051329	0.001873	27.4112	-58.2433	-166.247	0.021480	0.161218	-0.842272	-0.843642	0.031072	27.4112	-0.843122	-1.728168E+11	-1.797945E-13	NaN
1144	1.000000	0.170614	7.37625e+06	-57339.1	1055.82	-29737.1	0.000000	0.000000	6.170829	0.022849	NaN	0.000000	0.001640	0.001697	28.0831	0.144453	0.001898	76.0959	136.118	-168.031	-0.030818	0.169214	-0.834246	-0.835645	0.022849	76.0959	-0.834471	-1.319402E+11	-1.731769E-13	NaN
1144	1.000000	0.178563	7.37625e+06	-57339.1	1055.82	-29737.1	0.000000	0.000000	6.178779	0.056735	NaN	0.000000	0.001662	0.001724	28.0829	0.079201	0.002100	37.7099	59.1036	-166.991	0.008822	0.177313	-0.826297	-0.827546	0.056735	37.7099	-0.827426	-1.058981E+11	-5.357497E-13	NaN
1144	1.000000	0.186544	7.37625e+06	-57339.1	1055.82	-29737.1	0.000000	0.000000	6.186758	-0.004609	NaN	0.000000	0.001667	0.001657	28.0827	0.097760	0.002076	47.0992	-167.151	-164.151	-0.001780	0.185288	-0.818315	-0.819572	-0.004609	47.0992	-0.818242	-7.950075E+10	5.797790E-14	NaN
1144	1.000000	0.194570	7.37625e+06	-57339.1	1055.82	-29737.1	0.000000	0.000000	6.194783	-0.022631	NaN	0.000000	0.001656	0.001701	28.0828	0.020551	0.001996	10.295	108.632	-169.115	-0.026812	0.193281	-0.810290	-0.811579	-0.022631	10.295	-0.808641	-5.890223E+10	3.842209E-13	NaN
1144	1.000000	0.202585	7.37625e+06	-57339.1	1055.82	-29737.1	0.000000	0.000000	6.202799	0.011447	NaN	0.000000	0.001653	0.001680	28.0825	0.017807	0.001961	9.079969	118.846	-165.284	0.009229	0.201323	-0.802275	-0.803537	0.011447	9.079969	-0.803221	-4.972516E+10	-2.302107E-13	NaN
1144	1.000000	0.210584	7.37625e+06	-57339.1	1055.82	-29737.1	0.000000	0.000000	6.210798	0.006718	NaN	0.000000	0.001638	0.001691	28.0819	0.067311	0.002070	32.5184	-129.877	-166.533	-0.036159	0.209305	-0.794276	-0.795555	0.006718	32.5184	-0.794431	-3.777923E+10	-1.778238E-13	NaN
1144	1.000000	0.218592	7.37625e+06	-57339.1	1055.82	-29737.1	0.000000	0.000000	6.218805	-0.018621	NaN	0.000000	0.001606	0.001669	28.0815	0.042214	0.002043	20.6621	-113.262	-166.655	0.009239	0.217246	-0.786268	-0.787614	-0.018621	20.6621	-0.785592	-2.865571E+10	6.498269E-13	NaN
1144	1.000000	0.226591	7.37625e+06	-57339.1	1055.82	-29737.1	0.000000	0.000000	6.226805	-0.021683	NaN	0.000000	0.001601	0.001690	28.0817	0.061688	0.001914	32.2233	-6.354343	-169.119	-0.048752	0.225294	-0.778268	-0.779566	-0.021683	32.2233	-0.777764	-2.243068E+10	9.666535E-13	NaN
1144	1.000000	0.234594	7.37625e+06	-57339.1	1055.82	-29737.1	0.000000	0.000000	6.234808	-0.003351	NaN	0.000000	0.001608	0.001663	28.0818	0.127156	0.002061	61.6858	-162.588	-166.744	-0.078543	0.233310	-0.770266	-0.771550	-0.003351	61.6858	-0.770225	-1.771599E+10	1.891736E-13	NaN
1144	1.000000	0.242621	7.37625e+06	-57339.1	1055.82	-29737.1	0.000000	0.000000	6.242834	-0.037404	NaN	0.000000	0.001602	0.001679	28.0815	0.058435	0.002121	27.5569	-147.179	-164.247	0.078685	0.241294	-0.762239	-0.763566	-0.037404	27.5569	-0.761221	-1.336310E+10	2.799077E-12	NaN
1144	1.000000	0.250616	7.37625e+06	-57339.1	1055.82	-29737.1	0.000000	0.000000	6.250830	-0.022068	NaN	0.000000	0.001621	0.001703	28.0816	0.060848	0.002060	29.5421	-67.8893	-167.54	0.025111	0.249330	-0.754243	-0.755530	-0.022068	29.5421	-0.753683	-1.055236E+10	2.091319E-12	NaN
1144	1.000000	0.258637	7.37625e+06	-57339.1	1055.82	-29737.1	0.000000	0.000000	6.258852	0.024477	NaN	0.000000	0.001571	0.001703	28.0814	0.010762	0.002072	5.195062	117.562	-167.661	0.007963	0.257324	-0.746223	-0.747536	0.024477	5.195062	-0.749757	-9.330610E+9	-2.623321E-12	NaN
1144	1.000000	0.266615	7.37625e+06	-57339.1	1055.82	-29737.1	0.000000	0.000000	6.266827	-0.042042	NaN	0.000000	0.001578	0.001672	28.0817	0.047109	0.001995	23.6187	121.636	-165.995	0.056842	0.265285	-0.738245	-0.739574	-0.042042	23.6187	-0.736910	-6.236856E+9	6.740849E-12	NaN
1144	1.000000	0.274601	7.37625e+06	-57339.1	1055.82	-29737.1	0.000000	0.000000	6.274815	-0.011903	NaN	0.000000	0.001558	0.001662	28.0816	0.121259	0.001894	64.0151	112.362	-165.18	0.060595	0.273317	-0.730258	-0.731542	-0.011903	64.0151	-0.730119	-5.039997E+9	2.361798E-12	NaN
1144	1.000000	0.282621	7.37625e+06	-57339.1	1055.82	-29737.1	0.000000	0.000000	6.282837	0.030400	NaN	0.000000	0.001571	0.001681	28.0816	0.051646	0.002012	25.6739	-149.319	-164.728	0.027228	0.281281	-0.722239	-0.723578	0.030400	25.6739	-0.723127	-4.046794E+9	-7.512023E-12	NaN
1144	1.000000	0.290656	7.37625e+06	-57339.1	1055.82	-29737.1	0.000000	0.000000	6.290871	0.012307	NaN	0.000000	0.001574	0.001673	28.0816	0.156997	0.001936	81.0934	123.139	-168.755	0.021817	0.289345	-0.714203	-0.715515	0.012307	81.0934	-0.714317	-3.068725E+9	-4.010460E-12	NaN
1144	1.000000	0.298638	7.37625e+06	-57339.1	1055.82	-29737.1	0.000000	0.000000	6.298853	0.008416	NaN	0.000000	0.001583	0.001668	28.0819	0.068476	0.001958	34.9641	-14.517	-166.752	-0.001413	0.297322	-0.706221	-0.707538	0.008416	34.9641	-0.706402	-2.392972E+9	-3.517155E-12	NaN
1144	1.000000	0.306656	7.37625e+06	-57339.1	1055.82	-29737.1	0.000000	0.000000	6.306870	0.009465	NaN	0.000000	0.001599	0.001676	28.082	0.063128	0.002058	30.6814	-53.0148	-163.283	0.018172	0.305339	-0.698204	-0.699520	0.009465	30.6814	-0.698435	-1.862792E+9	-5.081131E-12	NaN
1144	1.000000	0.314637	7.37625e+06	-57339.1	1055.82	-29737.1	0.000000	0.000000	6.314851	-0.011652	NaN	0.000000	0.001575	0.001663	28.0831	0.105719	0.002111	50.0708	-176.941	-166.218	-0.007969	0.313349	-0.690223	-0.691511	-0.011652	50.0708	-0.690048	-1.430796E+9	8.143399E-12	NaN
1144	1.000000	0.322636	7.37625e+06	-57339.1	1055.82	-29737.1	0.000000	0.000000	6.322847	-0.086752	NaN	0.000000	0.001620	0.001651	28.082	0.118886	0.001910	62.256	101.166	-166.563	0.008566	0.321331	-0.682224	-0.683529	-0.086752	62.256	-0.681178	-1.082236E+9	8.016018E-11	NaN
1144	1.000000	0.330677	7.37625e+06	-57339.1	1055.82	-29737.1	0.000000	0.000000	6.330890	-0.018443	NaN	0.000000	0.001622	0.001661	28.0819	0.012881	0.001958	6.578566	-159.973	-164.294	-0.047561	0.329348	-0.674183	-0.675512	-0.018443	6.578566	-0.672080	-8.125708E+8	2.269685E-11	NaN
1144	1.000000	0.338656	7.37625e+06	-57339.1	1055.82	-29737.1	0.000000	0.000000	6.338868	-0.057036	NaN	0.000000	0.001577	0.001651	28.082	0.049956	0.002102	23.7661	-11.2782	-164.509	-0.080928	0.337352	-0.666204	-0.667508	-0.057036	23.7661	-0.664404	-6.379481E+8	8.940614E-11	NaN
1144	1.000000	0.346662	7.37625e+06	-57339.1	1055.82	-29737.1	0.000000	0.000000	6.346874	-0.050935	NaN	0.000000	0.001623	0.001604	28.0831	0.070840	0.002007	35.297	151.846	-169.373	-0.143254	0.345329	-0.658198	-0.659531	-0.050935	35.297	-0.657116	-5.069434E+8	1.004747E-10	NaN
1144	1.000000	0.354645	7.37625e+06	-57339.1	1055.82	-29737.1	0.000000	0.000000	6.354858	-0.030501	NaN	0.000000	0.001587	0.001638	28.0832	0.087190	0.001866	46.7156	48.4521	-168.289	-0.055303	0.353354	-0.650215	-0.651506	-0.030501	46.7156	-0.649725	-4.014829E+8	7.596968E-11	NaN
1144	1.000000	0.362654	7.37625e+06	-57339.1	1055.82	-29737.1	0.000000	0.000000	6.362867	-0.039181	NaN	0.000000	0.001624	0.001662	28.0831	0.039141	0.002088	18.7471	-43.1869	-165.321	-0.018711	0.361339	-0.642205	-0.643520	-0.039181	18.7471	-0.640638	-3.013284E+8	1.300279E-10	NaN
1144	1.000000	0.370682	7.37625e+06	-57339.1	1055.82	-29737.1	0.000000	0.000000	6.370896	0.000144	NaN	0.000000	0.001628	0.001664	28.083	0.074244	0.001967	37.746	131.062	-166.536	-0.040083	0.369361	-0.634178	-0.635498	0.000144	37.746	-0.634181	-2.457121E+8	-5.848355E-13	NaN
1144	1.000000	0.378700	7.37625e+06	-57339.1	1055.82	-29737.1	0.000000	0.000000	6.378914	0.014134	NaN	0.000000	0.001603	0.001672	28.0829	0.045489	0.001893	24.0327	95.3836	-163.946	-0.001674	0.377292	-0.626160	-0.627568	0.014134	24.0327	-0.626601	-1.933493E+8	-7.310040E-11	NaN
1144	1.000000	0.386661	7.37625e+06	-57339.1	1055.82	-29737.1	0.000000	0.000000	6.386875	-0.024358	NaN	0.000000	0.001618	0.001679	28.0828	0.130639	0.002053	63.6409	-121.937	-168.821	-0.042913	0.385342	-0.618198	-0.619518	-0.024358	63.6409	-0.617911	-1.468663E+8	1.658495E-10	NaN
1144	1.000000	0.394698	7.37625e+06	-57339.1	1055.82	-29737.1	0.000000	0.000000	6.394914	0.042560	NaN	0.000000	0.001606	0.001693	28.0831	0.057373	0.002023	28.3581	130.937	-165.391	-0.025783	0.393347	-0.610161	-0.611513	0.042560	28.3581	-0.611287	-1.190747E+8	-3.574266E-10	NaN
1144	1.000000	0.402692	7.37625e+06	-57339.1	1055.82	-29737.1	0.000000	0.000000	6.402908	0.035829	NaN	0.000000	0.001645	0.001691	28.083	0.024060	0.002020	11.9085	44.6548	-165.051	-0.060176	0.401385	-0.602167	-0.603475	0.035829	11.9085	-0.604424	-9.580156E+7	-3.739880E-10	NaN
1144	1.000000	0.410679	7.37625e+06	-57339.1	1055.82	-29737.1	0.000000	0.000000	6.410894	0.025761	NaN	0.000000	0.001612	0.001675	28.0827	0.037376	0.002067	18.0863	-31.3368	-164.47	-0.040400	0.409332	-0.594181	-0.595528	0.025761	18.0863	-0.595249	-7.161615E+7	-3.597158E-10	NaN
1144	1.000000	0.418714	7.37625e+06	-57339.1	1055.82	-29737.1	0.000000	0.000000	6.418925	-0.087278	NaN	0.000000	0.001622	0.001650	28.0828	0.092286	0.001916	48.1667	-151.6	-167.243	-0.011117	0.417395	-0.586146	-0.587464	-0.087278	48.1667	-0.584787	-5.137713E+7	1.698765E-9	NaN
1144	1.000000	0.426707	7.37625e+06	-57339.1	1055.82	-29737.1	0.000000	0.000000	6.426918	-0.073450	NaN	0.000000	0.001608	0.001689	28.0827	0.071598	0.001871	38.2674	111.028	-163.476	0.003348	0.425362	-0.578153	-0.579497	-0.073450	38.2674	-0.576714	-3.975208E+7	1.847690E-9	NaN
1144	1.000000	0.434681	7.37625e+06	-57339.1	1055.82	-29737.1	0.000000	0.000000	6.434898	0.074851	NaN	0.000000	0.001619	0.001689	28.0828	0.043053	0.001956	22.0059	-171.316	-166.633	0.057710	0.433375	-0.570179	-0.571484	0.074851	22.0059	-0.572730	-3.502262E+7	-2.137229E-9	NaN
1144	1.000000	0.442718	7.37625e+06	-57339.1	1055.82	-29737.1	0.000000	0.000000	6.442928	-0.097848	NaN	0.000000	0.001632	0.001643	28.0826	0.107281	0.002103	51.0167	-34.8072	-165.479	-0.059349	0.441396	-0.562142	-0.563463	-0.097848	51.0167	-0.560703	-2.388379E+7	4.096833E-9	NaN
1144	1.000000	0.450683	7.37625e+06	-57339.1	1055.82	-29737.1	0.000000	0.000000	6.450899	0.045072	NaN	0.000000	0.001629	0.001678	28.0826	0.016265	0.002082	7.812086	83.3864	-165.15	0.051074	0.449358	-0.554176	-0.555501	0.045072	7.812086	-0.558504	-2.226768E+7	-2.024095E-9	NaN
1144	1.000000	0.458663	7.37625e+06	-57339.1	1055.82	-29737.1	0.000000	0.000000	6.458876	-0.035812	NaN	0.000000	0.001621	0.001661	28.0829	0.031947	0.002000	15.9721	31.0878	-166.721	-0.048179	0.457407	-0.546196	-0.547453	-0.035812	15.9721	-0.544515	-1.425460E+7	2.512345E-9	NaN
1144	1.000000	0.466693	7.37625e+06	-57339.1	1055.82	-29737.1	0.000000	0.000000	6.466909	0.052558	NaN	0.000000	0.001621	0.001689	28.0826	0.166685	0.002068	80.6011	-137.414	-167.744	-0.025225	0.465396	-0.538167	-0.539463	0.052558	80.6011	-0.538656	-1.182268E+7	-4.445552E-9	NaN
1144	1.000000	0.474708	7.37625e+06	-57339.1	1055.82	-29737.1	0.000000	0.000000	6.474923	0.012507	NaN	0.000000	0.001629	0.001659	28.0827	0.033932	0.001913	17.737	141.408	-167.975	0.011004	0.473321	-0.530151	-0.531539	0.012507	17.737	-0.530680	-9.16266e+06	-1.364990E-9	NaN
1144	1.000000	0.482708	7.37625e+06	-57339.1	1055.82	-29737.1	0.000000	0.000000	6.482923	0.016497	NaN	0.000000	0.001605	0.001689	28.0813	0.047863	0.002005	23.8691	-4.607959	-166.737	-0.046018	0.481415	-0.522151	-0.523444	0.016497	23.8691	-0.522670	-7.09121e+06	-2.326400E-9	NaN
1144	1.000000	0.490707	7.37625e+06	-57339.1	1055.82	-29737.1	0.000000	0.000000	6.490920	-0.025073	NaN	0.000000	0.001624	0.001637	28.0813	0.112913	0.002135	52.8755	7.284079	-164.806	-0.020805	0.489368	-0.514153	-0.515492	-0.025073	52.8755	-0.513797	-5.33687e+06	4.697983E-9	NaN
1144	1.000000	0.498696	7.37625e+06	-57339.1	1055.82	-29737.1	0.000000	0.000000	6.498910	-0.004696	NaN	0.000000	0.001622	0.001664	28.0816	0.078589	0.002047	38.3873	63.4461	-166.117	-0.057438	0.497401	-0.506164	-0.507459	-0.004696	38.3873	-0.506072	-4.1657e+06	1.127269E-9	NaN
1144	1.000000	0.506720	7.37625e+06	-57339.1	1055.82	-29737.1	0.000000	0.000000	6.506937	0.047380	NaN	0.000000	0.001639	0.001622	28.0815	0.120959	0.002031	59.5564	48.6137	-163.547	0.022180	0.505438	-0.498139	-0.499421	0.047380	59.5564	-0.498736	-3.29141e+06	-1.439498E-8	NaN
1144	1.000000	0.514766	7.37625e+06	-57339.1	1055.82	-29737.1	0.000000	0.000000	6.514981	0.030806	NaN	0.000000	0.001613	0.001640	28.0814	0.037857	0.002028	18.6688	90.577	-164.904	0.076088	0.513428	-0.490094	-0.491432	0.030806	18.6688	-0.491332	-2.59417e+06	-1.187516E-8	NaN
1144	1.000000	0.522717	7.37625e+06	-57339.1	1055.82	-29737.1	0.000000	0.000000	6.522932	0.010538	NaN	0.000000	0.001608	0.001634	28.0811	0.075884	0.001891	40.1227	-75.0913	-165.719	-0.024596	0.521422	-0.482142	-0.483438	0.010538	40.1227	-0.482339	-1.9421e+06	-5.425856E-9	NaN
1144	1.000000	0.530745	7.37625e+06	-57339.1	1055.82	-29737.1	0.000000	0.000000	6.530959	-0.018143	NaN	0.000000	0.001595	0.001637	28.0813	0.105571	0.001910	55.2846	-75.2422	-167.232	0.000773	0.529455	-0.474115	-0.475404	-0.018143	55.2846	-0.473869	-1.4779e+06	1.227622E-8	NaN
1144	1.000000	0.538722	7.37625e+06	-57339.1	1055.82	-29737.1	0.000000	0.000000	6.538938	0.025377	NaN	0.000000	0.001617	0.001660	28.0818	0.041835	0.002029	20.6204	-174.35	-164.926	-0.033559	0.537418	-0.466137	-0.467442	0.025377	20.6204	-0.467060	-1.18622e+06	-2.139356E-8	NaN
1144	1.000000	0.546751	7.37625e+06	-57339.1	1055.82	-29737.1	0.000000	0.000000	6.546966	0.008172	NaN	0.000000	0.001649	0.001684	28.0816	0.230535	0.002120	108.75	-179.035	-166.601	-0.019935	0.545516	-0.458108	-0.459344	0.008172	108.75	-0.458165	-889654	-9.185930E-9	NaN
1144	1.000000	0.554741	7.37625e+06	-57339.1	1055.82	-29737.1	0.000000	0.000000	6.554954	-0.038752	NaN	0.000000	0.001594	0.001667	28.0817	0.033670	0.002017	16.6896	84.792	-165.673	-0.060618	0.553347	-0.450118	-0.451513	-0.038752	16.6896	-0.448377	-647862	5.981563E-8	NaN
1144	1.000000	0.562743	7.37625e+06	-57339.1	1055.82	-29737.1	0.000000	0.000000	6.562958	0.010578	NaN	0.000000	0.001572	0.001698	28.0815	0.141613	0.001936	73.1308	-112.473	-165.929	-0.074399	0.561415	-0.442117	-0.443444	0.010578	73.1308	-0.442225	-530592	-1.993628E-8	NaN
1144	1.000000	0.570756	7.37625e+06	-57339.1	1055.82	-29737.1	0.000000	0.000000	6.570970	0.001546	NaN	0.000000	0.001565	0.001703	28.0814	0.094832	0.001853	51.1882	100.892	-170.129	0.023085	0.569475	-0.434104	-0.435385	0.001546	51.1882	-0.434127	-407765	-3.790619E-9	NaN
1144	1.000000	0.578737	7.37625e+06	-57339.1	1055.82	-29737.1	0.000000	0.000000	6.578950	-0.034329	NaN	0.000000	0.001529	0.001640	28.0814	0.117104	0.002006	58.3641	105.462	-168.804	-0.029737	0.577466	-0.426123	-0.427394	-0.034329	58.3641	-0.425682	-309700	1.108463E-7	NaN
1144	1.000000	0.586757	7.37625e+06	-57339.1	1055.82	-29737.1	0.000000	0.000000	6.586972	0.009302	NaN	0.000000	0.001583	0.001659	28.0815	0.079765	0.001977	40.3451	147.043	-161.505	0.038622	0.585468	-0.418103	-0.419392	0.009302	40.3451	-0.418276	-243194	-3.825028E-8	NaN
1144	1.000000	0.594718	7.37625e+06	-57339.1	1055.82	-29737.1	0.000000	0.000000	6.594930	-0.042236	NaN	0.000000	0.001544	0.001687	28.0815	0.120429	0.002028	59.3753	-10.8712	-167.471	-0.086891	0.593447	-0.410142	-0.411413	-0.042236	59.3753	-0.409609	-183162	2.305962E-7	NaN
1144	1.000000	0.602763	7.37625e+06	-57339.1	1055.82	-29737.1	0.000000	0.000000	6.602978	0.011855	NaN	0.000000	0.001569	0.001686	28.0818	0.110958	0.001907	58.1741	175.155	-168.218	-0.034380	0.601469	-0.402096	-0.403391	0.011855	58.1741	-0.402249	-143900	-8.238167E-8	NaN
1144	1.000000	0.610742	7.37625e+06	-57339.1	1055.82	-29737.1	0.000000	0.000000	6.610956	-0.009379	NaN	0.000000	0.001524	0.001650	28.0817	0.061431	0.001994	30.8021	159.765	-168.176	0.019104	0.609450	-0.394117	-0.395410	-0.009379	30.8021	-0.393889	-109336	8.577940E-8	NaN
1144	1.000000	0.618793	7.37625e+06	-57339.1	1055.82	-29737.1	0.000000	0.000000	6.619008	-0.004004	NaN	0.000000	0.001517	0.001679	28.0826	0.062662	0.001969	31.8225	-159.151	-166.193	-0.006404	0.617499	-0.386066	-0.387361	-0.004004	31.8225	-0.385972	-84238.5	4.753747E-8	NaN
1144	1.000000	0.626791	7.37625e+06	-57339.1	1055.82	-29737.1	0.000000	0.000000	6.627006	0.017872	NaN	0.000000	0.001575	0.001688	28.0826	0.054388	0.001966	27.6627	138.243	-166.869	0.000364	0.625502	-0.378069	-0.379358	0.017872	27.6627	-0.378553	-65935.6	-2.710516E-7	NaN
1144	1.000000	0.634820	7.37625e+06	-57339.1	1055.82	-29737.1	0.000000	0.000000	6.635033	-0.045510	NaN	0.000000	0.001577	0.001667	28.0825	0.050682	0.002022	25.0658	12.8005	-164.564	0.026749	0.633462	-0.370039	-0.371398	-0.045510	25.0658	-0.368678	-47542.1	9.572573E-7	NaN
1144	1.000000	0.642781	7.37625e+06	-57339.1	1055.82	-29737.1	0.000000	0.000000	6.642995	0.002745	NaN	0.000000	0.001575	0.001667	28.0826	0.025124	0.002048	12.2653	67.0468	-166.262	0.016349	0.641473	-0.362079	-0.363387	0.002745	12.2653	-0.362247	-38398.2	-7.147864E-8	NaN
1144	1.000000	0.650780	7.37625e+06	-57339.1	1055.82	-29737.1	0.000000	0.000000	6.650994	-0.007722	NaN	0.000000	0.001581	0.001709	28.0826	0.018468	0.001950	9.473440	155.809	-166.806	-0.001611	0.649429	-0.354080	-0.355431	-0.007722	9.473440	-0.353469	-28662.2	2.694142E-7	NaN
1144	1.000000	0.658799	7.37625e+06	-57339.1	1055.82	-29737.1	0.000000	0.000000	6.659014	0.025976	NaN	0.000000	0.001603	0.001691	28.0824	0.019030	0.002039	9.332302	-52.1406	-167.67	0.059246	0.657449	-0.346061	-0.347410	0.025976	9.332302	-0.348148	-23994.8	-1.082575E-6	NaN
1144	1.000000	0.666807	7.37625e+06	-57339.1	1055.82	-29737.1	0.000000	0.000000	6.667025	0.071644	NaN	0.000000	0.001591	0.001684	28.0826	0.134760	0.002039	66.0834	-90.3149	-164.769	-0.093711	0.665470	-0.338052	-0.339390	0.071644	66.0834	-0.338865	-17579.7	-4.075360E-6	NaN
1144	1.000000	0.674826	7.37625e+06	-57339.1	1055.82	-29737.1	0.000000	0.000000	6.675038	-0.051140	NaN	0.000000	0.001609	0.001684	28.0823	0.023210	0.001919	12.0952	-14.3431	-163.945	-0.057073	0.673494	-0.330034	-0.331366	-0.051140	12.0952	-0.326863	-11734.6	4.358052E-6	NaN
1144	1.000000	0.682798	7.37625e+06	-57339.1	1055.82	-29737.1	0.000000	0.000000	6.683011	-0.031864	NaN	0.000000	0.001567	0.001682	28.0827	0.027443	0.002068	13.2717	45.211	-165.948	0.016809	0.681502	-0.322062	-0.323358	-0.031864	13.2717	-0.320261	-9385.96	3.394843E-6	NaN
1144	1.000000	0.690825	7.37625e+06	-57339.1	1055.82	-29737.1	0.000000	0.000000	6.691039	0.007688	NaN	0.000000	0.001572	0.001692	28.0825	0.055230	0.002071	26.6669	165.228	-165.622	-0.018567	0.689520	-0.314035	-0.315339	0.007688	26.6669	-0.314251	-7654.1	-1.004441E-6	NaN
1144	1.000000	0.698791	7.37625e+06	-57339.1	1055.82	-29737.1	0.000000	0.000000	6.699004	-0.038777	NaN	0.000000	0.001614	0.001654	28.0826	0.057932	0.001985	29.1831	-115.306	-167.951	-0.012894	0.697599	-0.306069	-0.307261	-0.038777	29.1831	-0.305072	-5597.93	6.926965E-6	NaN
1144	1.000000	0.706787	7.37625e+06	-57339.1	1055.82	-29737.1	0.000000	0.000000	6.706999	-0.067363	NaN	0.000000	0.001595	0.001680	28.0826	0.115968	0.002126	54.5412	24.2134	-167.331	0.042069	0.705530	-0.298072	-0.299330	-0.067363	54.5412	-0.297146	-4266.9	1.578726E-5	NaN
1144	1.000000	0.714817	7.37625e+06	-57339.1	1055.82	-29737.1	0.000000	0.000000	6.715030	-0.037670	NaN	0.000000	0.001612	0.001679	28.0824	0.198058	0.002028	97.6389	-18.1035	-166.577	0.065245	0.713518	-0.290042	-0.291342	-0.037670	97.6389	-0.289753	-3308.28	1.138657E-5	NaN
1144	1.000000	0.722823	7.37625e+06	-57339.1	1055.82	-29737.1	0.000000	0.000000	6.723035	-0.056093	NaN	0.000000	0.001607	0.001659	28.0825	0.045863	0.001997	22.9626	127.298	-165.659	-0.094589	0.721481	-0.282037	-0.283378	-0.056093	22.9626	-0.280205	-2377.16	2.359682E-5	NaN
1144	1.000000	0.730835	7.37625e+06	-57339.1	1055.82	-29737.1	0.000000	0.000000	6.731049	-0.025051	NaN	0.000000	0.001581	0.001700	28.0824	0.060968	0.001921	31.7418	64.9149	-165.511	0.038224	0.729542	-0.274024	-0.275317	-0.025051	31.7418	-0.273433	-1877.81	1.334081E-5	NaN
1144	1.000000	0.738845	7.37625e+06	-57339.1	1055.82	-29737.1	0.000000	0.000000	6.739061	0.029359	NaN	0.000000	0.001569	0.001679	28.0826	0.021304	0.001941	10.9783	30.5439	-164.072	0.045996	0.737495	-0.266015	-0.267364	0.029359	10.9783	-0.268020	-1553.92	-1.889354E-5	NaN
1144	1.000000	0.746826	7.37625e+06	-57339.1	1055.82	-29737.1	0.000000	0.000000	6.747041	0.034602	NaN	0.000000	0.001584	0.001708	28.0825	0.151786	0.002144	70.7925	100.911	-166.857	0.002834	0.745506	-0.258034	-0.259354	0.034602	70.7925	-0.258401	-1107.61	-3.124033E-5	NaN
1144	1.000000	0.754812	7.37625e+06	-57339.1	1055.82	-29737.1	0.000000	0.000000	6.755025	-0.023061	NaN	0.000000	0.001587	0.001671	28.0811	0.112824	0.002036	55.4174	-61.7807	-164.861	-0.070928	0.753497	-0.250048	-0.251363	-0.023061	55.4174	-0.249736	-814.482	2.831333E-5	NaN
1144	1.000000	0.762865	7.37625e+06	-57339.1	1055.82	-29737.1	0.000000	0.000000	6.763079	-0.009216	NaN	0.000000	0.001583	0.001666	28.0815	0.055811	0.002012	27.7354	166.626	-161.74	0.056863	0.761506	-0.241994	-0.243354	-0.009216	27.7354	-0.241745	-612.048	1.505834E-5	NaN
1144	1.000000	0.770834	7.37625e+06	-57339.1	1055.82	-29737.1	0.000000	0.000000	6.771047	-0.027780	NaN	0.000000	0.001640	0.001700	28.0812	0.117577	0.001987	59.1652	-130.806	-161.67	-0.021821	0.769501	-0.234026	-0.235359	-0.027780	59.1652	-0.233673	-457.512	6.072049E-5	NaN
1144	1.000000	0.778875	7.37625e+06	-57339.1	1055.82	-29737.1	0.000000	0.000000	6.779089	-0.000387	NaN	0.000000	0.001552	0.001723	28.0816	0.009975	0.001974	5.052796	34.9529	-165.448	-0.145019	0.777453	-0.225985	-0.227406	-0.000387	5.052796	-0.225927	-345.187	1.120791E-6	NaN
1144	1.000000	0.786840	7.37625e+06	-57339.1	1055.82	-29737.1	0.000000	0.000000	6.787050	-0.091880	NaN	0.000000	0.001563	0.001704	28.0815	0.064053	0.001937	33.0721	-106.561	-166.95	-0.036840	0.785537	-0.218020	-0.219323	-0.091880	33.0721	-0.215936	-239.092	0.000384	NaN
1144	1.000000	0.794855	7.37625e+06	-57339.1	1055.82	-29737.1	0.000000	0.000000	6.795068	-0.035021	NaN	0.000000	0.001539	0.001731	28.0812	0.055270	0.001963	28.159	-98.1934	-166.85	-0.035689	0.793512	-0.210005	-0.211348	-0.035021	28.159	-0.209072	-185.262	0.000189	NaN
1144	1.000000	0.802845	7.37625e+06	-57339.1	1055.82	-29737.1	0.000000	0.000000	6.803063	0.092873	NaN	0.000000	0.001526	0.001707	28.0812	0.092531	0.001956	47.2975	-3.052597	-165.72	0.125247	0.801594	-0.202015	-0.203266	0.092873	47.2975	-0.203487	-150.264	-0.000618	NaN
1144	1.000000	0.810877	7.37625e+06	-57339.1	1055.82	-29737.1	0.000000	0.000000	6.811089	-0.043254	NaN	0.000000	0.001541	0.001698	28.0813	0.186583	0.002028	92.0143	-104.235	-166.613	-0.047367	0.809553	-0.193983	-0.195307	-0.043254	92.0143	-0.193631	-103.393	0.000418	NaN
1144	1.000000	0.818861	7.37625e+06	-57339.1	1055.82	-29737.1	0.000000	0.000000	6.819076	0.033649	NaN	0.000000	0.001583	0.001674	28.0817	0.091329	0.002006	45.5346	-170.695	-167.03	0.021433	0.817533	-0.185999	-0.187327	0.033649	45.5346	-0.186553	-78.7549	-0.000427	NaN
1144	1.000000	0.826862	7.37625e+06	-57339.1	1055.82	-29737.1	0.000000	0.000000	6.827079	0.064610	NaN	0.000000	0.001561	0.001689	28.0813	0.093278	0.002052	45.4579	40.0457	-166.515	0.077310	0.825585	-0.177998	-0.179275	0.064610	45.4579	-0.179064	-58.8196	-0.001098	NaN
1144	1.000000	0.834866	7.37625e+06	-57339.1	1055.82	-29737.1	0.000000	0.000000	6.835078	-0.058351	NaN	0.000000	0.001586	0.001717	28.0814	0.083671	0.002092	39.9953	132.776	-164.957	-0.040279	0.833510	-0.169993	-0.171350	-0.058351	39.9953	-0.168899	-39.3073	0.001484	NaN
1144	1.000000	0.842859	7.37625e+06	-57339.1	1055.82	-29737.1	0.000000	0.000000	6.843072	-0.019910	NaN	0.000000	0.001568	0.001697	28.0812	0.061188	0.001936	31.5985	103.218	-165.293	-0.028745	0.841606	-0.162001	-0.163254	-0.019910	31.5985	-0.161528	-29.1805	0.000682	NaN
1144	1.000000	0.850877	7.37625e+06	-57339.1	1055.82	-29737.1	0.000000	0.000000	6.851088	-0.065340	NaN	0.000000	0.001616	0.001697	28.0815	0.077113	0.002012	38.3256	-141.994	-168.298	-0.122517	0.849551	-0.153983	-0.155309	-0.065340	38.3256	-0.152704	-20.2836	0.003221	NaN
1144	1.000000	0.858880	7.37625e+06	-57339.1	1055.82	-29737.1	0.000000	0.000000	6.859095	0.015384	NaN	0.000000	0.001584	0.001737	28.0814	0.106924	0.001960	54.5544	-169.926	-163.668	0.061715	0.857551	-0.145980	-0.147309	0.015384	54.5544	-0.146191	-15.423	-0.000997	NaN
1144	1.000000	0.866868	7.37625e+06	-57339.1	1055.82	-29737.1	0.000000	0.000000	6.867083	0.014723	NaN	0.000000	0.001589	0.001745	28.0814	0.103495	0.002242	46.1585	44.7041	-165.83	-0.029854	0.865545	-0.137992	-0.139315	0.014723	46.1585	-0.138231	-10.956	-0.001344	NaN
1144	1.000000	0.874893	7.37625e+06	-57339.1	1055.82	-29737.1	0.000000	0.000000	6.875109	0.052340	NaN	0.000000	0.001569	0.001741	28.0817	0.051186	0.002038	25.1218	-145.424	-163.788	0.047356	0.873576	-0.129967	-0.131283	0.052340	25.1218	-0.131530	-8.159100	-0.006415	NaN
1144	1.000000	0.882875	7.37625e+06	-57339.1	1055.82	-29737.1	0.000000	0.000000	6.883089	-0.018070	NaN	0.000000	0.001610	0.001739	28.0813	0.075950	0.002065	36.7866	-80.5736	-164.475	-0.044945	0.881577	-0.121984	-0.123283	-0.018070	36.7866	-0.121616	-5.207021	0.003470	NaN
1144	1.000000	0.890869	7.37625e+06	-57339.1	1055.82	-29737.1	0.000000	0.000000	6.891079	-0.098016	NaN	0.000000	0.001561	0.001735	28.0828	0.034049	0.002029	16.7814	-168.138	-168.445	-0.110927	0.889551	-0.113991	-0.115309	-0.098016	16.7814	-0.109610	-2.948846	0.033239	NaN
1144	1.000000	0.898890	7.37625e+06	-57339.1	1055.82	-29737.1	0.000000	0.000000	6.899105	0.013854	NaN	0.000000	0.001588	0.001709	28.0827	0.090255	0.001846	48.8902	173.982	-166.277	0.014347	0.897598	-0.105970	-0.107262	0.013854	48.8902	-0.106182	-2.492509	-0.005558	NaN
1144	1.000000	0.906905	7.37625e+06	-57339.1	1055.82	-29737.1	0.000000	0.000000	6.907118	-0.036225	NaN	0.000000	0.001578	0.001726	28.0822	0.042008	0.001995	21.0588	-99.5997	-166.646	-0.035116	0.905568	-0.097955	-0.099292	-0.036225	21.0588	-0.096664	-1.538734	0.023542	NaN
1144	1.000000	0.914906	7.37625e+06	-57339.1	1055.82	-29737.1	0.000000	0.000000	6.915120	-0.015403	NaN	0.000000	0.001581	0.001726	28.0829	0.108481	0.002143	50.6312	-42.0962	-164.363	-0.104026	0.913555	-0.089954	-0.091305	-0.015403	50.6312	-0.089726	-1.065066	0.014462	NaN
1144	1.000000	0.922919	7.37625e+06	-57339.1	1055.82	-29737.1	0.000000	0.000000	6.923131	-0.038707	NaN	0.000000	0.001576	0.001693	28.0826	0.056182	0.001920	29.2563	155.914	-165.399	-0.014358	0.921618	-0.081941	-0.083242	-0.038707	29.2563	-0.080949	-0.653634	0.059218	NaN
1144	1.000000	0.930892	7.37625e+06	-57339.1	1055.82	-29737.1	0.000000	0.000000	6.931107	0.015113	NaN	0.000000	0.001553	0.001702	28.0828	0.053242	0.002022	26.3249	115.837	-162.503	0.031646	0.929571	-0.073967	-0.075289	0.015113	26.3249	-0.074398	-0.445569	-0.033918	NaN
1144	1.000000	0.938911	7.37625e+06	-57339.1	1055.82	-29737.1	0.000000	0.000000	6.939124	-0.032373	NaN	0.000000	0.001601	0.001700	28.0828	0.066417	0.002032	32.6891	-111.186	-161.928	-0.003515	0.937595	-0.065948	-0.067265	-0.032373	32.6891	-0.065206	-0.252510	0.128204	NaN
1144	1.000000	0.946892	7.37625e+06	-57339.1	1055.82	-29737.1	0.000000	0.000000	6.947106	-0.000874	NaN	0.000000	0.001578	0.001761	28.0825	0.032916	0.001963	16.766	-58.9679	-167.722	-0.003560	0.945598	-0.057968	-0.059262	-0.000874	16.766	-0.057929	-0.156927	0.005571	NaN
1144	1.000000	0.954900	7.37625e+06	-57339.1	1055.82	-29737.1	0.000000	0.000000	6.955113	-0.029867	NaN	0.000000	0.001585	0.001735	28.0829	0.087007	0.001967	44.2393	-56.0949	-167.817	-0.075547	0.953615	-0.049960	-0.051245	-0.029867	44.2393	-0.049453	-0.087839	0.340024	NaN
1144	1.000000	0.962913	7.37625e+06	-57339.1	1055.82	-29737.1	0.000000	0.000000	6.963128	0.000135	NaN	0.000000	0.001585	0.001716	28.0827	0.045599	0.001941	23.4942	-179.25	-166.134	-0.043794	0.961574	-0.041946	-0.043286	0.000135	23.4942	-0.041951	-0.051852	-0.002597	NaN
1144	1.000000	0.970919	7.37625e+06	-57339.1	1055.82	-29737.1	0.000000	0.000000	6.971131	-0.036258	NaN	0.000000	0.001578	0.001745	28.0831	0.173668	0.001858	93.4864	75.0693	-166.233	-0.054437	0.969568	-0.033941	-0.035292	-0.036258	93.4864	-0.033650	-0.029240	1.240028	NaN
1144	1.000000	0.978908	7.37625e+06	-57339.1	1055.82	-29737.1	0.000000	0.000000	6.979121	-0.035875	NaN	0.000000	0.001603	0.001677	28.0828	0.050712	0.001935	26.2092	175.889	-169.839	0.002048	0.977575	-0.025952	-0.027285	-0.035875	26.2092	-0.024925	-0.016795	2.136103	NaN
1144	1.000000	0.986915	7.37625e+06	-57339.1	1055.82	-29737.1	0.000000	0.000000	6.987129	0.003853	NaN	0.000000	0.001557	0.001702	28.0827	0.093621	0.001990	47.0569	117.697	-165.238	0.064415	0.985613	-0.017945	-0.019247	0.003853	47.0569	-0.018006	-0.011167	-0.345017	NaN
1144	1.000000	0.994946	7.37625e+06	-57339.1	1055.82	-29737.1	0.000000	0.000000	6.995157	-0.059909	NaN	0.000000	0.001587	0.001704	28.0829	0.071424	0.002042	34.9824	-154.462	-166.09	-0.011031	0.993616	-0.009914	-0.011243	-0.059909	34.9824	-0.008630	-0.005599	10.7005	NaN
1144	1.000000	1.002931	7.37625e+06	-57339.1	1055.82	-29737.1	0.000000	0.000000	7.003214	1.674466	NaN	0.000000	0.001623	0.001697	28.0827	2.505089	0.001894	1322.96	7.851656	-167.858	0.711220	1.001592	-0.001929	-0.003268	1.674466	1322.96	-0.002878	-0.002039	-821.365	NaN
1144	2.000000	1.009513	7.37625e+06	-57339.1	1055.82	-29737.1	0.000000	0.000000	7.010087	8.752825	NaN	0.000000	0.001595	0.001737	28.0831	9.252687	0.001617	5721.53	9.801475	-175.362	8.279053	1.009122	0.004653	0.004262	8.752825	5721.53	0.003506	0.002810	3114.97	98614.1
1144	2.000000	1.011515	7.37625e+06	-57339.1	1055.82	-29737.1	0.000000	0.000000	7.012210	11.6875	NaN	0.000000	0.001606	0.001732	28.0828	11.5777	0.001588	7289.13	6.486706	-174.001	11.1604	1.011211	0.006655	0.006351	11.6875	7289.13	0.005453	0.004550	2568.52	98725.5
1144	2.000000	1.013522	7.37625e+06	-57339.1	1055.82	-29737.1	0.000000	0.000000	7.014379	15.6128	NaN	0.000000	0.001584	0.001742	28.0816	14.8691	0.001750	8497.34	10.2156	-176.946	15.1848	1.013211	0.008662	0.008352	15.6128	8497.34	0.007284	0.006317	2471.7	97681.9
1144	2.000000	1.015460	7.37625e+06	-57339.1	1055.82	-29737.1	0.000000	0.000000	7.016452	18.9021	NaN	0.000000	0.001602	0.001692	28.082	16.8862	0.001753	9633.76	5.444774	-175.316	18.1785	1.015128	0.010601	0.010268	18.9021	9633.76	0.009129	0.008230	2296.87	97024.6
1144	2.000000	1.017465	7.37625e+06	-57339.1	1055.82	-29737.1	0.000000	0.000000	7.018636	23.2458	NaN	0.000000	0.001566	0.001715	28.0817	19.393	0.001780	10893.6	8.551713	-178.993	22.7993	1.017161	0.012605	0.012301	23.2458	10893.6	0.011005	0.010320	2252.55	97973.7
1144	2.000000	1.019439	7.37625e+06	-57339.1	1055.82	-29737.1	0.000000	0.000000	7.020774	27.2543	NaN	0.000000	0.001573	0.001735	28.0821	20.2121	0.001625	12435.8	0.988660	-174.336	26.1283	1.019124	0.014579	0.014265	27.2543	12435.8	0.012935	0.012630	2157.96	101100
1144	2.000000	1.021413	7.37625e+06	-57339.1	1055.82	-29737.1	0.000000	0.000000	7.022815	28.8657	NaN	0.000000	0.001584	0.001723	28.0816	23.9987	0.001789	13417.1	6.677249	179.758	27.4238	1.021187	0.016553	0.016327	28.8657	13417.1	0.014939	0.015205	1898.48	99412.9
1144	2.000000	1.023484	7.37625e+06	-57339.1	1055.82	-29737.1	0.000000	0.000000	7.025213	36.8087	NaN	0.000000	0.001548	0.001692	28.0817	25.9393	0.001807	14351.5	6.086636	-179.405	36.7381	1.023079	0.018624	0.018220	36.8087	14351.5	0.016701	0.017620	2088.99	98778.8
1144	2.000000	1.025443	7.37625e+06	-57339.1	1055.82	-29737.1	0.000000	0.000000	7.027308	40.123	NaN	0.000000	0.001570	0.001694	28.0818	28.021	0.001760	15923.4	6.298700	178.112	39.974	1.025180	0.020583	0.020320	40.123	15923.4	0.018693	0.020531	1954.29	101533
1144	2.000000	1.027404	7.37625e+06	-57339.1	1055.82	-29737.1	0.000000	0.000000	7.029436	44.1764	NaN	0.000000	0.001611	0.001711	28.0817	30.4408	0.001805	16860.7	10.9793	174.11	44.8095	1.027135	0.022544	0.022276	44.1764	16860.7	0.020579	0.023461	1882.98	100572
1144	2.000000	1.029432	7.37625e+06	-57339.1	1055.82	-29737.1	0.000000	0.000000	7.031833	53.1628	NaN	0.000000	0.001596	0.001717	28.0818	31.7028	0.001802	17589.6	5.574040	178.914	52.218	1.029032	0.024572	0.024172	53.1628	17589.6	0.022305	0.026295	2021.8	99104.7
1144	2.000000	1.031365	7.37625e+06	-57339.1	1055.82	-29737.1	0.000000	0.000000	7.033899	56.3645	NaN	0.000000	0.001595	0.001703	28.0817	33.6684	0.001853	18164.9	7.935836	176.595	53.9263	1.031114	0.026506	0.026254	56.3645	18164.9	0.024178	0.029538	1908.2	96563.9
1144	2.000000	1.033416	7.37625e+06	-57339.1	1055.82	-29737.1	0.000000	0.000000	7.036199	62.4376	NaN	0.000000	0.001576	0.001694	28.0818	35.8046	0.001883	19010	4.614213	179.893	61.4671	1.033132	0.028557	0.028272	62.4376	19010	0.026093	0.033034	1890.08	95559
1144	2.000000	1.035406	7.37625e+06	-57339.1	1055.82	-29737.1	0.000000	0.000000	7.038601	72.4415	NaN	0.000000	0.001577	0.001677	28.0825	36.4293	0.001742	20916.7	3.308424	179.956	72.4661	1.035086	0.030546	0.030227	72.4415	20916.7	0.027949	0.036600	1979.3	99891.6
1144	2.000000	1.037382	7.37625e+06	-57339.1	1055.82	-29737.1	0.000000	0.000000	7.040715	75.813	NaN	0.000000	0.001591	0.001697	28.0818	40.4315	0.001818	22236.1	9.661119	172.848	74.2035	1.037169	0.032522	0.032309	75.813	22236.1	0.029965	0.040671	1864.07	100738
1144	2.000000	1.039427	7.37625e+06	-57339.1	1055.82	-29737.1	0.000000	0.000000	7.042971	80.9354	NaN	0.000000	0.001677	0.001714	28.0818	40.2916	0.001667	24172.7	3.977155	177.75	82.5488	1.039101	0.034567	0.034241	80.9354	24172.7	0.032056	0.045113	1794.08	103980
1144	2.000000	1.041301	7.37625e+06	-57339.1	1055.82	-29737.1	0.000000	0.000000	7.045183	89.1486	NaN	0.000000	0.001639	0.001702	28.0818	44.5174	0.001910	23303.3	8.212908	174.075	84.2725	1.041058	0.036441	0.036198	89.1486	23303.3	0.033572	0.048473	1839.16	96703.6
1144	2.000000	1.043437	7.37625e+06	-57339.1	1055.82	-29737.1	0.000000	0.000000	7.047692	98.2216	NaN	0.000000	0.001691	0.001715	28.0818	45.1743	0.001770	25523.9	2.761619	179.619	98.587	1.043045	0.038577	0.038186	98.2216	25523.9	0.035691	0.053367	1840.49	100945
1144	2.000000	1.045362	7.37625e+06	-57339.1	1055.82	-29737.1	0.000000	0.000000	7.050027	108.173	NaN	0.000000	0.001631	0.001722	28.082	47.9882	0.001715	27989.5	5.178795	175.287	107.417	1.045069	0.040502	0.040209	108.173	27989.5	0.037603	0.057981	1865.65	106200
1144	2.000000	1.047381	7.37625e+06	-57339.1	1055.82	-29737.1	0.000000	0.000000	7.052081	109.033	NaN	0.000000	0.001687	0.001711	28.0829	50.5947	0.001791	28244.7	4.067816	175.695	107.306	1.047227	0.042521	0.042368	109.033	28244.7	0.039626	0.063065	1728.92	102758
1144	2.000000	1.049313	7.37625e+06	-57339.1	1055.82	-29737.1	0.000000	0.000000	7.054642	124.302	NaN	0.000000	0.001652	0.001694	28.0831	51.496	0.001733	29708.2	4.029267	175.237	120.482	1.048979	0.044454	0.044119	124.302	29708.2	0.041315	0.067472	1842.27	104493
1144	2.000000	1.051349	7.37625e+06	-57339.1	1055.82	-29737.1	0.000000	0.000000	7.056708	125.034	NaN	0.000000	0.001637	0.001701	28.0831	53.6314	0.001727	31054	2.718770	176.972	122.942	1.051064	0.046489	0.046204	125.034	31054	0.043469	0.073302	1705.75	104794
1144	2.000000	1.053454	7.37625e+06	-57339.1	1055.82	-29737.1	0.000000	0.000000	7.059340	137.837	NaN	0.000000	0.001653	0.001669	28.0831	56.3842	0.001835	30721.6	5.013106	175.514	139.061	1.053027	0.048595	0.048167	137.837	30721.6	0.045230	0.078241	1761.7	100346
1144	2.000000	1.055367	7.37625e+06	-57339.1	1055.82	-29737.1	0.000000	0.000000	7.061675	148.1	NaN	0.000000	0.001628	0.001648	28.083	58.5613	0.001804	32458.4	8.503152	171.047	146.294	1.054977	0.050507	0.050117	148.1	32458.4	0.047085	0.083617	1771.17	102554
1144	2.000000	1.057522	7.37625e+06	-57339.1	1055.82	-29737.1	0.000000	0.000000	7.063912	150.097	NaN	0.000000	0.001670	0.001665	28.083	61.963	0.001837	33735.1	10.9628	168.163	158.357	1.057183	0.052662	0.052323	150.097	33735.1	0.049325	0.090340	1661.47	102546
1144	2.000000	1.059369	7.37625e+06	-57339.1	1055.82	-29737.1	0.000000	0.000000	7.066429	166.389	NaN	0.000000	0.001717	0.001684	28.083	61.3483	0.001652	37143.6	8.355062	169.811	167.303	1.059027	0.054509	0.054167	166.389	37143.6	0.051149	0.095999	1733.25	109528
1144	2.000000	1.061366	7.37625e+06	-57339.1	1055.82	-29737.1	0.000000	0.000000	7.068871	177.209	NaN	0.000000	0.001680	0.001676	28.083	64.0912	0.001705	37599.2	5.815379	172.224	176.401	1.060951	0.056506	0.056091	177.209	37599.2	0.052971	0.101817	1740.47	107657
1144	2.000000	1.063375	7.37625e+06	-57339.1	1055.82	-29737.1	0.000000	0.000000	7.071303	187.477	NaN	0.000000	0.001711	0.001669	28.083	66.1793	0.001874	35312.1	2.828774	176.024	186.406	1.063074	0.058515	0.058214	187.477	35312.1	0.054533	0.106939	1753.13	98657.2
1144	2.000000	1.065332	7.37625e+06	-57339.1	1055.82	-29737.1	0.000000	0.000000	7.073701	198.191	NaN	0.000000	0.001745	0.001692	28.083	67.0507	0.001722	38946.9	1.952383	175.884	195.361	1.065090	0.060473	0.060230	198.191	38946.9	0.056656	0.114091	1737.14	105347
1144	2.000000	1.067282	7.37625e+06	-57339.1	1055.82	-29737.1	0.000000	0.000000	7.076066	208.291	NaN	0.000000	0.001745	0.001700	28.083	70.9958	0.001851	38345.3	3.567795	174.004	202.523	1.066953	0.062422	0.062094	208.291	38345.3	0.058348	0.119951	1736.47	101154
1144	2.000000	1.069337	7.37625e+06	-57339.1	1055.82	-29737.1	0.000000	0.000000	7.078620	220.408	NaN	0.000000	0.001734	0.001705	28.0831	72.2384	0.001800	40140.7	8.361221	169.058	219.395	1.068946	0.064477	0.064086	220.408	40140.7	0.060359	0.127098	1734.15	102870
1144	2.000000	1.071416	7.37625e+06	-57339.1	1055.82	-29737.1	0.000000	0.000000	7.081142	231.169	NaN	0.000000	0.001692	0.001713	28.0828	74.5081	0.001775	41965.4	8.916307	168.889	232.522	1.070974	0.066556	0.066115	231.169	41965.4	0.062425	0.134647	1716.85	104488
1144	2.000000	1.073411	7.37625e+06	-57339.1	1055.82	-29737.1	0.000000	0.000000	7.083605	242.546	NaN	0.000000	0.001690	0.001704	28.0827	75.754	0.001803	42025.4	4.141324	173.312	243.298	1.072966	0.068551	0.068106	242.546	42025.4	0.064223	0.141385	1715.51	102114
1144	2.000000	1.075257	7.37625e+06	-57339.1	1055.82	-29737.1	0.000000	0.000000	7.086083	257.912	NaN	0.000000	0.001665	0.001722	28.0829	77.3888	0.001834	42206.6	6.760563	170.665	252.901	1.074948	0.070397	0.070088	257.912	42206.6	0.065814	0.147478	1748.82	100413
1144	2.000000	1.077283	7.37625e+06	-57339.1	1055.82	-29737.1	0.000000	0.000000	7.088309	262.764	NaN	0.000000	0.001657	0.001722	28.0829	80.3309	0.001844	43555.3	4.771060	171.742	257.31	1.077051	0.072423	0.072191	262.764	43555.3	0.067899	0.155645	1688.22	100866
1144	2.000000	1.079288	7.37625e+06	-57339.1	1055.82	-29737.1	0.000000	0.000000	7.091143	282.929	NaN	0.000000	0.001680	0.001651	28.083	80.6886	0.001788	45121.4	4.911148	171.71	280.085	1.078988	0.074428	0.074129	282.929	45121.4	0.069725	0.162972	1736.06	102117
1144	2.000000	1.081476	7.37625e+06	-57339.1	1055.82	-29737.1	0.000000	0.000000	7.093665	291.03	NaN	0.000000	0.001678	0.001688	28.0817	82.9607	0.001655	50116.1	7.054290	168.767	298.085	1.081040	0.076617	0.076180	291.03	50116.1	0.072261	0.173408	1678.29	109955
1144	2.000000	1.083420	7.37625e+06	-57339.1	1055.82	-29737.1	0.000000	0.000000	7.096209	305.605	NaN	0.000000	0.001650	0.001691	28.0814	86.3922	0.001768	48853.1	9.991983	167.051	307.095	1.082978	0.078561	0.078118	305.605	48853.1	0.073869	0.180181	1696.1	105150
1144	2.000000	1.085305	7.37625e+06	-57339.1	1055.82	-29737.1	0.000000	0.000000	7.098646	319.037	NaN	0.000000	0.001664	0.001675	28.0815	87.4631	0.001777	49219.2	6.234913	169.946	317.641	1.085068	0.080445	0.080208	319.037	49219.2	0.075584	0.187541	1701.15	103839
1144	2.000000	1.087315	7.37625e+06	-57339.1	1055.82	-29737.1	0.000000	0.000000	7.101311	334.962	NaN	0.000000	0.001670	0.001678	28.0815	91.0577	0.001828	49813.4	11.6676	164.481	333.293	1.087014	0.082455	0.082154	334.962	49813.4	0.077412	0.195538	1713.03	102921
1144	2.000000	1.089326	7.37625e+06	-57339.1	1055.82	-29737.1	0.000000	0.000000	7.103952	350.27	NaN	0.000000	0.001690	0.001658	28.0815	90.3544	0.001728	52291.8	6.840011	169.144	348.015	1.088959	0.084467	0.084099	350.27	52291.8	0.079443	0.204607	1711.92	105620
1144	2.000000	1.091290	7.37625e+06	-57339.1	1055.82	-29737.1	0.000000	0.000000	7.106207	357.355	NaN	0.000000	0.001688	0.001658	28.0817	92.8964	0.001764	52672.8	5.390019	169.845	355.482	1.091070	0.086430	0.086210	357.355	52672.8	0.081342	0.213259	1675.68	104209
1144	2.000000	1.093353	7.37625e+06	-57339.1	1055.82	-29737.1	0.000000	0.000000	7.109283	381.967	NaN	0.000000	0.001694	0.001689	28.0816	94.4667	0.001853	50987	2.749736	173.371	379.818	1.093003	0.088493	0.088143	381.967	50987	0.082874	0.220365	1733.34	99234.1
1144	2.000000	1.095305	7.37625e+06	-57339.1	1055.82	-29737.1	0.000000	0.000000	7.111578	390.296	NaN	0.000000	0.001643	0.001679	28.0816	97.2427	0.001731	56190.1	8.453221	166.459	387.48	1.094955	0.090445	0.090096	390.296	56190.1	0.085236	0.231527	1685.75	106692
1144	2.000000	1.097438	7.37625e+06	-57339.1	1055.82	-29737.1	0.000000	0.000000	7.114606	412.048	NaN	0.000000	0.001610	0.001677	28.0816	98.5711	0.001820	54156.6	7.851783	169.425	414.754	1.096880	0.092579	0.092021	412.048	54156.6	0.086872	0.239413	1721.07	101123
1144	2.000000	1.099191	7.37625e+06	-57339.1	1055.82	-29737.1	0.000000	0.000000	7.116938	426.127	NaN	0.000000	0.001656	0.001663	28.0815	98.5378	0.001692	58251.5	2.554513	172.569	417.975	1.098876	0.094331	0.094016	426.127	58251.5	0.088845	0.249084	1710.77	106637
1144	2.000000	1.101151	7.37625e+06	-57339.1	1055.82	-29737.1	0.000000	0.000000	7.119206	433.613	NaN	0.000000	0.001642	0.001677	28.0814	102.228	0.001722	59368.2	5.033387	169.313	423.044	1.100896	0.096291	0.096036	433.613	59368.2	0.090813	0.258910	1674.76	106599
1144	2.000000	1.103461	7.37625e+06	-57339.1	1055.82	-29737.1	0.000000	0.000000	7.122480	457.052	NaN	0.000000	0.001640	0.001691	28.0818	104.97	0.001772	59236.7	4.773491	170.403	462.894	1.103051	0.098601	0.098192	457.052	59236.7	0.092814	0.269084	1698.55	104333
1144	2.000000	1.105358	7.37625e+06	-57339.1	1055.82	-29737.1	0.000000	0.000000	7.125219	477.526	NaN	0.000000	0.001662	0.001664	28.0816	106.177	0.001786	59449.6	5.528001	168.993	478.523	1.105104	0.100498	0.100244	477.526	59449.6	0.094474	0.277658	1719.84	103078
1144	2.000000	1.107215	7.37625e+06	-57339.1	1055.82	-29737.1	0.000000	0.000000	7.127877	496.974	NaN	0.000000	0.001646	0.001683	28.0816	110.476	0.001754	62985.2	6.720043	167.496	491.352	1.107144	0.102355	0.102285	496.974	62985.2	0.096438	0.287969	1725.79	107236