File: remote_trans/data/nanoindenter/0828-1/data/Data_2025-08-06,11h17m57s/2025-07-22_16-23-58_1_46.txt
2025-07-22, 16:23:58, 1
Index	Phase	Displacement	Time	Pos X	Pos Y	Pos Z	Rot A	Rot B	Piezo Z	Force A	Force B	Gripper	Voltage A	Voltage B	Temperature	Amplitude force	Amplitude pos	Stiffness	Phase shift	Phase excitation	Force A raw	Displacement raw	HMax	HMax raw	Real Force	Real Stiffness	Contact Depth	Area	Hardness	Reduced Mod.
[#]	[#]	[um]	[s]	[um]	[um]	[um]	[m°]	[m°]	[um]	[uN]	[uN]	[V]	[V]	[V]	[°C]	[uN]	[um]	[N/m]	[°]	[°]	[uN]	[um]	[um]	[um]	[uN]	[N/m]	[um]	[um^2]	[MPa]	[MPa]
46	1.000000	0.002734	7.36549e+06	-40939.1	955.819	-29788.7	0.000000	0.000000	6.002813	-0.038915	NaN	0.000000	0.001597	0.001710	28.12	0.159022	0.000903	176.143	-58.9884	-167.51	0.039399	0.001514	-1.069285	-1.070506	-0.038915	176.143	-1.069120	-1.929131E+14	2.017221E-16	NaN
46	1.000000	0.010693	7.36549e+06	-40939.1	955.819	-29788.7	0.000000	0.000000	6.010775	0.056860	NaN	0.000000	0.001611	0.001682	28.1196	0.032060	0.001055	30.3779	119.811	-166.146	0.036824	0.009343	-1.061327	-1.062677	0.056860	30.3779	-1.062731	-1.583131E+14	-3.591638E-16	NaN
46	1.000000	0.018694	7.36549e+06	-40939.1	955.818	-29788.7	0.000000	0.000000	6.018776	0.044155	NaN	0.000000	0.001577	0.001700	28.1191	0.133378	0.001751	76.1712	3.673404	-167.229	-0.009763	0.017378	-1.053325	-1.054642	0.044155	76.1712	-1.053760	-1.199384E+14	-3.681502E-16	NaN
46	1.000000	0.026718	7.36549e+06	-40939.1	955.819	-29788.7	0.000000	0.000000	6.026797	-0.031211	NaN	0.000000	0.001579	0.001713	28.119	0.022367	0.001790	12.4989	-133.184	-165.881	-0.016247	0.025369	-1.045302	-1.046651	-0.031211	12.4989	-1.043429	-8.711139E+13	3.582874E-16	NaN
46	1.000000	0.034683	7.36549e+06	-40939.1	955.818	-29788.7	0.000000	0.000000	6.034762	-0.024139	NaN	0.000000	0.001626	0.001704	28.1197	0.043135	0.001722	25.0477	130.492	-165.393	-0.028619	0.033370	-1.037337	-1.038650	-0.024139	25.0477	-1.036614	-7.054009E+13	3.422085E-16	NaN
46	1.000000	0.042688	7.36549e+06	-40939.1	955.818	-29788.7	0.000000	0.000000	6.042770	0.043804	NaN	0.000000	0.001581	0.001734	28.1193	0.040216	0.002073	19.404	68.6123	-167.304	0.022401	0.041349	-1.029332	-1.030670	0.043804	19.404	-1.031025	-5.932861E+13	-7.383314E-16	NaN
46	1.000000	0.050689	7.36549e+06	-40939.1	955.819	-29788.7	0.000000	0.000000	6.050772	0.057246	NaN	0.000000	0.001607	0.001704	28.1202	0.066386	0.001957	33.9159	-42.773	-168.301	0.056182	0.049395	-1.021331	-1.022624	0.057246	33.9159	-1.022597	-4.569727E+13	-1.252721E-15	NaN
46	1.000000	0.058669	7.36549e+06	-40939.1	955.818	-29788.7	0.000000	0.000000	6.058750	0.032293	NaN	0.000000	0.001600	0.001720	28.1199	0.057365	0.002107	27.2233	153.094	-167.158	0.003091	0.057301	-1.013351	-1.014718	0.032293	27.2233	-1.014241	-3.527382E+13	-9.155014E-16	NaN
46	1.000000	0.066664	7.36549e+06	-40939.1	955.818	-29788.7	0.000000	0.000000	6.066746	0.050701	NaN	0.000000	0.001605	0.001707	28.1197	0.045439	0.001963	23.1498	-1.767859	-165.064	0.029403	0.065337	-1.005356	-1.006683	0.050701	23.1498	-1.006999	-2.818277E+13	-1.798992E-15	NaN
46	1.000000	0.074687	7.36549e+06	-40939.1	955.818	-29788.7	0.000000	0.000000	6.074767	-0.008530	NaN	0.000000	0.001645	0.001697	28.1211	0.080250	0.001875	42.8028	178.477	-161.595	0.054663	0.073353	-0.997332	-0.998666	-0.008530	42.8028	-0.997183	-2.078928E+13	4.103101E-16	NaN
46	1.000000	0.082709	7.36549e+06	-40939.1	955.818	-29788.7	0.000000	0.000000	6.082791	0.034282	NaN	0.000000	0.001588	0.001740	28.121	0.114732	0.002063	55.6113	66.4518	-165.661	0.070216	0.081370	-0.989311	-0.990649	0.034282	55.6113	-0.989773	-1.652165E+13	-2.074962E-15	NaN
46	1.000000	0.090697	7.36549e+06	-40939.1	955.818	-29788.7	0.000000	0.000000	6.090780	0.047599	NaN	0.000000	0.001550	0.001717	28.1202	0.031144	0.002047	15.2132	97.9339	-166.192	0.023345	0.089366	-0.981322	-0.982654	0.047599	15.2132	-0.983669	-1.367216E+13	-3.481454E-15	NaN
46	1.000000	0.098666	7.36549e+06	-40939.1	955.817	-29788.7	0.000000	0.000000	6.098745	-0.040566	NaN	0.000000	0.001584	0.001768	28.1197	0.038570	0.001999	19.2919	19.8038	-165.872	-0.019538	0.097398	-0.973354	-0.974622	-0.040566	19.2919	-0.971777	-9.453832E+12	4.290964E-15	NaN
46	1.000000	0.106706	7.36549e+06	-40939.1	955.818	-29788.7	0.000000	0.000000	6.106788	0.037541	NaN	0.000000	0.001590	0.001730	28.1198	0.011280	0.001997	5.649021	-118.008	-163.916	0.013048	0.105377	-0.965314	-0.966643	0.037541	5.649021	-0.970298	-9.029854E+12	-4.157468E-15	NaN
46	1.000000	0.114717	7.36549e+06	-40939.1	955.817	-29788.7	0.000000	0.000000	6.114800	0.039334	NaN	0.000000	0.001561	0.001675	28.1201	0.044268	0.001955	22.639	172.345	-164.298	0.030465	0.113405	-0.957302	-0.958614	0.039334	22.639	-0.958605	-6.281509E+12	-6.261861E-15	NaN
46	1.000000	0.122702	7.36549e+06	-40939.1	955.818	-29788.7	0.000000	0.000000	6.122782	0.002432	NaN	0.000000	0.001589	0.001698	28.1198	0.084128	0.002043	41.174	40.0419	-163.932	-0.013670	0.121418	-0.949318	-0.950601	0.002432	41.174	-0.949362	-4.714374E+12	-5.159036E-16	NaN
46	1.000000	0.130706	7.36549e+06	-40939.1	955.818	-29788.7	0.000000	0.000000	6.130787	0.006609	NaN	0.000000	0.001565	0.001661	28.12	0.051957	0.001931	26.901	-120.93	-165.954	-0.071739	0.129383	-0.941314	-0.942636	0.006609	26.901	-0.941498	-3.692709E+12	-1.789696E-15	NaN
46	1.000000	0.138688	7.36549e+06	-40939.1	955.818	-29788.7	0.000000	0.000000	6.138772	0.066943	NaN	0.000000	0.001526	0.001670	28.1216	0.046974	0.001984	23.6789	130.187	-166.46	0.115049	0.137350	-0.933331	-0.934669	0.066943	23.6789	-0.935452	-3.060314E+12	-2.187469E-14	NaN
46	1.000000	0.146707	7.36549e+06	-40939.1	955.818	-29788.7	0.000000	0.000000	6.146789	0.017115	NaN	0.000000	0.001585	0.001722	28.1211	0.055505	0.002054	27.0254	177.103	-167.084	-0.052482	0.145398	-0.925312	-0.926621	0.017115	27.0254	-0.925787	-2.266383E+12	-7.551674E-15	NaN
46	1.000000	0.154710	7.36549e+06	-40939.1	955.818	-29788.7	0.000000	0.000000	6.154792	0.035406	NaN	0.000000	0.001597	0.001699	28.1213	0.068164	0.001982	34.3844	-75.7524	-167.508	0.035062	0.153419	-0.917309	-0.918600	0.035406	34.3844	-0.918082	-1.783619E+12	-1.985087E-14	NaN
46	1.000000	0.162702	7.36549e+06	-40939.1	955.818	-29788.7	0.000000	0.000000	6.162786	0.077396	NaN	0.000000	0.001574	0.001729	28.1208	0.116214	0.002038	57.0125	66.4772	-164.584	-0.004824	0.161427	-0.909317	-0.910593	0.077396	57.0125	-0.910335	-1.401820E+12	-5.521080E-14	NaN
46	1.000000	0.170724	7.36549e+06	-40939.1	955.818	-29788.7	0.000000	0.000000	6.170803	-0.037743	NaN	0.000000	0.001615	0.001732	28.1198	0.066744	0.001985	33.6171	157.799	-164.999	0.020818	0.169424	-0.901295	-0.902595	-0.037743	33.6171	-0.900453	-1.030835E+12	3.661398E-14	NaN
46	1.000000	0.178705	7.36549e+06	-40939.1	955.818	-29788.7	0.000000	0.000000	6.178787	0.051840	NaN	0.000000	0.001630	0.001726	28.1197	0.117200	0.001979	59.2342	166.562	-166.411	0.006952	0.177401	-0.893315	-0.894619	0.051840	59.2342	-0.893971	-8.425473E+11	-6.152765E-14	NaN
46	1.000000	0.186725	7.36549e+06	-40939.1	955.818	-29788.7	0.000000	0.000000	6.186807	0.040145	NaN	0.000000	0.001625	0.001684	28.1188	0.075849	0.002040	37.1824	152.601	-167.712	0.035670	0.185418	-0.885294	-0.886601	0.040145	37.1824	-0.886104	-6.595469E+11	-6.086811E-14	NaN
46	1.000000	0.194758	7.36549e+06	-40939.1	955.818	-29788.7	0.000000	0.000000	6.194841	0.081669	NaN	0.000000	0.001589	0.001725	28.1201	0.046069	0.001985	23.209	88.8595	-168.406	0.064435	0.193375	-0.877262	-0.878645	0.081669	23.209	-0.879901	-5.437142E+11	-1.502064E-13	NaN
46	1.000000	0.202715	7.36549e+06	-40939.1	955.819	-29788.7	0.000000	0.000000	6.202797	0.040520	NaN	0.000000	0.001608	0.001714	28.1197	0.039525	0.001987	19.8913	-106.914	-166.128	-0.004261	0.201428	-0.869304	-0.870591	0.040520	19.8913	-0.870832	-4.099226E+11	-9.884803E-14	NaN
46	1.000000	0.210738	7.36549e+06	-40939.1	955.817	-29788.7	0.000000	0.000000	6.210820	0.035541	NaN	0.000000	0.001608	0.001669	28.118	0.097120	0.002075	46.8124	25.2401	-163.359	0.025118	0.209380	-0.861281	-0.862639	0.035541	46.8124	-0.861851	-3.098638E+11	-1.146987E-13	NaN
46	1.000000	0.218710	7.36549e+06	-40939.1	955.818	-29788.7	0.000000	0.000000	6.218788	-0.052131	NaN	0.000000	0.001613	0.001757	28.1186	0.046876	0.002014	23.2755	-66.2632	-164.157	-0.033747	0.217425	-0.853309	-0.854594	-0.052131	23.2755	-0.851630	-2.253224E+11	2.313615E-13	NaN
46	1.000000	0.226746	7.36549e+06	-40939.1	955.818	-29788.7	0.000000	0.000000	6.226827	0.011402	NaN	0.000000	0.001617	0.001710	28.1189	0.024440	0.002096	11.6577	-93.6017	-170.292	0.028624	0.225414	-0.845273	-0.846606	0.011402	11.6577	-0.846007	-1.890869E+11	-6.029979E-14	NaN
46	1.000000	0.234739	7.36549e+06	-40939.1	955.818	-29788.7	0.000000	0.000000	6.234820	0.021727	NaN	0.000000	0.001618	0.001704	28.1193	0.088959	0.002022	43.9925	35.6308	-168.346	0.075026	0.233460	-0.837281	-0.838560	0.021727	43.9925	-0.837651	-1.457035E+11	-1.491148E-13	NaN
46	1.000000	0.242769	7.36549e+06	-40939.1	955.818	-29788.7	0.000000	0.000000	6.242849	0.003240	NaN	0.000000	0.001631	0.001698	28.1194	0.051844	0.001982	26.1597	-28.7354	-166.667	0.022666	0.241397	-0.829251	-0.830622	0.003240	26.1597	-0.829344	-1.124317E+11	-2.881418E-14	NaN
46	1.000000	0.250745	7.36549e+06	-40939.1	955.817	-29788.7	0.000000	0.000000	6.250823	-0.044111	NaN	0.000000	0.001597	0.001702	28.1184	0.125509	0.001943	64.6035	9.240618	-167.223	-0.005403	0.249423	-0.821275	-0.822597	-0.044111	64.6035	-0.820763	-8.601098E+10	5.128498E-13	NaN
46	1.000000	0.258764	7.36549e+06	-40939.1	955.818	-29788.7	0.000000	0.000000	6.258844	0.006401	NaN	0.000000	0.001581	0.001723	28.118	0.166569	0.002012	82.7873	-26.2468	-168.774	-0.012672	0.257473	-0.813256	-0.814546	0.006401	82.7873	-0.813314	-6.816007E+10	-9.391016E-14	NaN
46	1.000000	0.266745	7.36549e+06	-40939.1	955.819	-29788.7	0.000000	0.000000	6.266828	0.048843	NaN	0.000000	0.001606	0.001669	28.1175	0.113864	0.002002	56.8661	-100.048	-166.861	0.089209	0.265481	-0.805274	-0.806538	0.048843	56.8661	-0.805919	-5.409924E+10	-9.028435E-13	NaN
46	1.000000	0.274772	7.36549e+06	-40939.1	955.818	-29788.7	0.000000	0.000000	6.274852	0.009347	NaN	0.000000	0.001633	0.001701	28.1178	0.042897	0.002029	21.1388	91.3288	-164.508	0.035886	0.273419	-0.797248	-0.798600	0.009347	21.1388	-0.797580	-4.168741E+10	-2.242062E-13	NaN
46	1.000000	0.282736	7.36549e+06	-40939.1	955.817	-29788.7	0.000000	0.000000	6.282815	-0.030875	NaN	0.000000	0.001603	0.001727	28.1184	0.095734	0.001737	55.1266	151.139	-163.763	-0.074342	0.281437	-0.789284	-0.790582	-0.030875	55.1266	-0.788864	-3.174344E+10	9.726482E-13	NaN
46	1.000000	0.290787	7.36549e+06	-40939.1	955.818	-29788.7	0.000000	0.000000	6.290868	0.021781	NaN	0.000000	0.001575	0.001694	28.1188	0.035801	0.001903	18.8128	-138.058	-167.753	0.086480	0.289464	-0.781232	-0.782556	0.021781	18.8128	-0.782101	-2.569081E+10	-8.478291E-13	NaN
46	1.000000	0.298790	7.36549e+06	-40939.1	955.819	-29788.7	0.000000	0.000000	6.298871	0.029483	NaN	0.000000	0.001603	0.001729	28.119	0.067502	0.002026	33.3117	-90.0092	-160.41	0.088609	0.297488	-0.773230	-0.774532	0.029483	33.3117	-0.773894	-1.987186E+10	-1.483641E-12	NaN
46	1.000000	0.306799	7.36549e+06	-40939.1	955.819	-29788.7	0.000000	0.000000	6.306879	-0.029406	NaN	0.000000	0.001580	0.001737	28.1192	0.109419	0.001952	56.0476	45.9053	-165.541	0.013554	0.305467	-0.765220	-0.766552	-0.029406	56.0476	-0.764827	-1.496088E+10	1.965526E-12	NaN
46	1.000000	0.314792	7.36549e+06	-40939.1	955.818	-29788.7	0.000000	0.000000	6.314871	-0.026190	NaN	0.000000	0.001610	0.001737	28.1186	0.073963	0.002002	36.9513	48.4595	-163.425	0.029656	0.313473	-0.757228	-0.758547	-0.026190	36.9513	-0.756696	-1.159715E+10	2.258282E-12	NaN
46	1.000000	0.322779	7.36549e+06	-40939.1	955.818	-29788.7	0.000000	0.000000	6.322858	-0.033889	NaN	0.000000	0.001618	0.001728	28.1195	0.099449	0.001941	51.2416	-119.417	-162.937	0.046670	0.321446	-0.749241	-0.750574	-0.033889	51.2416	-0.748745	-9.039280E+9	3.749083E-12	NaN
46	1.000000	0.330795	7.36549e+06	-40939.1	955.818	-29788.7	0.000000	0.000000	6.330876	0.005566	NaN	0.000000	0.001615	0.001703	28.1181	0.062150	0.001931	32.1822	-85.3189	-167.737	-0.015449	0.329485	-0.741224	-0.742535	0.005566	32.1822	-0.741354	-7.169689E+9	-7.762997E-13	NaN
46	1.000000	0.338796	7.36549e+06	-40939.1	955.819	-29788.7	0.000000	0.000000	6.338878	0.039530	NaN	0.000000	0.001593	0.001681	28.1177	0.106122	0.002017	52.6204	-71.6252	-162.775	0.053281	0.337442	-0.733223	-0.734578	0.039530	52.6204	-0.733787	-5.654703E+9	-6.990580E-12	NaN
46	1.000000	0.346803	7.36549e+06	-40939.1	955.818	-29788.7	0.000000	0.000000	6.346885	0.033015	NaN	0.000000	0.001589	0.001690	28.119	0.131107	0.001976	66.3332	65.8165	-161.986	0.131569	0.345483	-0.725217	-0.726537	0.033015	66.3332	-0.725590	-4.372172E+9	-7.551251E-12	NaN
46	1.000000	0.354813	7.36549e+06	-40939.1	955.818	-29788.7	0.000000	0.000000	6.354893	-0.017120	NaN	0.000000	0.001593	0.001676	28.1189	0.025881	0.002024	12.7891	-58.6618	-162.033	-0.079786	0.353536	-0.717206	-0.718484	-0.017120	12.7891	-0.716202	-3.255910E+9	5.258012E-12	NaN
46	1.000000	0.362797	7.36549e+06	-40939.1	955.818	-29788.7	0.000000	0.000000	6.362881	0.074620	NaN	0.000000	0.001598	0.001739	28.1192	0.035227	0.002049	17.194	-84.1728	-167.621	0.107997	0.361522	-0.709223	-0.710498	0.074620	17.194	-0.712477	-2.896382E+9	-2.576306E-11	NaN
46	1.000000	0.370832	7.36549e+06	-40939.1	955.818	-29788.7	0.000000	0.000000	6.370915	0.044670	NaN	0.000000	0.001584	0.001724	28.1193	0.067960	0.001943	34.9793	-33.7598	-165.035	0.058700	0.369491	-0.701187	-0.702528	0.044670	34.9793	-0.702145	-2.093250E+9	-2.134013E-11	NaN
46	1.000000	0.378815	7.36549e+06	-40939.1	955.818	-29788.7	0.000000	0.000000	6.378895	-0.020327	NaN	0.000000	0.001605	0.001717	28.1202	0.015831	0.001995	7.934848	-109.16	-166.463	-0.005507	0.377504	-0.693204	-0.694515	-0.020327	7.934848	-0.691283	-1.487481E+9	1.366522E-11	NaN
46	1.000000	0.386823	7.36549e+06	-40939.1	955.818	-29788.7	0.000000	0.000000	6.386906	0.067729	NaN	0.000000	0.001614	0.001702	28.1191	0.069257	0.001974	35.0794	-114.155	-162.418	0.127045	0.385537	-0.685197	-0.686482	0.067729	35.0794	-0.686645	-1.285468E+9	-5.268844E-11	NaN
46	1.000000	0.394821	7.36549e+06	-40939.1	955.818	-29788.7	0.000000	0.000000	6.394901	-0.030462	NaN	0.000000	0.001595	0.001704	28.1193	0.065095	0.001987	32.7677	-60.6192	-164.756	-0.050723	0.393507	-0.677198	-0.678512	-0.030462	32.7677	-0.676501	-9.339930E+8	3.261480E-11	NaN
46	1.000000	0.402832	7.36549e+06	-40939.1	955.819	-29788.7	0.000000	0.000000	6.402914	0.037693	NaN	0.000000	0.001589	0.001719	28.1198	0.048637	0.002021	24.0717	72.9868	-167.524	0.075599	0.401497	-0.669187	-0.670523	0.037693	24.0717	-0.670362	-7.697361E+8	-4.896818E-11	NaN
46	1.000000	0.410835	7.36549e+06	-40939.1	955.817	-29788.7	0.000000	0.000000	6.410913	-0.053359	NaN	0.000000	0.001627	0.001709	28.1184	0.087614	0.001886	46.4659	-84.941	-169.128	0.037808	0.409492	-0.661184	-0.662528	-0.053359	46.4659	-0.660323	-5.609113E+8	9.512946E-11	NaN
46	1.000000	0.418814	7.36549e+06	-40939.1	955.818	-29788.7	0.000000	0.000000	6.418892	-0.066884	NaN	0.000000	0.001579	0.001634	28.1185	0.046879	0.001968	23.8225	-118.746	-164.327	-0.040187	0.417492	-0.653205	-0.654528	-0.066884	23.8225	-0.651100	-4.192873E+8	1.595187E-10	NaN
46	1.000000	0.426846	7.36549e+06	-40939.1	955.818	-29788.7	0.000000	0.000000	6.426928	0.036971	NaN	0.000000	0.001610	0.001653	28.1186	0.097766	0.001906	51.2899	59.5553	-166.303	-0.009841	0.425525	-0.645173	-0.646495	0.036971	51.2899	-0.645714	-3.537275E+8	-1.045191E-10	NaN
46	1.000000	0.434832	7.36549e+06	-40939.1	955.819	-29788.7	0.000000	0.000000	6.434915	0.066359	NaN	0.000000	0.001602	0.001634	28.1183	0.068041	0.002048	33.2178	156.367	-165.87	0.112774	0.433483	-0.637188	-0.638537	0.066359	33.2178	-0.638686	-2.833113E+8	-2.342261E-10	NaN
46	1.000000	0.442849	7.36549e+06	-40939.1	955.818	-29788.7	0.000000	0.000000	6.442932	0.070891	NaN	0.000000	0.001607	0.001644	28.1183	0.050726	0.002003	25.3192	-123.866	-164.206	0.050712	0.441539	-0.629171	-0.630480	0.070891	25.3192	-0.631271	-2.241168E+8	-3.163141E-10	NaN
46	1.000000	0.450842	7.36549e+06	-40939.1	955.819	-29788.7	0.000000	0.000000	6.450922	0.000342	NaN	0.000000	0.001595	0.001630	28.1187	0.069295	0.002021	34.2943	-113.332	-167.755	-0.006921	0.449571	-0.621178	-0.622448	0.000342	34.2943	-0.621185	-1.629003E+8	-2.099152E-12	NaN
46	1.000000	0.458847	7.36549e+06	-40939.1	955.818	-29788.7	0.000000	0.000000	6.458927	-0.015047	NaN	0.000000	0.001587	0.001639	28.119	0.091240	0.002017	45.2409	-120.358	-167.337	-0.088903	0.457562	-0.613173	-0.614458	-0.015047	45.2409	-0.612923	-1.254086E+8	1.199862E-10	NaN
46	1.000000	0.466854	7.36549e+06	-40939.1	955.817	-29788.7	0.000000	0.000000	6.466932	-0.047940	NaN	0.000000	0.001583	0.001648	28.1185	0.080529	0.002039	39.488	75.1828	-167.601	-0.031738	0.465548	-0.605166	-0.606472	-0.047940	39.488	-0.604255	-9.529146E+7	5.030898E-10	NaN
46	1.000000	0.474854	7.36549e+06	-40939.1	955.819	-29788.7	0.000000	0.000000	6.474933	-0.029971	NaN	0.000000	0.001592	0.001670	28.1191	0.094211	0.001967	47.9071	47.2039	-166.642	-0.062389	0.473535	-0.597166	-0.598484	-0.029971	47.9071	-0.596696	-7.498179E+7	3.997066E-10	NaN
46	1.000000	0.482828	7.36549e+06	-40939.1	955.818	-29788.7	0.000000	0.000000	6.482907	-0.026245	NaN	0.000000	0.001581	0.001664	28.1182	0.049688	0.001937	25.6473	-165.128	-163.729	0.107820	0.481503	-0.589192	-0.590517	-0.026245	25.6473	-0.588424	-5.766851E+7	4.550973E-10	NaN
46	1.000000	0.490837	7.36549e+06	-40939.1	955.818	-29788.7	0.000000	0.000000	6.490918	0.008018	NaN	0.000000	0.001644	0.001636	28.117	0.075688	0.001860	40.6916	-129.049	-164.365	-0.004175	0.489519	-0.581182	-0.582500	0.008018	40.6916	-0.581330	-4.603431E+7	-1.741688E-10	NaN
46	1.000000	0.498853	7.36549e+06	-40939.1	955.817	-29788.7	0.000000	0.000000	6.498936	0.064776	NaN	0.000000	0.001599	0.001665	28.117	0.105072	0.001983	52.981	-121.479	-163.382	0.028544	0.497597	-0.573166	-0.574423	0.064776	52.981	-0.574083	-3.656292E+7	-1.771638E-9	NaN
46	1.000000	0.506882	7.36549e+06	-40939.1	955.818	-29788.7	0.000000	0.000000	6.506962	-0.003772	NaN	0.000000	0.001612	0.001664	28.1167	0.098843	0.002070	47.7551	-150.062	-168.248	0.014422	0.505497	-0.565138	-0.566523	-0.003772	47.7551	-0.565078	-2.745416E+7	1.374005E-10	NaN
46	1.000000	0.514850	7.36549e+06	-40939.1	955.818	-29788.7	0.000000	0.000000	6.514931	0.007230	NaN	0.000000	0.001599	0.001664	28.1167	0.128993	0.001989	64.867	158.739	-167.412	0.094416	0.513567	-0.557169	-0.558453	0.007230	64.867	-0.557253	-2.139790E+7	-3.378659E-10	NaN
46	1.000000	0.522877	7.36549e+06	-40939.1	955.818	-29788.7	0.000000	0.000000	6.522955	-0.052352	NaN	0.000000	0.001650	0.001690	28.1166	0.128842	0.001939	66.4417	68.4175	-165.306	-0.002840	0.521604	-0.549143	-0.550416	-0.052352	66.4417	-0.548552	-1.621421E+7	3.228803E-9	NaN
46	1.000000	0.530860	7.36549e+06	-40939.1	955.817	-29788.7	0.000000	0.000000	6.530943	0.070436	NaN	0.000000	0.001647	0.001662	28.1173	0.047094	0.001985	23.7247	10.5621	-168.901	0.120710	0.529578	-0.541160	-0.542442	0.070436	23.7247	-0.543387	-1.375040E+7	-5.122454E-9	NaN
46	1.000000	0.538878	7.36549e+06	-40939.1	955.818	-29788.7	0.000000	0.000000	6.538959	0.029994	NaN	0.000000	0.001612	0.001655	28.1173	0.076700	0.001888	40.632	59.9224	-163.064	0.042126	0.537583	-0.533142	-0.534436	0.029994	40.632	-0.533696	-1.008985E+7	-2.972656E-9	NaN
46	1.000000	0.546891	7.36549e+06	-40939.1	955.818	-29788.7	0.000000	0.000000	6.546971	-0.008138	NaN	0.000000	0.001595	0.001653	28.1181	0.140660	0.001973	71.2778	66.665	-166.78	-0.029116	0.545555	-0.525128	-0.526464	-0.008138	71.2778	-0.525043	-7.65074e+06	1.063724E-9	NaN
46	1.000000	0.554891	7.36549e+06	-40939.1	955.819	-29788.7	0.000000	0.000000	6.554973	0.038422	NaN	0.000000	0.001587	0.001622	28.117	0.027007	0.002038	13.2518	72.655	-166.31	0.009966	0.553560	-0.517128	-0.518459	0.038422	13.2518	-0.519303	-6.36649e+06	-6.034992E-9	NaN
46	1.000000	0.562869	7.36549e+06	-40939.1	955.819	-29788.7	0.000000	0.000000	6.562950	0.014377	NaN	0.000000	0.001618	0.001626	28.1174	0.012373	0.002043	6.055172	38.549	-168.921	0.026490	0.561584	-0.509150	-0.510435	0.014377	6.055172	-0.510931	-4.86835e+06	-2.953078E-9	NaN
46	1.000000	0.570915	7.36549e+06	-40939.1	955.819	-29788.7	0.000000	0.000000	6.570998	0.041185	NaN	0.000000	0.001602	0.001659	28.1166	0.090183	0.001933	46.6509	133.12	-165.814	0.048539	0.569639	-0.501104	-0.502380	0.041185	46.6509	-0.501766	-3.6279e+06	-1.135222E-8	NaN
46	1.000000	0.578902	7.36549e+06	-40939.1	955.818	-29788.7	0.000000	0.000000	6.578980	-0.043099	NaN	0.000000	0.001622	0.001641	28.1158	0.079931	0.001910	41.8514	75.2656	-164.25	0.030658	0.577628	-0.493118	-0.494392	-0.043099	41.8514	-0.492345	-2.68017e+06	1.608076E-8	NaN
46	1.000000	0.586898	7.36549e+06	-40939.1	955.818	-29788.7	0.000000	0.000000	6.586978	-0.014445	NaN	0.000000	0.001614	0.001640	28.117	0.046861	0.001912	24.5126	50.3818	-168.32	-0.045750	0.585587	-0.485121	-0.486432	-0.014445	24.5126	-0.484679	-2.09413e+06	6.898092E-9	NaN
46	1.000000	0.594867	7.36549e+06	-40939.1	955.818	-29788.7	0.000000	0.000000	6.594944	-0.074659	NaN	0.000000	0.001607	0.001607	28.1157	0.065043	0.001980	32.8563	33.7031	-167.489	-0.078882	0.593596	-0.477153	-0.478424	-0.074659	32.8563	-0.475449	-1.5552e+06	4.800638E-8	NaN
46	1.000000	0.602877	7.36549e+06	-40939.1	955.818	-29788.7	0.000000	0.000000	6.602959	0.038793	NaN	0.000000	0.001609	0.001620	28.1167	0.041968	0.002054	20.4304	-79.4788	-164.305	0.044220	0.601564	-0.469142	-0.470455	0.038793	20.4304	-0.470566	-1.32847e+06	-2.920164E-8	NaN
46	1.000000	0.610912	7.36549e+06	-40939.1	955.817	-29788.7	0.000000	0.000000	6.610994	0.043289	NaN	0.000000	0.001638	0.001577	28.1168	0.045674	0.002129	21.4535	-178.285	-167.994	0.101221	0.609592	-0.461108	-0.462428	0.043289	21.4535	-0.462621	-1.02765e+06	-4.212445E-8	NaN
46	1.000000	0.618914	7.36549e+06	-40939.1	955.817	-29788.7	0.000000	0.000000	6.618993	-0.051873	NaN	0.000000	0.001632	0.001609	28.1175	0.072891	0.002058	35.4133	-87.4545	-171.514	0.030384	0.617620	-0.453105	-0.454399	-0.051873	35.4133	-0.452007	-728775	7.117873E-8	NaN
46	1.000000	0.626906	7.36549e+06	-40939.1	955.817	-29788.7	0.000000	0.000000	6.626984	-0.042855	NaN	0.000000	0.001628	0.001623	28.119	0.134553	0.002069	65.028	57.5318	-166.533	-0.014200	0.625593	-0.445114	-0.446427	-0.042855	65.028	-0.444620	-573493	7.472678E-8	NaN
46	1.000000	0.634916	7.36549e+06	-40939.1	955.818	-29788.7	0.000000	0.000000	6.634997	0.030837	NaN	0.000000	0.001622	0.001623	28.1181	0.111155	0.002008	55.35	-144.008	-167.429	-0.012939	0.633636	-0.437104	-0.438384	0.030837	55.35	-0.437522	-455383	-6.771763E-8	NaN
46	1.000000	0.642948	7.36549e+06	-40939.1	955.819	-29788.7	0.000000	0.000000	6.643031	0.060623	NaN	0.000000	0.001541	0.001604	28.1186	0.026231	0.001974	13.2872	111.013	-166.281	-0.035021	0.641667	-0.429071	-0.430353	0.060623	13.2872	-0.432493	-386652	-1.567887E-7	NaN
46	1.000000	0.650939	7.36549e+06	-40939.1	955.817	-29788.7	0.000000	0.000000	6.651023	0.088950	NaN	0.000000	0.001552	0.001643	28.1178	0.098262	0.001906	51.5558	-83.9234	-163.268	0.046302	0.649631	-0.421081	-0.422388	0.088950	51.5558	-0.422375	-278026	-3.199336E-7	NaN
46	1.000000	0.658912	7.36549e+06	-40939.1	955.819	-29788.7	0.000000	0.000000	6.658994	0.026745	NaN	0.000000	0.001527	0.001637	28.1166	0.047151	0.002065	22.8334	-170.302	-168.388	0.055780	0.657611	-0.413107	-0.414409	0.026745	22.8334	-0.413986	-211371	-1.265289E-7	NaN
46	1.000000	0.666937	7.3655e+06	-40939.1	955.819	-29788.7	0.000000	0.000000	6.667017	-0.015911	NaN	0.000000	0.001526	0.001643	28.1179	0.087395	0.001832	47.7011	51.8921	-165.783	-0.011586	0.665657	-0.405082	-0.406363	-0.015911	47.7011	-0.404832	-156622	1.015898E-7	NaN
46	1.000000	0.674941	7.3655e+06	-40939.1	955.818	-29788.7	0.000000	0.000000	6.675021	0.004723	NaN	0.000000	0.001545	0.001663	28.1172	0.108538	0.001901	57.0821	-109.575	-167.687	0.019969	0.673591	-0.397079	-0.398429	0.004723	57.0821	-0.397141	-121675	-3.881288E-8	NaN
46	1.000000	0.682942	7.3655e+06	-40939.1	955.819	-29788.7	0.000000	0.000000	6.683026	0.084903	NaN	0.000000	0.001549	0.001622	28.117	0.054513	0.001897	28.7301	-53.0184	-165.177	0.132003	0.681669	-0.389077	-0.390350	0.084903	28.7301	-0.391294	-100385	-8.457777E-7	NaN
46	1.000000	0.690961	7.3655e+06	-40939.1	955.818	-29788.7	0.000000	0.000000	6.691040	-0.026679	NaN	0.000000	0.001575	0.001644	28.1177	0.067173	0.002058	32.6408	169.373	-166.269	-0.007354	0.689664	-0.381059	-0.382355	-0.026679	32.6408	-0.380446	-70191.8	3.800877E-7	NaN
46	1.000000	0.698928	7.3655e+06	-40939.1	955.819	-29788.7	0.000000	0.000000	6.699009	0.010319	NaN	0.000000	0.001578	0.001671	28.1178	0.050249	0.002153	23.3418	-144.432	-164.172	0.052057	0.697635	-0.373091	-0.374384	0.010319	23.3418	-0.373423	-55640.4	-1.854556E-7	NaN
46	1.000000	0.706924	7.3655e+06	-40939.1	955.818	-29788.7	0.000000	0.000000	6.707007	0.071262	NaN	0.000000	0.001539	0.001624	28.1179	0.037261	0.001961	19.0048	101.093	-165.573	0.022262	0.705608	-0.365096	-0.366412	0.071262	19.0048	-0.367908	-46343.8	-1.537676E-6	NaN
46	1.000000	0.714966	7.3655e+06	-40939.1	955.818	-29788.7	0.000000	0.000000	6.715046	-0.020705	NaN	0.000000	0.001589	0.001676	28.1177	0.112719	0.001940	58.0925	-164.725	-167.895	0.035397	0.713628	-0.357053	-0.358391	-0.020705	58.0925	-0.356786	-32015.2	6.467196E-7	NaN
46	1.000000	0.722940	7.3655e+06	-40939.1	955.819	-29788.7	0.000000	0.000000	6.723024	0.076060	NaN	0.000000	0.001612	0.001629	28.118	0.050439	0.001898	26.5704	-51.6181	-164.795	0.013318	0.721670	-0.349079	-0.350350	0.076060	26.5704	-0.351226	-26594.8	-2.859953E-6	NaN
46	1.000000	0.730946	7.3655e+06	-40939.1	955.817	-29788.7	0.000000	0.000000	6.731027	0.013268	NaN	0.000000	0.001595	0.001675	28.1175	0.057502	0.001937	29.6828	53.1764	-168.732	-0.005063	0.729645	-0.341073	-0.342374	0.013268	29.6828	-0.341408	-19146	-6.930057E-7	NaN
46	1.000000	0.738969	7.3655e+06	-40939.1	955.818	-29788.7	0.000000	0.000000	6.739050	0.013342	NaN	0.000000	0.001586	0.001660	28.1162	0.023069	0.001935	11.9196	168.113	-163.926	-0.038317	0.737629	-0.333051	-0.334391	0.013342	11.9196	-0.333890	-14871.9	-8.971159E-7	NaN
46	1.000000	0.746982	7.3655e+06	-40939.1	955.818	-29788.7	0.000000	0.000000	6.747063	0.013567	NaN	0.000000	0.001546	0.001656	28.1165	0.054404	0.002050	26.5439	-153.15	-161.525	-0.010724	0.745641	-0.325038	-0.326378	0.013567	26.5439	-0.325421	-11176.7	-1.213856E-6	NaN
46	1.000000	0.754941	7.3655e+06	-40939.1	955.817	-29788.7	0.000000	0.000000	6.755023	0.046917	NaN	0.000000	0.001552	0.001652	28.1156	0.065527	0.002066	31.7183	-140.769	-167.507	0.016998	0.753644	-0.317079	-0.318376	0.046917	31.7183	-0.318188	-8748.98	-5.362608E-6	NaN
46	1.000000	0.762962	7.3655e+06	-40939.1	955.818	-29788.7	0.000000	0.000000	6.763043	0.016490	NaN	0.000000	0.001590	0.001645	28.1153	0.035038	0.002067	16.9509	-166.79	-166.307	0.064404	0.761692	-0.309058	-0.310328	0.016490	16.9509	-0.309788	-6575.25	-2.507844E-6	NaN
46	1.000000	0.770976	7.3655e+06	-40939.1	955.817	-29788.7	0.000000	0.000000	6.771056	-0.013382	NaN	0.000000	0.001575	0.001649	28.1162	0.041064	0.001987	20.667	-78.8484	-167.158	0.026946	0.769695	-0.301043	-0.302325	-0.013382	20.667	-0.300558	-4796.65	2.789788E-6	NaN
46	1.000000	0.778970	7.3655e+06	-40939.1	955.819	-29788.7	0.000000	0.000000	6.779051	0.002191	NaN	0.000000	0.001560	0.001638	28.1161	0.029055	0.002038	14.2534	-55.1835	-168.09	-0.020253	0.777649	-0.293050	-0.294370	0.002191	14.2534	-0.293165	-3721.06	-5.886843E-7	NaN
46	1.000000	0.786979	7.3655e+06	-40939.1	955.818	-29788.7	0.000000	0.000000	6.787058	-0.024773	NaN	0.000000	0.001562	0.001604	28.1161	0.077667	0.002015	38.5539	-87.458	-167.749	-0.037465	0.785665	-0.285041	-0.286355	-0.024773	38.5539	-0.284559	-2764.61	8.960719E-6	NaN
46	1.000000	0.794967	7.3655e+06	-40939.1	955.818	-29788.7	0.000000	0.000000	6.795050	0.048049	NaN	0.000000	0.001571	0.001612	28.1165	0.040835	0.001916	21.3127	-112.253	-168.874	-0.034437	0.793707	-0.277052	-0.278313	0.048049	21.3127	-0.278743	-2259.43	-2.126596E-5	NaN
46	1.000000	0.803006	7.3655e+06	-40939.1	955.818	-29788.7	0.000000	0.000000	6.803087	0.022481	NaN	0.000000	0.001564	0.001621	28.1162	0.074474	0.001995	37.3394	-12.1667	-167.219	0.025959	0.801716	-0.269014	-0.270303	0.022481	37.3394	-0.269465	-1634.62	-1.375282E-5	NaN
46	1.000000	0.810979	7.3655e+06	-40939.1	955.817	-29788.7	0.000000	0.000000	6.811060	-0.001901	NaN	0.000000	0.001545	0.001574	28.1152	0.061436	0.002005	30.6432	50.4985	-168.469	-0.012610	0.809666	-0.261040	-0.262353	-0.001901	30.6432	-0.260994	-1213.78	1.566506E-6	NaN
46	1.000000	0.818988	7.3655e+06	-40939.1	955.818	-29788.7	0.000000	0.000000	6.819069	0.008805	NaN	0.000000	0.001570	0.001595	28.1149	0.026661	0.002051	13.0017	-146.654	-165.163	0.030880	0.817688	-0.253031	-0.254332	0.008805	13.0017	-0.253539	-932.422	-9.443617E-6	NaN
46	1.000000	0.826983	7.3655e+06	-40939.1	955.818	-29788.7	0.000000	0.000000	6.827062	-0.016911	NaN	0.000000	0.001580	0.001582	28.1149	0.041379	0.002032	20.3592	44.2331	-164.98	0.049202	0.825710	-0.245037	-0.246310	-0.016911	20.3592	-0.244414	-673.508	2.510954E-5	NaN
46	1.000000	0.834989	7.3655e+06	-40939.1	955.819	-29788.7	0.000000	0.000000	6.835068	-0.039101	NaN	0.000000	0.001597	0.001607	28.1146	0.135951	0.002077	65.447	-152.652	-169.254	-0.066323	0.833687	-0.237030	-0.238333	-0.039101	65.447	-0.236582	-508.248	7.693321E-5	NaN
46	1.000000	0.842990	7.3655e+06	-40939.1	955.818	-29788.7	0.000000	0.000000	6.843071	0.017427	NaN	0.000000	0.001559	0.001570	28.1143	0.050663	0.001855	27.3116	-114.672	-164.253	0.044969	0.841653	-0.229030	-0.230366	0.017427	27.3116	-0.229509	-393.327	-4.430587E-5	NaN
46	1.000000	0.851014	7.3655e+06	-40939.1	955.818	-29788.7	0.000000	0.000000	6.851095	0.027959	NaN	0.000000	0.001594	0.001614	28.1154	0.034934	0.002101	16.6244	138.075	-166.663	0.039882	0.849713	-0.221006	-0.222307	0.027959	16.6244	-0.222267	-301.896	-9.261111E-5	NaN
46	1.000000	0.858985	7.3655e+06	-40939.1	955.818	-29788.7	0.000000	0.000000	6.859064	-0.030335	NaN	0.000000	0.001582	0.001609	28.1152	0.120479	0.002210	54.521	-73.6741	-168.282	0.000784	0.857697	-0.213034	-0.214323	-0.030335	54.521	-0.212617	-211.409	0.000143	NaN
46	1.000000	0.867007	7.3655e+06	-40939.1	955.818	-29788.7	0.000000	0.000000	6.867085	-0.045290	NaN	0.000000	0.001603	0.001582	28.1158	0.052077	0.001959	26.5838	-83.3212	-163.807	-0.056244	0.865694	-0.205013	-0.206325	-0.045290	26.5838	-0.203735	-151.672	0.000299	NaN
46	1.000000	0.875003	7.3655e+06	-40939.1	955.818	-29788.7	0.000000	0.000000	6.875087	0.081691	NaN	0.000000	0.001524	0.001602	28.116	0.052870	0.002044	25.8617	-89.0351	-164.797	0.085706	0.873689	-0.197016	-0.198330	0.081691	25.8617	-0.199385	-128.705	-0.000635	NaN
46	1.000000	0.883020	7.3655e+06	-40939.1	955.817	-29788.7	0.000000	0.000000	6.883101	0.026144	NaN	0.000000	0.001579	0.001595	28.1154	0.016598	0.002070	8.018848	-147.871	-167.192	0.017244	0.881713	-0.189000	-0.190306	0.026144	8.018848	-0.191445	-95.0906	-0.000275	NaN
46	1.000000	0.891013	7.3655e+06	-40939.1	955.818	-29788.7	0.000000	0.000000	6.891096	0.038974	NaN	0.000000	0.001591	0.001595	28.1151	0.038017	0.001991	19.0899	-157.918	-164.065	0.030773	0.889719	-0.181006	-0.182301	0.038974	19.0899	-0.182537	-67.3799	-0.000578	NaN
46	1.000000	0.899026	7.3655e+06	-40939.1	955.818	-29788.7	0.000000	0.000000	6.899108	0.017929	NaN	0.000000	0.001596	0.001613	28.1153	0.067429	0.002032	33.1877	73.6272	-164.57	0.031641	0.897688	-0.172993	-0.174332	0.017929	33.1877	-0.173398	-47.0341	-0.000381	NaN
46	1.000000	0.907056	7.3655e+06	-40939.1	955.818	-29788.7	0.000000	0.000000	6.907137	0.000734	NaN	0.000000	0.001600	0.001643	28.1155	0.038315	0.002003	19.1335	-143.146	-165.029	-0.038633	0.905681	-0.164963	-0.166339	0.000734	19.1335	-0.164992	-33.5864	-2.184373E-5	NaN
46	1.000000	0.915040	7.3655e+06	-40939.1	955.817	-29788.7	0.000000	0.000000	6.915118	-0.047239	NaN	0.000000	0.001578	0.001618	28.1161	0.088195	0.001969	44.7824	-151.29	-167.582	-0.132396	0.913714	-0.156980	-0.158305	-0.047239	44.7824	-0.156189	-23.4388	0.002015	NaN
46	1.000000	0.923041	7.3655e+06	-40939.1	955.818	-29788.7	0.000000	0.000000	6.923122	0.008542	NaN	0.000000	0.001597	0.001592	28.115	0.043739	0.002003	21.8364	117.657	-165.044	0.037517	0.921697	-0.148979	-0.150323	0.008542	21.8364	-0.149272	-17.5676	-0.000486	NaN
46	1.000000	0.931049	7.3655e+06	-40939.1	955.818	-29788.7	0.000000	0.000000	6.931129	-0.014996	NaN	0.000000	0.001577	0.001582	28.1161	0.084927	0.002069	41.0382	42.2809	-166.644	0.038764	0.929770	-0.140970	-0.142250	-0.014996	41.0382	-0.140696	-12.1907	0.001230	NaN
46	1.000000	0.939026	7.3655e+06	-40939.1	955.819	-29788.7	0.000000	0.000000	6.939108	0.028585	NaN	0.000000	0.001586	0.001593	28.1164	0.028523	0.001877	15.1958	45.9137	-168.186	0.026828	0.937736	-0.132993	-0.134283	0.028585	15.1958	-0.134404	-9.266173	-0.003085	NaN
46	1.000000	0.947053	7.3655e+06	-40939.1	955.818	-29788.7	0.000000	0.000000	6.947133	-0.003404	NaN	0.000000	0.001567	0.001638	28.1164	0.107573	0.001871	57.4913	-140.12	-167.389	-0.032793	0.945770	-0.124967	-0.126250	-0.003404	57.4913	-0.124922	-6.059810	0.000562	NaN
46	1.000000	0.955038	7.3655e+06	-40939.1	955.818	-29788.7	0.000000	0.000000	6.955120	0.034914	NaN	0.000000	0.001566	0.001625	28.117	0.138624	0.002002	69.2433	160.094	-165.005	-0.054514	0.953728	-0.116982	-0.118292	0.034914	69.2433	-0.117360	-4.270728	-0.008175	NaN
46	1.000000	0.963047	7.3655e+06	-40939.1	955.818	-29788.7	0.000000	0.000000	6.963128	0.010850	NaN	0.000000	0.001617	0.001618	28.1157	0.074135	0.002017	36.7562	97.2409	-165.101	0.059463	0.961758	-0.108972	-0.110262	0.010850	36.7562	-0.109194	-2.889638	-0.003755	NaN
46	1.000000	0.971049	7.3655e+06	-40939.1	955.817	-29788.7	0.000000	0.000000	6.971129	0.003902	NaN	0.000000	0.001580	0.001623	28.1153	0.107506	0.001839	58.4522	94.3727	-170.66	0.010163	0.969702	-0.100971	-0.102317	0.003902	58.4522	-0.101021	-1.924616	-0.002027	NaN
46	1.000000	0.979086	7.3655e+06	-40939.1	955.817	-29788.7	0.000000	0.000000	6.979168	0.023916	NaN	0.000000	0.001612	0.001619	28.1148	0.057004	0.002013	28.3219	67.008	-167.039	0.074195	0.977769	-0.092933	-0.094251	0.023916	28.3219	-0.093566	-1.308026	-0.018284	NaN
46	1.000000	0.987054	7.3655e+06	-40939.1	955.816	-29788.7	0.000000	0.000000	6.987133	-0.029056	NaN	0.000000	0.001609	0.001621	28.1152	0.054833	0.001979	27.7108	-48.6887	-166.179	-0.022027	0.985707	-0.084966	-0.086312	-0.029056	27.7108	-0.084180	-0.784819	0.037022	NaN
46	1.000000	0.995075	7.3655e+06	-40939.1	955.817	-29788.7	0.000000	0.000000	6.995159	0.095642	NaN	0.000000	0.001604	0.001609	28.1148	0.056942	0.001917	29.698	155.406	-164.65	0.009073	0.993704	-0.076945	-0.078315	0.095642	29.698	-0.079360	-0.596560	-0.160322	NaN
46	1.000000	1.003050	7.3655e+06	-40939.1	955.818	-29788.7	0.000000	0.000000	7.003132	0.051540	NaN	0.000000	0.001587	0.001613	28.1143	0.073489	0.001976	37.1917	-93.4716	-164.121	-0.035799	1.001727	-0.068970	-0.070292	0.051540	37.1917	-0.070009	-0.341305	-0.151009	NaN
46	1.000000	1.011039	7.3655e+06	-40939.1	955.817	-29788.7	0.000000	0.000000	7.011123	0.074151	NaN	0.000000	0.001588	0.001587	28.1148	0.103289	0.001977	52.2445	63.9472	-165.707	0.003670	1.009779	-0.060980	-0.062240	0.074151	52.2445	-0.062045	-0.205952	-0.360038	NaN
46	1.000000	1.019072	7.3655e+06	-40939.1	955.816	-29788.7	0.000000	0.000000	7.019154	0.027264	NaN	0.000000	0.001568	0.001623	28.116	0.058906	0.001988	29.6315	169.447	-168.062	0.086426	1.017768	-0.052947	-0.054251	0.027264	29.6315	-0.053637	-0.117332	-0.232369	NaN
46	1.000000	1.027101	7.3655e+06	-40939.1	955.816	-29788.7	0.000000	0.000000	7.027184	0.069803	NaN	0.000000	0.001559	0.001602	28.1159	0.023054	0.001902	12.1195	-23.0403	-163.048	0.062892	1.025768	-0.044919	-0.046252	0.069803	12.1195	-0.049238	-0.086532	-0.806681	NaN
46	1.000000	1.035083	7.3655e+06	-40939.1	955.817	-29788.7	0.000000	0.000000	7.035164	0.020783	NaN	0.000000	0.001583	0.001585	28.1144	0.124127	0.001892	65.6112	-62.4761	-167.149	0.028615	1.033804	-0.036937	-0.038216	0.020783	65.6112	-0.037175	-0.037161	-0.559282	NaN
46	1.000000	1.043109	7.3655e+06	-40939.1	955.818	-29788.7	0.000000	0.000000	7.043188	-0.047222	NaN	0.000000	0.001610	0.001611	28.1144	0.039067	0.002041	19.1406	72.167	-168.408	-0.013829	1.041778	-0.028910	-0.030241	-0.047222	19.1406	-0.027060	-0.019125	2.469090	NaN
46	1.000000	1.051091	7.3655e+06	-40939.1	955.817	-29788.7	0.000000	0.000000	7.051172	-0.005170	NaN	0.000000	0.001639	0.001594	28.1137	0.096006	0.002150	44.6472	145.676	-166.703	0.013130	1.049769	-0.020928	-0.022251	-0.005170	44.6472	-0.020841	-0.013195	0.391849	NaN
46	1.000000	1.059082	7.3655e+06	-40939.1	955.817	-29788.7	0.000000	0.000000	7.059163	0.008546	NaN	0.000000	0.001660	0.001593	28.1141	0.056303	0.001993	28.2523	-59.3439	-164.334	0.030036	1.057752	-0.012937	-0.014268	0.008546	28.2523	-0.013164	-0.008197	-1.042523	NaN
46	1.000000	1.067095	7.3655e+06	-40939.1	955.818	-29788.7	0.000000	0.000000	7.067177	0.019256	NaN	0.000000	0.001679	0.001643	28.1129	0.069348	0.002071	33.4853	6.288972	-170.45	-0.075517	1.065750	-0.004924	-0.006270	0.019256	33.4853	-0.005355	-0.003639	-5.291921	NaN
46	1.000000	1.075092	7.3655e+06	-40939.1	955.817	-29788.7	0.000000	0.000000	7.075223	1.237845	NaN	0.000000	0.001662	0.001651	28.1132	1.849315	0.001923	961.719	6.023626	-168.121	0.472276	1.073764	0.003073	0.001744	1.237845	961.719	0.002107	0.001642	753.99	21685.6
46	2.000000	1.082491	7.3655e+06	-40939.1	955.817	-29788.7	0.000000	0.000000	7.082954	9.301966	NaN	0.000000	0.001662	0.001621	28.1134	9.186464	0.001758	5225.69	11.8213	-176.613	8.506295	1.081695	0.010472	0.009675	9.301966	5225.69	0.009136	0.008238	1129.21	52603.9
46	2.000000	1.084621	7.3655e+06	-40939.1	955.817	-29788.7	0.000000	0.000000	7.085168	11.3538	NaN	0.000000	0.001643	0.001636	28.114	10.2997	0.001567	6573.64	5.348268	-172.841	10.9226	1.084305	0.012601	0.012286	11.3538	6573.64	0.011306	0.010669	1064.14	58144.4
46	2.000000	1.086626	7.3655e+06	-40939.1	955.817	-29788.7	0.000000	0.000000	7.087318	14.8762	NaN	0.000000	0.001618	0.001589	28.1148	13.3532	0.001671	7991.36	4.331034	-173.101	13.9597	1.086195	0.014606	0.014176	14.8762	7991.36	0.013210	0.012972	1146.77	64104.3
46	2.000000	1.088630	7.3655e+06	-40939.1	955.817	-29788.7	0.000000	0.000000	7.089340	15.3133	NaN	0.000000	0.001609	0.001630	28.114	14.3014	0.001756	8143.93	10.813	-176.208	15.5096	1.088267	0.016611	0.016247	15.3133	8143.93	0.015200	0.015554	984.553	59661.3
46	2.000000	1.090526	7.3655e+06	-40939.1	955.818	-29788.7	0.000000	0.000000	7.091277	16.329	NaN	0.000000	0.001624	0.001635	28.1157	16.0548	0.001828	8783.5	4.700273	-173.811	14.7927	1.090239	0.018506	0.018220	16.329	8783.5	0.017112	0.018205	896.925	59475.7
46	2.000000	1.092536	7.3655e+06	-40939.1	955.818	-29788.7	0.000000	0.000000	7.093520	21.9835	NaN	0.000000	0.001665	0.001619	28.1145	18.9326	0.001813	10443.8	7.535379	-177.839	21.4401	1.092262	0.020517	0.020242	21.9835	10443.8	0.018938	0.020901	1051.81	66001.3
46	2.000000	1.094550	7.3655e+06	-40939.1	955.818	-29788.7	0.000000	0.000000	7.095859	29.9031	NaN	0.000000	0.001650	0.001601	28.1136	20.9057	0.001682	12426	7.600388	178.737	29.7	1.094212	0.022530	0.022193	29.9031	12426	0.020725	0.023695	1262.02	73753.1
46	2.000000	1.096550	7.3655e+06	-40939.1	955.818	-29788.7	0.000000	0.000000	7.098011	33.5742	NaN	0.000000	0.001651	0.001622	28.1141	23.8067	0.001742	13662.7	10.3552	176.381	33.1292	1.096216	0.024531	0.024197	33.5742	13662.7	0.022688	0.026943	1246.12	76047.8
46	2.000000	1.098611	7.3655e+06	-40939.1	955.818	-29788.7	0.000000	0.000000	7.100230	37.4299	NaN	0.000000	0.001637	0.001603	28.1134	25.5583	0.001871	13657.1	9.871182	178.64	38.1016	1.098215	0.026592	0.026195	37.4299	13657.1	0.024536	0.030177	1240.34	71827.6
46	2.000000	1.100566	7.3655e+06	-40939.1	955.817	-29788.7	0.000000	0.000000	7.102431	43.4212	NaN	0.000000	0.001586	0.001598	28.1132	27.3497	0.001699	16096.3	5.407305	179.119	42.527	1.100254	0.028547	0.028234	43.4212	16096.3	0.026524	0.033846	1282.9	79936.5
46	2.000000	1.102511	7.3655e+06	-40939.1	955.818	-29788.7	0.000000	0.000000	7.104619	49.3332	NaN	0.000000	0.001643	0.001561	28.1139	30.0244	0.001818	16515.6	4.246649	179.754	47.806	1.102257	0.030491	0.030237	49.3332	16515.6	0.028251	0.037196	1326.29	78238.1
46	2.000000	1.104474	7.3655e+06	-40939.1	955.816	-29788.7	0.000000	0.000000	7.106963	58.6178	NaN	0.000000	0.001660	0.001622	28.1146	30.6635	0.001773	17292.2	1.965584	-178.63	55.2181	1.104177	0.032454	0.032158	58.6178	17292.2	0.029912	0.040561	1445.19	78445.9
46	2.000000	1.106502	7.3655e+06	-40939.1	955.815	-29788.7	0.000000	0.000000	7.109253	64.9983	NaN	0.000000	0.001611	0.001612	28.1154	33.8503	0.001756	19281.6	4.013706	179.354	63.1041	1.106231	0.034482	0.034212	64.9983	19281.6	0.031954	0.044891	1447.92	83145.1
46	2.000000	1.108570	7.3655e+06	-40939.1	955.817	-29788.7	0.000000	0.000000	7.111565	70.9183	NaN	0.000000	0.001579	0.001628	28.1151	36.2526	0.001796	20180.3	4.682943	177.903	70.346	1.108258	0.036550	0.036238	70.9183	20180.3	0.033915	0.049249	1439.99	83080.8
46	2.000000	1.110481	7.3655e+06	-40939.1	955.818	-29788.7	0.000000	0.000000	7.113797	78.7296	NaN	0.000000	0.001580	0.001621	28.1155	37.5863	0.001805	20827.9	3.929958	178.573	77.4077	1.110237	0.038462	0.038218	78.7296	20827.9	0.035627	0.053216	1479.44	82489.5
46	2.000000	1.112568	7.3655e+06	-40939.1	955.817	-29788.7	0.000000	0.000000	7.116218	86.8486	NaN	0.000000	0.001587	0.001605	28.1146	41.1531	0.001887	21806.1	6.831821	177.116	87.227	1.112142	0.040549	0.040123	86.8486	21806.1	0.037561	0.057878	1500.54	82811.9
46	2.000000	1.114494	7.3655e+06	-40939.1	955.818	-29788.7	0.000000	0.000000	7.118459	94.5291	NaN	0.000000	0.001567	0.001616	28.1145	42.5207	0.001781	23874.3	4.516567	176.805	94.1534	1.114217	0.042474	0.042198	94.5291	23874.3	0.039505	0.062755	1506.33	87072.4
46	2.000000	1.116512	7.3655e+06	-40939.1	955.818	-29788.7	0.000000	0.000000	7.120836	103.254	NaN	0.000000	0.001560	0.001624	28.1136	45.2586	0.001873	24158	5.024004	176.9	103.143	1.116238	0.044492	0.044219	103.254	24158	0.041287	0.067396	1532.04	85019.2
46	2.000000	1.118549	7.3655e+06	-40939.1	955.818	-29788.7	0.000000	0.000000	7.123231	111.971	NaN	0.000000	0.001567	0.001646	28.1135	47.2562	0.001832	25790.9	7.407283	172.935	112.065	1.118144	0.046530	0.046124	111.971	25790.9	0.043273	0.072762	1538.88	87355.2
46	2.000000	1.120429	7.3655e+06	-40939.1	955.817	-29788.7	0.000000	0.000000	7.125552	122.689	NaN	0.000000	0.001580	0.001603	28.1137	49.3339	0.001798	27435.9	7.601838	172.411	119.868	1.120186	0.048410	0.048167	122.689	27435.9	0.045056	0.077746	1578.07	89898.7
46	2.000000	1.122475	7.3655e+06	-40939.1	955.817	-29788.7	0.000000	0.000000	7.128020	132.973	NaN	0.000000	0.001584	0.001638	28.1137	50.0519	0.001881	26604.6	2.320244	178.791	130.85	1.122132	0.050456	0.050113	132.973	26604.6	0.046707	0.082507	1611.66	84622.3
46	2.000000	1.124466	7.3655e+06	-40939.1	955.817	-29788.7	0.000000	0.000000	7.130306	140.16	NaN	0.000000	0.001557	0.001573	28.1147	50.9329	0.001727	29495.7	2.659365	177.011	137.915	1.124172	0.052446	0.052153	140.16	29495.7	0.048882	0.088989	1575.03	90336.5
46	2.000000	1.126518	7.3655e+06	-40939.1	955.819	-29788.7	0.000000	0.000000	7.132754	149.78	NaN	0.000000	0.001577	0.001580	28.115	52.9231	0.001745	30326.5	-0.566851	-179.563	150.121	1.126167	0.054498	0.054147	149.78	30326.5	0.050794	0.094883	1578.59	89950.2
46	2.000000	1.128497	7.3655e+06	-40939.1	955.818	-29788.7	0.000000	0.000000	7.135330	164.308	NaN	0.000000	0.001550	0.001589	28.114	55.6868	0.001740	32009.1	4.043788	175.133	161.585	1.128107	0.056477	0.056087	164.308	32009.1	0.052628	0.100707	1631.54	92154.3
46	2.000000	1.130442	7.3655e+06	-40939.1	955.818	-29788.7	0.000000	0.000000	7.137730	175.36	NaN	0.000000	0.001598	0.001629	28.1146	57.8841	0.001754	33008	8.867931	169.614	174.376	1.130202	0.058423	0.058183	175.36	33008	0.054438	0.106624	1644.65	92356
46	2.000000	1.132426	7.3655e+06	-40939.1	955.818	-29788.7	0.000000	0.000000	7.139928	180.596	NaN	0.000000	0.001575	0.001620	28.115	60.699	0.001844	32914.4	4.236949	174.545	176.16	1.132257	0.060406	0.060237	180.596	32914.4	0.056291	0.112846	1600.37	89519.1
46	2.000000	1.134434	7.3655e+06	-40939.1	955.818	-29788.7	0.000000	0.000000	7.142522	194.853	NaN	0.000000	0.001607	0.001641	28.1144	60.9082	0.001777	34272.1	5.003861	173.82	192.96	1.134079	0.062415	0.062059	194.853	34272.1	0.058150	0.119260	1633.85	90670.6
46	2.000000	1.136426	7.3655e+06	-40939.1	955.818	-29788.7	0.000000	0.000000	7.145026	207.324	NaN	0.000000	0.001601	0.001653	28.1137	63.9571	0.001856	34466	3.708860	175.209	204.671	1.136231	0.064406	0.064212	207.324	34466	0.059895	0.125431	1652.89	88912.3
46	2.000000	1.138491	7.3655e+06	-40939.1	955.819	-29788.7	0.000000	0.000000	7.147542	218.296	NaN	0.000000	0.001586	0.001597	28.1122	65.6808	0.001771	37077.5	4.402892	173.752	218.742	1.138107	0.066471	0.066088	218.296	37077.5	0.062055	0.133281	1637.86	92789.5
46	2.000000	1.140457	7.3655e+06	-40939.1	955.819	-29788.7	0.000000	0.000000	7.149918	228.267	NaN	0.000000	0.001530	0.001593	28.1118	66.9269	0.001759	38048.9	2.051515	175.625	226.067	1.140141	0.068437	0.068122	228.267	38048.9	0.063938	0.140306	1626.92	92806.2
46	2.000000	1.142400	7.3655e+06	-40939.1	955.819	-29788.7	0.000000	0.000000	7.152598	246.194	NaN	0.000000	0.001595	0.001622	28.1124	68.5887	0.001749	39206.6	0.709153	176.404	241.314	1.142103	0.070381	0.070084	246.194	39206.6	0.065671	0.146926	1675.63	93450.9
46	2.000000	1.144436	7.3655e+06	-40939.1	955.819	-29788.7	0.000000	0.000000	7.155256	261.319	NaN	0.000000	0.001589	0.001592	28.1121	70.9836	0.001819	39018.1	5.106696	172.331	258.605	1.144097	0.072417	0.072077	261.319	39018.1	0.067394	0.153647	1700.77	90944.6
46	2.000000	1.146418	7.3655e+06	-40939.1	955.818	-29788.7	0.000000	0.000000	7.157481	267.234	NaN	0.000000	0.001588	0.001618	28.1135	71.5789	0.001702	42058.1	3.901203	172.945	263.074	1.146106	0.074399	0.074086	267.234	42058.1	0.069633	0.162598	1643.52	95293.8
46	2.000000	1.148643	7.3655e+06	-40939.1	955.818	-29788.7	0.000000	0.000000	7.159243	255.954	NaN	0.000000	0.001589	0.001603	28.1134	74.2505	0.001833	40505	7.288826	170.697	262.66	1.148202	0.076624	0.076182	255.954	40505	0.071885	0.171839	1489.5	89273.3
46	2.000000	1.150297	7.3655e+06	-40939.1	955.818	-29788.7	0.000000	0.000000	7.161823	278.504	NaN	0.000000	0.001596	0.001642	28.113	76.3151	0.001922	39714.3	0.745616	175.49	270.226	1.150018	0.078278	0.077998	278.504	39714.3	0.073018	0.176581	1577.2	86347.1
46	2.000000	1.152430	7.3655e+06	-40939.1	955.817	-29788.7	0.000000	0.000000	7.165010	304.135	NaN	0.000000	0.001601	0.001612	28.1131	79.9922	0.001771	45175.3	0.450819	175.071	300.191	1.152051	0.080411	0.080031	304.135	45175.3	0.075362	0.186579	1630.06	95552.6
46	2.000000	1.154385	7.3655e+06	-40939.1	955.817	-29788.7	0.000000	0.000000	7.167896	326.814	NaN	0.000000	0.001560	0.001621	28.1123	81.1726	0.001622	50048.3	6.028460	168.841	321.891	1.154098	0.082366	0.082079	326.814	50048.3	0.077468	0.195787	1669.23	103341
46	2.000000	1.156423	7.3655e+06	-40939.1	955.818	-29788.7	0.000000	0.000000	7.170169	332.532	NaN	0.000000	0.001585	0.001625	28.1115	84.0982	0.001765	47648	8.400489	167.531	332.599	1.156216	0.084403	0.084197	332.532	47648	0.079169	0.203372	1635.09	96532.1
46	2.000000	1.158495	7.3655e+06	-40939.1	955.818	-29788.7	0.000000	0.000000	7.173210	356.119	NaN	0.000000	0.001592	0.001619	28.1123	86.3272	0.001782	48437.1	6.579376	170.034	357.035	1.158116	0.086475	0.086097	356.119	48437.1	0.080961	0.211512	1683.68	96224.1
46	2.000000	1.160356	7.3655e+06	-40939.1	955.817	-29788.7	0.000000	0.000000	7.175588	368.691	NaN	0.000000	0.001578	0.001644	28.1111	87.6425	0.001701	51536.1	7.651557	167.619	363.082	1.160111	0.088336	0.088092	368.691	51536.1	0.082970	0.220815	1669.68	100201
46	2.000000	1.162398	7.3655e+06	-40939.1	955.817	-29788.7	0.000000	0.000000	7.178315	385.355	NaN	0.000000	0.001608	0.001592	28.1117	89.859	0.001745	51506.7	3.900381	171.472	383.698	1.162183	0.090379	0.090163	385.355	51506.7	0.084767	0.229294	1680.62	98274.5
46	2.000000	1.164468	7.3655e+06	-40939.1	955.819	-29788.7	0.000000	0.000000	7.180787	395.118	NaN	0.000000	0.001602	0.001585	28.1116	90.9062	0.001780	51084.8	3.079384	172.31	393.696	1.164113	0.092449	0.092094	395.118	51084.8	0.086648	0.238325	1657.89	95604.8
46	2.000000	1.166456	7.3655e+06	-40939.1	955.818	-29788.7	0.000000	0.000000	7.183456	411.694	NaN	0.000000	0.001643	0.001602	28.1125	92.0464	0.001731	53178.4	2.095284	173.059	410.345	1.166220	0.094437	0.094200	411.694	53178.4	0.088631	0.248025	1659.89	97557.6
46	2.000000	1.168515	7.3655e+06	-40939.1	955.819	-29788.7	0.000000	0.000000	7.186514	436.016	NaN	0.000000	0.001663	0.001636	28.113	95.5519	0.001727	55331.7	8.667591	167.143	436.534	1.168022	0.096495	0.096002	436.016	55331.7	0.090585	0.257764	1691.53	99571.6
46	2.000000	1.170395	7.3655e+06	-40939.1	955.819	-29788.7	0.000000	0.000000	7.188966	449.907	NaN	0.000000	0.001618	0.001593	28.1119	95.8968	0.001817	52790.3	0.484219	175.57	445.33	1.170075	0.098376	0.098056	449.907	52790.3	0.091984	0.264841	1698.78	93720.6
46	2.000000	1.172405	7.3655e+06	-40939.1	955.817	-29788.7	0.000000	0.000000	7.191582	464.671	NaN	0.000000	0.001632	0.001601	28.1139	99.7379	0.001807	55204.4	3.256010	171.205	462.076	1.172158	0.100385	0.100138	464.671	55204.4	0.094073	0.275574	1686.2	96078.9
46	2.000000	1.174370	7.3655e+06	-40939.1	955.818	-29788.7	0.000000	0.000000	7.194438	486.352	NaN	0.000000	0.001643	0.001605	28.1131	100.502	0.001717	58544.6	6.966340	167.702	480.407	1.173988	0.102351	0.101968	486.352	58544.6	0.096120	0.286291	1698.8	99966.9
46	2.000000	1.176643	7.3655e+06	-40939.1	955.817	-29788.7	0.000000	0.000000	7.196871	490.264	NaN	0.000000	0.001567	0.001621	28.1122	103.715	0.001775	58417.1	3.903789	171.173	502.983	1.176174	0.104623	0.104154	490.264	58417.1	0.098329	0.298064	1644.83	97759.4
46	2.000000	1.178396	7.3655e+06	-40939.1	955.818	-29788.7	0.000000	0.000000	7.199950	522.524	NaN	0.000000	0.001598	0.001631	28.1127	105.309	0.001805	58343.4	5.299247	169.928	518.746	1.178043	0.106376	0.106023	522.524	58343.4	0.099659	0.305262	1711.72	96478
46	2.000000	1.180479	7.3655e+06	-40939.1	955.819	-29788.7	0.000000	0.000000	7.202523	534.43	NaN	0.000000	0.001618	0.001609	28.1121	107.962	0.001769	61026.9	7.172131	167.068	535.713	1.180025	0.108460	0.108005	534.43	61026.9	0.101892	0.317525	1683.11	98947.8
46	2.000000	1.180873	7.3655e+06	-40939.1	955.819	-29788.7	0.000000	0.000000	7.203112	539.18	NaN	0.000000	0.001630	0.001644	28.1282	107.429	0.001772	60636.8	7.036887	-13.0168	532.701	1.180662	0.108854	0.108642	539.18	60636.8	0.102185	0.319150	1689.43	98064.5