File: remote_trans/data/nanoindenter/0828-1/data/Data_2025-08-06,11h17m57s/2025-07-22_16-23-58_1_1050.txt
2025-07-22, 16:23:58, 1
Index	Phase	Displacement	Time	Pos X	Pos Y	Pos Z	Rot A	Rot B	Piezo Z	Force A	Force B	Gripper	Voltage A	Voltage B	Temperature	Amplitude force	Amplitude pos	Stiffness	Phase shift	Phase excitation	Force A raw	Displacement raw	HMax	HMax raw	Real Force	Real Stiffness	Contact Depth	Area	Hardness	Reduced Mod.
[#]	[#]	[um]	[s]	[um]	[um]	[um]	[m°]	[m°]	[um]	[uN]	[uN]	[V]	[V]	[V]	[°C]	[uN]	[um]	[N/m]	[°]	[°]	[uN]	[um]	[um]	[um]	[uN]	[N/m]	[um]	[um^2]	[MPa]	[MPa]
1050	1.000000	0.002427	7.37531e+06	-52639.1	1055.82	-29748.6	0.000000	0.000000	6.002832	0.037730	NaN	0.000000	0.001639	0.001772	28.0837	0.032361	0.000970	33.3631	113.774	-167.964	0.113303	0.001176	-1.058072	-1.059322	0.037730	33.3631	-1.058920	-1.407048E+14	-2.681484E-16	NaN
1050	1.000000	0.010376	7.37531e+06	-52639.1	1055.82	-29748.6	0.000000	0.000000	6.010777	-0.067485	NaN	0.000000	0.001645	0.001740	28.0837	0.082924	0.000961	86.2822	-24.208	-166.812	0.001201	0.009034	-1.050123	-1.051465	-0.067485	86.2822	-1.049537	-1.052410E+14	6.412419E-16	NaN
1050	1.000000	0.018342	7.37531e+06	-52639.1	1055.82	-29748.6	0.000000	0.000000	6.018747	0.024039	NaN	0.000000	0.001663	0.001741	28.0838	0.064241	0.001754	36.6197	-16.384	-165.921	0.034112	0.017056	-1.042156	-1.043443	0.024039	36.6197	-1.042649	-8.503211E+13	-2.827065E-16	NaN
1050	1.000000	0.026353	7.37531e+06	-52639.1	1055.82	-29748.6	0.000000	0.000000	6.026759	0.064139	NaN	0.000000	0.001621	0.001766	28.0837	0.089105	0.001969	45.2561	-165.645	-167.285	0.013112	0.025016	-1.034146	-1.035482	0.064139	45.2561	-1.035209	-6.753637E+13	-9.496920E-16	NaN
1050	1.000000	0.034366	7.37531e+06	-52639.1	1055.82	-29748.6	0.000000	0.000000	6.034769	-0.031283	NaN	0.000000	0.001648	0.001753	28.0836	0.030741	0.001828	16.8198	91.4255	-165.387	0.058271	0.033045	-1.026133	-1.027454	-0.031283	16.8198	-1.024738	-4.883055E+13	6.406353E-16	NaN
1050	1.000000	0.042331	7.37531e+06	-52639.1	1055.82	-29748.6	0.000000	0.000000	6.042732	-0.076070	NaN	0.000000	0.001603	0.001801	28.0839	0.043563	0.001896	22.9812	77.9923	-166.203	-0.062856	0.040989	-1.018167	-1.019509	-0.076070	22.9812	-1.015685	-3.688836E+13	2.062162E-15	NaN
1050	1.000000	0.050331	7.37531e+06	-52639.1	1055.82	-29748.6	0.000000	0.000000	6.050732	-0.077643	NaN	0.000000	0.001642	0.001748	28.0839	0.136608	0.001969	69.3877	86.0599	-166.611	-0.045604	0.049032	-1.010168	-1.011467	-0.077643	69.3877	-1.009328	-3.029313E+13	2.563045E-15	NaN
1050	1.000000	0.058321	7.37531e+06	-52639.1	1055.82	-29748.6	0.000000	0.000000	6.058726	0.006984	NaN	0.000000	0.001639	0.001719	28.0839	0.070154	0.002162	32.4483	9.164216	-167.327	-0.062348	0.057011	-1.002177	-1.003487	0.006984	32.4483	-1.002339	-2.439253E+13	-2.863070E-16	NaN
1050	1.000000	0.066359	7.37531e+06	-52639.1	1055.82	-29748.6	0.000000	0.000000	6.066763	0.014799	NaN	0.000000	0.001667	0.001750	28.0839	0.035177	0.002026	17.3656	100.069	-162.15	0.006759	0.065017	-0.994140	-0.995482	0.014799	17.3656	-0.994779	-1.929615E+13	-7.669189E-16	NaN
1050	1.000000	0.074347	7.37531e+06	-52639.1	1055.82	-29748.6	0.000000	0.000000	6.074751	0.007861	NaN	0.000000	0.001654	0.001763	28.0837	0.073399	0.001988	36.917	-27.9979	-169.155	0.061289	0.073057	-0.986152	-0.987442	0.007861	36.917	-0.986311	-1.483985E+13	-5.297258E-16	NaN
1050	1.000000	0.082354	7.37531e+06	-52639.1	1055.82	-29748.6	0.000000	0.000000	6.082759	0.024029	NaN	0.000000	0.001626	0.001744	28.0826	0.037811	0.002021	18.7129	175.429	-168.243	-0.031654	0.081101	-0.978145	-0.979398	0.024029	18.7129	-0.979108	-1.186844E+13	-2.024594E-15	NaN
1050	1.000000	0.090339	7.37531e+06	-52639.1	1055.82	-29748.6	0.000000	0.000000	6.090743	-0.008256	NaN	0.000000	0.001635	0.001734	28.0826	0.105635	0.001905	55.439	78.4171	-165.153	-0.000836	0.089033	-0.970160	-0.971466	-0.008256	55.439	-0.970048	-8.960045E+12	9.214485E-16	NaN
1050	1.000000	0.098356	7.37532e+06	-52639.1	1055.82	-29748.6	0.000000	0.000000	6.098757	-0.048682	NaN	0.000000	0.001643	0.001705	28.0829	0.159400	0.002101	75.8665	106.068	-163.793	-0.024425	0.096975	-0.962143	-0.963524	-0.048682	75.8665	-0.961662	-6.906766E+12	7.048409E-15	NaN
1050	1.000000	0.106314	7.37532e+06	-52639.1	1055.82	-29748.6	0.000000	0.000000	6.106718	-0.006578	NaN	0.000000	0.001625	0.001762	28.0828	0.096165	0.002117	45.4254	86.4826	-171.95	-0.053421	0.105071	-0.954184	-0.955427	-0.006578	45.4254	-0.954076	-5.457494E+12	1.205240E-15	NaN
1050	1.000000	0.114333	7.37532e+06	-52639.1	1055.82	-29748.6	0.000000	0.000000	6.114737	0.001441	NaN	0.000000	0.001675	0.001755	28.0828	0.047754	0.001901	25.122	139.087	-166.353	0.016509	0.113014	-0.946166	-0.947484	0.001441	25.122	-0.946209	-4.274546E+12	-3.371196E-16	NaN
1050	1.000000	0.122389	7.37532e+06	-52639.1	1055.82	-29748.6	0.000000	0.000000	6.122792	-0.015342	NaN	0.000000	0.001654	0.001756	28.0831	0.016671	0.001982	8.411448	9.667015	-165.634	-0.035824	0.121053	-0.938110	-0.939446	-0.015342	8.411448	-0.936742	-3.185486E+12	4.816359E-15	NaN
1050	1.000000	0.130359	7.37532e+06	-52639.1	1055.82	-29748.6	0.000000	0.000000	6.130764	0.024681	NaN	0.000000	0.001658	0.001731	28.083	0.013261	0.002017	6.573285	-109.239	-167.056	0.063447	0.129122	-0.930140	-0.931376	0.024681	6.573285	-0.932956	-2.831956E+12	-8.715230E-15	NaN
1050	1.000000	0.138385	7.37532e+06	-52639.1	1055.82	-29748.6	0.000000	0.000000	6.138788	-0.031565	NaN	0.000000	0.001603	0.001732	28.0831	0.092520	0.001931	47.9121	-153.906	-166.896	-0.030375	0.137070	-0.922113	-0.923429	-0.031565	47.9121	-0.921619	-1.990983E+12	1.585382E-14	NaN
1050	1.000000	0.146361	7.37532e+06	-52639.1	1055.82	-29748.6	0.000000	0.000000	6.146765	-0.021548	NaN	0.000000	0.001635	0.001733	28.0831	0.038776	0.002084	18.6055	-42.559	-164.24	-0.056041	0.145031	-0.914137	-0.915468	-0.021548	18.6055	-0.913269	-1.535713E+12	1.403109E-14	NaN
1050	1.000000	0.154375	7.37532e+06	-52639.1	1055.82	-29748.6	0.000000	0.000000	6.154777	-0.049750	NaN	0.000000	0.001633	0.001736	28.0829	0.015907	0.002061	7.718933	131.801	-166.598	-0.039026	0.153091	-0.906124	-0.907408	-0.049750	7.718933	-0.901290	-1.058032E+12	4.702089E-14	NaN
1050	1.000000	0.162390	7.37532e+06	-52639.1	1055.82	-29748.6	0.000000	0.000000	6.162796	0.049247	NaN	0.000000	0.001657	0.001756	28.0833	0.033059	0.001939	17.0521	79.3952	-168.492	0.097972	0.161091	-0.898109	-0.899408	0.049247	17.0521	-0.900275	-1.025141E+12	-4.803884E-14	NaN
1050	1.000000	0.170405	7.37532e+06	-52639.1	1055.82	-29748.6	0.000000	0.000000	6.170808	-0.039344	NaN	0.000000	0.001671	0.001723	28.083	0.137511	0.002011	68.3722	173.843	-163.059	0.014249	0.169081	-0.890093	-0.891418	-0.039344	68.3722	-0.889662	-7.367906E+11	5.339862E-14	NaN
1050	1.000000	0.178430	7.37532e+06	-52639.1	1055.82	-29748.6	0.000000	0.000000	6.178834	-0.004875	NaN	0.000000	0.001653	0.001736	28.0828	0.113993	0.001995	57.1379	-136.815	-166.678	0.003696	0.177073	-0.882069	-0.883426	-0.004875	57.1379	-0.882005	-5.805180E+11	8.397816E-15	NaN
1050	1.000000	0.186389	7.37532e+06	-52639.1	1055.82	-29748.6	0.000000	0.000000	6.186792	-0.020183	NaN	0.000000	0.001651	0.001767	28.0828	0.027466	0.001955	14.0469	-129.193	-168.012	-0.014473	0.185066	-0.874110	-0.875433	-0.020183	14.0469	-0.873032	-4.390043E+11	4.597490E-14	NaN
1050	1.000000	0.194410	7.37532e+06	-52639.1	1055.82	-29748.6	0.000000	0.000000	6.194814	-0.013490	NaN	0.000000	0.001631	0.001742	28.0829	0.052409	0.001940	27.0098	129.372	-163.93	0.045558	0.193034	-0.866088	-0.867465	-0.013490	27.0098	-0.865714	-3.495011E+11	3.859873E-14	NaN
1050	1.000000	0.202413	7.37532e+06	-52639.1	1055.82	-29748.6	0.000000	0.000000	6.202818	0.011559	NaN	0.000000	0.001616	0.001734	28.083	0.036648	0.002009	18.2412	-86.6993	-164.562	0.020118	0.201085	-0.858086	-0.859414	0.011559	18.2412	-0.858561	-2.796669E+11	-4.133059E-14	NaN
1050	1.000000	0.210411	7.37532e+06	-52639.1	1055.82	-29748.6	0.000000	0.000000	6.210817	0.039278	NaN	0.000000	0.001629	0.001748	28.0826	0.062656	0.001965	31.8848	-142.771	-167.619	-0.001475	0.209048	-0.850088	-0.851451	0.039278	31.8848	-0.851011	-2.210209E+11	-1.777116E-13	NaN
1050	1.000000	0.218403	7.37532e+06	-52639.1	1055.82	-29748.6	0.000000	0.000000	6.218806	-0.035201	NaN	0.000000	0.001620	0.001728	28.084	0.102585	0.002008	51.0993	133.84	-166.325	-0.054727	0.217125	-0.842095	-0.843374	-0.035201	51.0993	-0.841579	-1.646947E+11	2.137351E-13	NaN
1050	1.000000	0.226402	7.37532e+06	-52639.1	1055.82	-29748.6	0.000000	0.000000	6.226807	0.013493	NaN	0.000000	0.001644	0.001691	28.084	0.037591	0.001963	19.1478	73.2043	-165.851	-0.011239	0.225114	-0.834096	-0.835385	0.013493	19.1478	-0.834625	-1.325758E+11	-1.017761E-13	NaN
1050	1.000000	0.234397	7.37532e+06	-52639.1	1055.82	-29748.6	0.000000	0.000000	6.234802	0.024932	NaN	0.000000	0.001625	0.001725	28.0841	0.077639	0.001924	40.3568	-175.928	-163.505	0.015577	0.233136	-0.826102	-0.827363	0.024932	40.3568	-0.826565	-1.030930E+11	-2.418389E-13	NaN
1050	1.000000	0.242400	7.37532e+06	-52639.1	1055.82	-29748.6	0.000000	0.000000	6.242804	0.020386	NaN	0.000000	0.001616	0.001717	28.0841	0.092460	0.001977	46.7647	166.934	-165.208	-0.042091	0.241103	-0.818099	-0.819396	0.020386	46.7647	-0.818426	-7.995879E+10	-2.549553E-13	NaN
1050	1.000000	0.250418	7.37532e+06	-52639.1	1055.82	-29748.6	0.000000	0.000000	6.250822	0.010427	NaN	0.000000	0.001614	0.001709	28.0838	0.078027	0.001979	39.4218	94.8261	-166.582	0.004803	0.249111	-0.810081	-0.811388	0.010427	39.4218	-0.810280	-6.199612E+10	-1.681870E-13	NaN
1050	1.000000	0.258412	7.37532e+06	-52639.1	1055.82	-29748.6	0.000000	0.000000	6.258817	0.032152	NaN	0.000000	0.001607	0.001736	28.0841	0.112271	0.001973	56.9149	-163.888	-165.407	0.009604	0.257142	-0.802087	-0.803356	0.032152	56.9149	-0.802511	-4.863435E+10	-6.610956E-13	NaN
1050	1.000000	0.266447	7.37532e+06	-52639.1	1055.82	-29748.6	0.000000	0.000000	6.266851	-0.000263	NaN	0.000000	0.001604	0.001760	28.0844	0.069169	0.001964	35.2151	68.8228	-163.274	-0.067665	0.265082	-0.794052	-0.795416	-0.000263	35.2151	-0.794046	-3.732770E+10	7.032784E-15	NaN
1050	1.000000	0.274425	7.37532e+06	-52639.1	1055.82	-29748.6	0.000000	0.000000	6.274830	0.036951	NaN	0.000000	0.001623	0.001759	28.0841	0.044426	0.002153	20.6341	-155.551	-168.345	-0.031332	0.273128	-0.786074	-0.787371	0.036951	20.6341	-0.787417	-3.033889E+10	-1.217944E-12	NaN
1050	1.000000	0.282438	7.37532e+06	-52639.1	1055.82	-29748.6	0.000000	0.000000	6.282842	0.020684	NaN	0.000000	0.001589	0.001752	28.0842	0.041124	0.001804	22.7916	-113.939	-164.844	-0.026642	0.281093	-0.778061	-0.779406	0.020684	22.7916	-0.778742	-2.312782E+10	-8.943439E-13	NaN
1050	1.000000	0.290428	7.37532e+06	-52639.1	1055.82	-29748.6	0.000000	0.000000	6.290831	-0.010512	NaN	0.000000	0.001626	0.001753	28.0843	0.057288	0.001880	30.4784	-139.256	-164.888	0.016604	0.289130	-0.770071	-0.771369	-0.010512	30.4784	-0.769812	-1.748842E+10	6.010920E-13	NaN
1050	1.000000	0.298465	7.37532e+06	-52639.1	1055.82	-29748.6	0.000000	0.000000	6.298867	-0.054487	NaN	0.000000	0.001609	0.001728	28.0844	0.033578	0.001936	17.3417	-77.5817	-167.323	-0.004784	0.297182	-0.762033	-0.763316	-0.054487	17.3417	-0.759677	-1.273231E+10	4.279419E-12	NaN
1050	1.000000	0.306452	7.37532e+06	-52639.1	1055.82	-29748.6	0.000000	0.000000	6.306856	-9.501856E-5	NaN	0.000000	0.001617	0.001768	28.0843	0.043989	0.002013	21.8557	9.826856	-168.56	-0.061451	0.305111	-0.754046	-0.755388	-9.501856E-5	21.8557	-0.754043	-1.067212E+10	8.903440E-15	NaN
1050	1.000000	0.314449	7.37532e+06	-52639.1	1055.82	-29748.6	0.000000	0.000000	6.314853	-0.016061	NaN	0.000000	0.001648	0.001754	28.0843	0.094925	0.002079	45.6483	77.4709	-169.272	0.009968	0.313154	-0.746049	-0.747345	-0.016061	45.6483	-0.745786	-8.238434E+9	1.949490E-12	NaN
1050	1.000000	0.322446	7.37532e+06	-52639.1	1055.82	-29748.6	0.000000	0.000000	6.322851	0.035049	NaN	0.000000	0.001610	0.001770	28.0841	0.048615	0.001915	25.3884	-176.087	-166.622	0.060270	0.321187	-0.738053	-0.739311	0.035049	25.3884	-0.739088	-6.677871E+9	-5.248486E-12	NaN
1050	1.000000	0.330492	7.37532e+06	-52639.1	1055.82	-29748.6	0.000000	0.000000	6.330896	0.008526	NaN	0.000000	0.001628	0.001745	28.0843	0.085285	0.001923	44.346	-118.079	-163.427	0.015514	0.329217	-0.730007	-0.731282	0.008526	44.346	-0.730151	-5.045054E+9	-1.689909E-12	NaN
1050	1.000000	0.338453	7.37532e+06	-52639.1	1055.82	-29748.6	0.000000	0.000000	6.338857	0.006318	NaN	0.000000	0.001638	0.001761	28.0842	0.073288	0.001895	38.6665	48.8409	-165.94	-0.011191	0.337177	-0.722046	-0.723321	0.006318	38.6665	-0.722169	-3.926877E+9	-1.608801E-12	NaN
1050	1.000000	0.346471	7.37532e+06	-52639.1	1055.82	-29748.6	0.000000	0.000000	6.346875	0.015296	NaN	0.000000	0.001662	0.001712	28.0842	0.035507	0.001962	18.099	-33.31	-166.898	0.015370	0.345194	-0.714028	-0.715305	0.015296	18.099	-0.714662	-3.102144E+9	-4.930640E-12	NaN
1050	1.000000	0.354475	7.37532e+06	-52639.1	1055.82	-29748.6	0.000000	0.000000	6.354880	0.008518	NaN	0.000000	0.001635	0.001736	28.0829	0.044237	0.001934	22.8722	-2.709249	-166.104	-0.001338	0.353178	-0.706023	-0.707321	0.008518	22.8722	-0.706303	-2.385530E+9	-3.570898E-12	NaN
1050	1.000000	0.362482	7.37532e+06	-52639.1	1055.82	-29748.6	0.000000	0.000000	6.362885	-0.006486	NaN	0.000000	0.001635	0.001762	28.0829	0.071016	0.001936	36.6856	-49.7827	-171.707	-0.006488	0.361170	-0.698017	-0.699329	-0.006486	36.6856	-0.697885	-1.830792E+9	3.542613E-12	NaN
1050	1.000000	0.370447	7.37532e+06	-52639.1	1055.82	-29748.6	0.000000	0.000000	6.370851	-0.002857	NaN	0.000000	0.001647	0.001732	28.0831	0.091638	0.002038	44.9645	-13.109	-167.24	0.035471	0.369209	-0.690052	-0.691289	-0.002857	44.9645	-0.690004	-1.428811E+9	1.999226E-12	NaN
1050	1.000000	0.378478	7.37532e+06	-52639.1	1055.82	-29748.6	0.000000	0.000000	6.378881	-0.025229	NaN	0.000000	0.001695	0.001721	28.0829	0.127544	0.002104	60.6103	169.003	-163.768	-0.059810	0.377171	-0.682021	-0.683328	-0.025229	60.6103	-0.681709	-1.100461E+9	2.292545E-11	NaN
1050	1.000000	0.386471	7.37532e+06	-52639.1	1055.82	-29748.6	0.000000	0.000000	6.386873	-0.036308	NaN	0.000000	0.001670	0.001731	28.0829	0.042802	0.001932	22.158	87.134	-165.03	-0.011475	0.385162	-0.674028	-0.675337	-0.036308	22.158	-0.672799	-8.311897E+8	4.368182E-11	NaN
1050	1.000000	0.394477	7.37532e+06	-52639.1	1055.82	-29748.6	0.000000	0.000000	6.394881	-0.014558	NaN	0.000000	0.001619	0.001754	28.0828	0.043029	0.002016	21.3476	-88.9082	-163.653	-0.032716	0.393114	-0.666021	-0.667385	-0.014558	21.3476	-0.665510	-6.605784E+8	2.203793E-11	NaN
1050	1.000000	0.402495	7.37532e+06	-52639.1	1055.82	-29748.6	0.000000	0.000000	6.402900	0.010799	NaN	0.000000	0.001641	0.001755	28.0826	0.040796	0.001906	21.4014	88.9695	-169.286	-0.030220	0.401186	-0.658003	-0.659313	0.010799	21.4014	-0.658382	-5.275953E+8	-2.046823E-11	NaN
1050	1.000000	0.410541	7.37532e+06	-52639.1	1055.82	-29748.6	0.000000	0.000000	6.410945	0.004887	NaN	0.000000	0.001692	0.001765	28.0828	0.074675	0.001954	38.2237	164.095	-170.527	0.079881	0.409180	-0.649958	-0.651319	0.004887	38.2237	-0.650054	-4.056706E+8	-1.204615E-11	NaN
1050	1.000000	0.418495	7.37532e+06	-52639.1	1055.82	-29748.6	0.000000	0.000000	6.418897	-0.049263	NaN	0.000000	0.001653	0.001773	28.0828	0.141650	0.001900	74.5599	161.436	-165.347	0.018208	0.417154	-0.642004	-0.643345	-0.049263	74.5599	-0.641508	-3.097309E+8	1.590524E-10	NaN
1050	1.000000	0.426509	7.37532e+06	-52639.1	1055.82	-29748.6	0.000000	0.000000	6.426914	0.007965	NaN	0.000000	0.001655	0.001744	28.0829	0.084492	0.001980	42.6791	-137.843	-168.584	0.015696	0.425182	-0.633989	-0.635316	0.007965	42.6791	-0.634129	-2.453135E+8	-3.247006E-11	NaN
1050	1.000000	0.434523	7.37532e+06	-52639.1	1055.82	-29748.6	0.000000	0.000000	6.434927	0.004207	NaN	0.000000	0.001673	0.001747	28.0828	0.109111	0.002059	52.9993	-97.5931	-165.479	0.017192	0.433270	-0.625976	-0.627229	0.004207	52.9993	-0.626035	-1.899198E+8	-2.215310E-11	NaN
1050	1.000000	0.442518	7.37532e+06	-52639.1	1055.82	-29748.6	0.000000	0.000000	6.442922	0.008501	NaN	0.000000	0.001651	0.001768	28.0826	0.061222	0.001915	31.9752	28.443	-166.748	0.042046	0.441242	-0.617981	-0.619257	0.008501	31.9752	-0.618180	-1.481223E+8	-5.739044E-11	NaN
1050	1.000000	0.450497	7.37532e+06	-52639.1	1055.82	-29748.6	0.000000	0.000000	6.450902	0.038010	NaN	0.000000	0.001634	0.001755	28.0827	0.144860	0.001861	77.8265	-33.8483	-161.499	0.067674	0.449209	-0.610002	-0.611290	0.038010	77.8265	-0.610369	-1.156604E+8	-3.286343E-10	NaN
1050	1.000000	0.458493	7.37532e+06	-52639.1	1055.82	-29748.6	0.000000	0.000000	6.458900	0.066012	NaN	0.000000	0.001626	0.001768	28.0827	0.040210	0.001979	20.3236	-167.033	-166.221	0.040616	0.457195	-0.602005	-0.603304	0.066012	20.3236	-0.604441	-9.585490E+7	-6.886617E-10	NaN
1050	1.000000	0.466551	7.37532e+06	-52639.1	1055.82	-29748.6	0.000000	0.000000	6.466954	-0.007558	NaN	0.000000	0.001632	0.001760	28.0828	0.086508	0.001897	45.6028	-4.679361	-167.477	-0.054198	0.465222	-0.593948	-0.595276	-0.007558	45.6028	-0.593824	-6.845034E+7	1.104109E-10	NaN
1050	1.000000	0.474498	7.37532e+06	-52639.1	1055.82	-29748.6	0.000000	0.000000	6.474900	-0.045583	NaN	0.000000	0.001645	0.001728	28.0829	0.008663	0.002070	4.185801	-17.5244	-163.945	-0.041310	0.473218	-0.586001	-0.587280	-0.045583	4.185801	-0.577834	-4.119293E+7	1.106566E-9	NaN
1050	1.000000	0.482548	7.37532e+06	-52639.1	1055.82	-29748.6	0.000000	0.000000	6.482950	-0.036794	NaN	0.000000	0.001638	0.001749	28.0829	0.078729	0.002037	38.6488	-110.376	-165.351	-0.042887	0.481176	-0.577951	-0.579323	-0.036794	38.6488	-0.577237	-4.041931E+7	9.103138E-10	NaN
1050	1.000000	0.490543	7.37532e+06	-52639.1	1055.82	-29748.6	0.000000	0.000000	6.490947	-0.018731	NaN	0.000000	0.001621	0.001757	28.0842	0.099802	0.002100	47.5246	47.7763	-167.318	0.031299	0.489222	-0.569955	-0.571276	-0.018731	47.5246	-0.569660	-3.176372E+7	5.897079E-10	NaN
1050	1.000000	0.498514	7.37532e+06	-52639.1	1055.82	-29748.6	0.000000	0.000000	6.498918	-0.005856	NaN	0.000000	0.001653	0.001773	28.0841	0.112354	0.001854	60.6117	-163.319	-164.842	-0.044082	0.497200	-0.561984	-0.563299	-0.005856	60.6117	-0.561912	-2.482131E+7	2.359291E-10	NaN
1050	1.000000	0.506549	7.37532e+06	-52639.1	1055.82	-29748.6	0.000000	0.000000	6.506952	-0.020896	NaN	0.000000	0.001627	0.001747	28.0841	0.064335	0.002110	30.4897	-87.5086	-165.095	0.024261	0.505239	-0.553950	-0.555259	-0.020896	30.4897	-0.553436	-1.894693E+7	1.102878E-9	NaN
1050	1.000000	0.514552	7.37532e+06	-52639.1	1055.82	-29748.6	0.000000	0.000000	6.514956	0.002569	NaN	0.000000	0.001681	0.001725	28.0841	0.092066	0.002223	41.4084	-98.0226	-165.841	0.046157	0.513248	-0.545946	-0.547251	0.002569	41.4084	-0.545993	-1.494307E+7	-1.719490E-10	NaN
1050	1.000000	0.522563	7.37532e+06	-52639.1	1055.82	-29748.6	0.000000	0.000000	6.522966	-0.019901	NaN	0.000000	0.001676	0.001741	28.0843	0.045059	0.001952	23.0803	-59.4429	-166.901	0.026221	0.521252	-0.537936	-0.539247	-0.019901	23.0803	-0.537289	-1.131765E+7	1.758396E-9	NaN
1050	1.000000	0.530557	7.37532e+06	-52639.1	1055.82	-29748.6	0.000000	0.000000	6.530963	0.064089	NaN	0.000000	0.001701	0.001747	28.0842	0.122426	0.002019	60.6267	-178.333	-166.056	0.014774	0.529209	-0.529942	-0.531290	0.064089	60.6267	-0.530735	-9.17862e+06	-6.982407E-9	NaN
1050	1.000000	0.538536	7.37532e+06	-52639.1	1055.82	-29748.6	0.000000	0.000000	6.538938	-0.035768	NaN	0.000000	0.001646	0.001726	28.084	0.063536	0.001912	33.2383	-103.548	-165.802	0.051269	0.537201	-0.521963	-0.523298	-0.035768	33.2383	-0.521156	-6.75578e+06	5.294476E-9	NaN
1050	1.000000	0.546570	7.37532e+06	-52639.1	1055.82	-29748.6	0.000000	0.000000	6.546977	0.086669	NaN	0.000000	0.001612	0.001725	28.084	0.047355	0.001945	24.3451	108.107	-164.595	0.076097	0.545221	-0.513929	-0.515278	0.086669	24.3451	-0.516599	-5.83829e+06	-1.484486E-8	NaN
1050	1.000000	0.554531	7.37532e+06	-52639.1	1055.82	-29748.6	0.000000	0.000000	6.554936	0.008260	NaN	0.000000	0.001654	0.001728	28.0842	0.093677	0.001945	48.1605	21.2661	-165.835	0.049530	0.553239	-0.505967	-0.507260	0.008260	48.1605	-0.506096	-4.16889e+06	-1.981375E-9	NaN
1050	1.000000	0.562564	7.37532e+06	-52639.1	1055.82	-29748.6	0.000000	0.000000	6.562967	-0.031864	NaN	0.000000	0.001657	0.001738	28.0843	0.127421	0.002102	60.6138	-33.8721	-164.604	-0.081408	0.561279	-0.497934	-0.499220	-0.031864	60.6138	-0.497540	-3.16733e+06	1.006027E-8	NaN
1050	1.000000	0.570567	7.37532e+06	-52639.1	1055.82	-29748.6	0.000000	0.000000	6.570970	-0.033489	NaN	0.000000	0.001656	0.001751	28.084	0.098988	0.002077	47.6703	107.194	-167.847	0.037572	0.569273	-0.489932	-0.491226	-0.033489	47.6703	-0.489405	-2.43822e+06	1.373517E-8	NaN
1050	1.000000	0.578555	7.37532e+06	-52639.1	1055.82	-29748.6	0.000000	0.000000	6.578958	-0.017547	NaN	0.000000	0.001652	0.001715	28.0841	0.055373	0.002084	26.5758	-59.9876	-163.943	-0.033039	0.577229	-0.481944	-0.483269	-0.017547	26.5758	-0.481448	-1.88713e+06	9.298435E-9	NaN
1050	1.000000	0.586569	7.37532e+06	-52639.1	1055.82	-29748.6	0.000000	0.000000	6.586974	0.023841	NaN	0.000000	0.001644	0.001748	28.0842	0.126507	0.001992	63.5125	56.1137	-167.553	-0.039551	0.585292	-0.473930	-0.475207	0.023841	63.5125	-0.474212	-1.49435e+06	-1.595431E-8	NaN
1050	1.000000	0.594581	7.37532e+06	-52639.1	1055.82	-29748.6	0.000000	0.000000	6.594986	0.019857	NaN	0.000000	0.001650	0.001728	28.0841	0.059600	0.001991	29.9292	-53.5409	-166.777	-0.014286	0.593245	-0.465918	-0.467254	0.019857	29.9292	-0.466415	-1.16175e+06	-1.709221E-8	NaN
1050	1.000000	0.602580	7.37532e+06	-52639.1	1055.82	-29748.6	0.000000	0.000000	6.602982	-0.047033	NaN	0.000000	0.001659	0.001752	28.0845	0.111627	0.001832	60.9307	8.847518	-166.331	0.000639	0.601269	-0.457918	-0.459229	-0.047033	60.9307	-0.457339	-866203	5.429791E-8	NaN
1050	1.000000	0.610568	7.37532e+06	-52639.1	1055.82	-29748.6	0.000000	0.000000	6.610971	-0.027295	NaN	0.000000	0.001691	0.001725	28.0842	0.072567	0.002045	35.4879	23.2425	-162.711	-0.025256	0.609227	-0.449930	-0.451271	-0.027295	35.4879	-0.449353	-668710	4.081756E-8	NaN
1050	1.000000	0.618588	7.37532e+06	-52639.1	1055.82	-29748.6	0.000000	0.000000	6.618993	0.035671	NaN	0.000000	0.001664	0.001716	28.0844	0.065493	0.001930	33.9312	92.268	-164.573	-0.034740	0.617268	-0.441911	-0.443231	0.035671	33.9312	-0.442700	-538833	-6.619965E-8	NaN
1050	1.000000	0.626571	7.37532e+06	-52639.1	1055.82	-29748.6	0.000000	0.000000	6.626975	-0.012753	NaN	0.000000	0.001668	0.001710	28.0833	0.053951	0.002050	26.3193	-172.556	-166.425	0.014514	0.625266	-0.433927	-0.435232	-0.012753	26.3193	-0.433564	-400368	3.185359E-8	NaN
1050	1.000000	0.634594	7.37532e+06	-52639.1	1055.82	-29748.6	0.000000	0.000000	6.634996	-0.044601	NaN	0.000000	0.001639	0.001716	28.0828	0.090447	0.001961	46.116	-85.9091	-170.321	-0.013856	0.633268	-0.425904	-0.427231	-0.044601	46.116	-0.425179	-304663	1.463938E-7	NaN
1050	1.000000	0.642573	7.37532e+06	-52639.1	1055.82	-29748.6	0.000000	0.000000	6.642979	0.049391	NaN	0.000000	0.001632	0.001745	28.083	0.074894	0.002087	35.8794	-84.9969	-169.279	-0.012979	0.641312	-0.417926	-0.419187	0.049391	35.8794	-0.418958	-248677	-1.986146E-7	NaN
1050	1.000000	0.650584	7.37532e+06	-52639.1	1055.82	-29748.6	0.000000	0.000000	6.650987	-0.021091	NaN	0.000000	0.001672	0.001755	28.0827	0.042417	0.001923	22.0578	30.9366	-163.628	-0.002371	0.649314	-0.409915	-0.411185	-0.021091	22.0578	-0.409198	-180714	1.167106E-7	NaN
1050	1.000000	0.658599	7.37532e+06	-52639.1	1055.82	-29748.6	0.000000	0.000000	6.659002	-0.025329	NaN	0.000000	0.001683	0.001695	28.0829	0.077675	0.002072	37.4938	113.743	-163.971	-0.052635	0.657241	-0.401899	-0.403258	-0.025329	37.4938	-0.401393	-139911	1.810381E-7	NaN
1050	1.000000	0.666604	7.37532e+06	-52639.1	1055.82	-29748.6	0.000000	0.000000	6.667009	0.039321	NaN	0.000000	0.001643	0.001742	28.0828	0.029966	0.001989	15.0633	144.368	-166.803	-0.031819	0.665283	-0.393895	-0.395216	0.039321	15.0633	-0.395853	-116631	-3.371393E-7	NaN
1050	1.000000	0.674596	7.37532e+06	-52639.1	1055.82	-29748.6	0.000000	0.000000	6.675000	0.000773	NaN	0.000000	0.001665	0.001745	28.0827	0.049095	0.001931	25.4181	-155.181	-165.66	-0.023679	0.673338	-0.385903	-0.387161	0.000773	25.4181	-0.385926	-84110.5	-9.187677E-9	NaN
1050	1.000000	0.682589	7.37532e+06	-52639.1	1055.82	-29748.6	0.000000	0.000000	6.682994	0.025024	NaN	0.000000	0.001656	0.001757	28.0828	0.072429	0.002139	33.8589	-91.296	-168.513	0.088266	0.681307	-0.377910	-0.379191	0.025024	33.8589	-0.378464	-65741.3	-3.806392E-7	NaN
1050	1.000000	0.690610	7.37532e+06	-52639.1	1055.82	-29748.6	0.000000	0.000000	6.691013	-0.019663	NaN	0.000000	0.001661	0.001743	28.083	0.122712	0.001916	64.0532	-40.7142	-168.885	0.062294	0.689290	-0.369889	-0.371208	-0.019663	64.0532	-0.369659	-49115.3	4.003528E-7	NaN
1050	1.000000	0.698619	7.37532e+06	-52639.1	1055.82	-29748.6	0.000000	0.000000	6.699023	0.013351	NaN	0.000000	0.001668	0.001748	28.0827	0.026437	0.002009	13.1572	-109.057	-166.38	-0.019202	0.697262	-0.361880	-0.363237	0.013351	13.1572	-0.362641	-38905.1	-3.431696E-7	NaN
1050	1.000000	0.706625	7.37532e+06	-52639.1	1055.82	-29748.6	0.000000	0.000000	6.707026	-0.072953	NaN	0.000000	0.001614	0.001770	28.0827	0.183023	0.001984	92.2556	94.2459	-165.518	-0.068163	0.705329	-0.353873	-0.355170	-0.072953	92.2556	-0.353280	-28482.5	2.561341E-6	NaN
1050	1.000000	0.714606	7.37532e+06	-52639.1	1055.82	-29748.6	0.000000	0.000000	6.715011	0.018019	NaN	0.000000	0.001668	0.001739	28.0827	0.086701	0.001868	46.4073	-111.165	-164.54	0.011580	0.713284	-0.345893	-0.347215	0.018019	46.4073	-0.346184	-22468.4	-8.019549E-7	NaN
1050	1.000000	0.722637	7.37532e+06	-52639.1	1055.82	-29748.6	0.000000	0.000000	6.723041	0.015520	NaN	0.000000	0.001647	0.001752	28.0833	0.087449	0.001954	44.7646	-137.476	-164.669	-0.026783	0.721302	-0.337862	-0.339197	0.015520	44.7646	-0.338122	-17146.1	-9.051568E-7	NaN
1050	1.000000	0.730602	7.37532e+06	-52639.1	1055.82	-29748.6	0.000000	0.000000	6.731006	0.006134	NaN	0.000000	0.001638	0.001743	28.0827	0.046879	0.002224	21.0742	-129.178	-166.796	-0.056383	0.729330	-0.329897	-0.331169	0.006134	21.0742	-0.330115	-13096	-4.684083E-7	NaN
1050	1.000000	0.738642	7.37532e+06	-52639.1	1055.82	-29748.6	0.000000	0.000000	6.739047	0.027009	NaN	0.000000	0.001668	0.001735	28.0826	0.027265	0.002221	12.2738	72.1816	-167.041	-0.043044	0.737304	-0.321857	-0.323195	0.027009	12.2738	-0.323508	-10476.6	-2.578078E-6	NaN
1050	1.000000	0.746609	7.37532e+06	-52639.1	1055.82	-29748.6	0.000000	0.000000	6.747015	0.043980	NaN	0.000000	0.001644	0.001791	28.0827	0.012073	0.002023	5.967235	172.075	-166.229	-0.062450	0.745325	-0.313890	-0.315173	0.043980	5.967235	-0.319417	-9121.42	-4.821624E-6	NaN
1050	1.000000	0.754656	7.37532e+06	-52639.1	1055.82	-29748.6	0.000000	0.000000	6.755059	-0.000138	NaN	0.000000	0.001633	0.001738	28.0829	0.108158	0.001883	57.445	35.7928	-169.128	0.010466	0.753349	-0.305843	-0.307149	-0.000138	57.445	-0.305841	-5746.98	2.406358E-8	NaN
1050	1.000000	0.762666	7.37532e+06	-52639.1	1055.82	-29748.6	0.000000	0.000000	6.763071	0.020831	NaN	0.000000	0.001652	0.001762	28.0836	0.058793	0.002086	28.1875	90.7105	-168.453	-0.016991	0.761280	-0.297833	-0.299219	0.020831	28.1875	-0.298387	-4452.59	-4.678403E-6	NaN
1050	1.000000	0.770632	7.37532e+06	-52639.1	1055.82	-29748.6	0.000000	0.000000	6.771033	-0.076790	NaN	0.000000	0.001633	0.001756	28.0839	0.070080	0.002030	34.5289	139.876	-166.097	-0.042628	0.769311	-0.289866	-0.291188	-0.076790	34.5289	-0.288198	-3135.42	2.449128E-5	NaN
1050	1.000000	0.778622	7.37532e+06	-52639.1	1055.82	-29748.6	0.000000	0.000000	6.779027	0.012646	NaN	0.000000	0.001662	0.001752	28.0841	0.109438	0.002008	54.4968	111.697	-170.3	-0.070265	0.777351	-0.281877	-0.283147	0.012646	54.4968	-0.282051	-2534.44	-4.989548E-6	NaN
1050	1.000000	0.786677	7.37532e+06	-52639.1	1055.82	-29748.6	0.000000	0.000000	6.787083	0.041126	NaN	0.000000	0.001631	0.001742	28.0839	0.046047	0.002209	20.8475	34.0661	-164.892	0.065104	0.785339	-0.273821	-0.275160	0.041126	20.8475	-0.275301	-2004.27	-2.051905E-5	NaN
1050	1.000000	0.794645	7.37532e+06	-52639.1	1055.82	-29748.6	0.000000	0.000000	6.795047	-0.027185	NaN	0.000000	0.001649	0.001749	28.0841	0.122126	0.002113	57.789	47.7275	-167.022	0.043978	0.793357	-0.265854	-0.267142	-0.027185	57.789	-0.265501	-1422.46	1.911103E-5	NaN
1050	1.000000	0.802623	7.37532e+06	-52639.1	1055.82	-29748.6	0.000000	0.000000	6.803029	0.050599	NaN	0.000000	0.001661	0.001739	28.0841	0.065990	0.002074	31.8118	117.196	-168.641	0.129391	0.801346	-0.257876	-0.259153	0.050599	31.8118	-0.259069	-1134.07	-4.461685E-5	NaN
1050	1.000000	0.810656	7.37532e+06	-52639.1	1055.82	-29748.6	0.000000	0.000000	6.811062	0.053746	NaN	0.000000	0.001702	0.001748	28.0843	0.047367	0.002084	22.7268	24.6958	-164.443	-0.051924	0.809359	-0.249843	-0.251140	0.053746	22.7268	-0.251617	-870.867	-6.171496E-5	NaN
1050	1.000000	0.818649	7.37532e+06	-52639.1	1055.82	-29748.6	0.000000	0.000000	6.819050	-0.049728	NaN	0.000000	0.001706	0.001732	28.0839	0.064467	0.001977	32.6163	132.29	-167.502	-0.044446	0.817354	-0.241850	-0.243145	-0.049728	32.6163	-0.240707	-589.64	8.433658E-5	NaN
1050	1.000000	0.826680	7.37532e+06	-52639.1	1055.82	-29748.6	0.000000	0.000000	6.827085	0.040998	NaN	0.000000	0.001743	0.001755	28.084	0.035358	0.001948	18.1538	154.571	-167.096	0.060663	0.825347	-0.233819	-0.235152	0.040998	18.1538	-0.235513	-488.989	-8.384300E-5	NaN
1050	1.000000	0.834671	7.37532e+06	-52639.1	1055.82	-29748.6	0.000000	0.000000	6.835075	-0.006676	NaN	0.000000	0.001722	0.001741	28.084	0.063763	0.001995	31.9691	-28.606	-166.782	0.025936	0.833338	-0.225828	-0.227161	-0.006676	31.9691	-0.225671	-341.971	1.952241E-5	NaN
1050	1.000000	0.842669	7.37532e+06	-52639.1	1055.82	-29748.6	0.000000	0.000000	6.843069	-0.086032	NaN	0.000000	0.001737	0.001758	28.0841	0.062320	0.002029	30.717	-166.319	-167.502	-0.064226	0.841342	-0.217830	-0.219157	-0.086032	30.717	-0.215729	-237.269	0.000363	NaN
1050	1.000000	0.850670	7.37532e+06	-52639.1	1055.82	-29748.6	0.000000	0.000000	6.851075	0.028998	NaN	0.000000	0.001741	0.001703	28.0843	0.034948	0.002017	17.3291	-81.1454	-167.343	0.064643	0.849392	-0.209829	-0.211106	0.028998	17.3291	-0.211084	-199.69	-0.000145	NaN
1050	1.000000	0.858693	7.37532e+06	-52639.1	1055.82	-29748.6	0.000000	0.000000	6.859099	0.052894	NaN	0.000000	0.001691	0.001705	28.0838	0.066088	0.001996	33.106	-156.765	-162.915	-0.024216	0.857343	-0.201805	-0.203156	0.052894	33.106	-0.203004	-147.553	-0.000358	NaN
1050	1.000000	0.866687	7.37532e+06	-52639.1	1055.82	-29748.6	0.000000	0.000000	6.867091	-0.008823	NaN	0.000000	0.001714	0.001696	28.0845	0.061234	0.002006	30.5212	-126.343	-165.596	0.003749	0.865329	-0.193812	-0.195170	-0.008823	30.5212	-0.193595	-103.252	8.544655E-5	NaN
1050	1.000000	0.874663	7.37532e+06	-52639.1	1055.82	-29748.6	0.000000	0.000000	6.875064	-0.087301	NaN	0.000000	0.001734	0.001722	28.0842	0.106753	0.001901	56.154	-76.0949	-166.486	-0.014051	0.873394	-0.185836	-0.187104	-0.087301	56.154	-0.184670	-73.2084	0.001192	NaN
1050	1.000000	0.882698	7.37532e+06	-52639.1	1055.82	-29748.6	0.000000	0.000000	6.883104	0.046536	NaN	0.000000	0.001707	0.001755	28.0841	0.127723	0.001972	64.7833	-85.7118	-166.473	0.125147	0.881328	-0.177801	-0.179171	0.046536	64.7833	-0.178340	-57.1705	-0.000814	NaN
1050	1.000000	0.890674	7.37532e+06	-52639.1	1055.82	-29748.6	0.000000	0.000000	6.891077	-0.028728	NaN	0.000000	0.001687	0.001729	28.084	0.050069	0.002034	24.6121	143.367	-165.864	0.005736	0.889411	-0.169825	-0.171087	-0.028728	24.6121	-0.168949	-39.3868	0.000729	NaN
1050	1.000000	0.898710	7.37532e+06	-52639.1	1055.82	-29748.6	0.000000	0.000000	6.899113	-0.016597	NaN	0.000000	0.001652	0.001734	28.0837	0.025939	0.001984	13.0752	-112.8	-167.128	-0.015427	0.897354	-0.161789	-0.163145	-0.016597	13.0752	-0.160837	-28.3689	0.000585	NaN
1050	1.000000	0.906694	7.37532e+06	-52639.1	1055.82	-29748.6	0.000000	0.000000	6.907095	-0.063038	NaN	0.000000	0.001699	0.001715	28.083	0.045284	0.001988	22.7829	-90.5055	-166.408	-0.097506	0.905406	-0.153805	-0.155093	-0.063038	22.7829	-0.151730	-19.4751	0.003237	NaN
1050	1.000000	0.914720	7.37532e+06	-52639.1	1055.82	-29748.6	0.000000	0.000000	6.915122	-0.037923	NaN	0.000000	0.001716	0.001735	28.0827	0.138621	0.001918	72.2623	99.3904	-164.848	-0.017056	0.913407	-0.145779	-0.147092	-0.037923	72.2623	-0.145386	-14.9038	0.002545	NaN
1050	1.000000	0.922685	7.37532e+06	-52639.1	1055.82	-29748.6	0.000000	0.000000	6.923089	-0.016618	NaN	0.000000	0.001723	0.001718	28.0828	0.041236	0.001946	21.1907	-123.569	-167.574	0.063791	0.921379	-0.137813	-0.139119	-0.016618	21.1907	-0.137225	-10.4862	0.001585	NaN
1050	1.000000	0.930719	7.37532e+06	-52639.1	1055.82	-29748.6	0.000000	0.000000	6.931121	-0.054775	NaN	0.000000	0.001716	0.001724	28.0827	0.059736	0.002084	28.6639	22.773	-169.72	-0.043203	0.929406	-0.129780	-0.131092	-0.054775	28.6639	-0.128346	-7.076143	0.007741	NaN
1050	1.000000	0.938715	7.37532e+06	-52639.1	1055.82	-29748.6	0.000000	0.000000	6.939118	-0.038687	NaN	0.000000	0.001717	0.001744	28.0828	0.105850	0.001972	53.6763	177.467	-165.77	-0.038361	0.937409	-0.121784	-0.123090	-0.038687	53.6763	-0.121243	-5.118075	0.007559	NaN
1050	1.000000	0.946699	7.37532e+06	-52639.1	1055.82	-29748.6	0.000000	0.000000	6.947102	-0.009292	NaN	0.000000	0.001732	0.001695	28.083	0.094734	0.002012	47.0795	-106.712	-167.862	0.034986	0.945451	-0.113800	-0.115048	-0.009292	47.0795	-0.113652	-3.582883	0.002594	NaN
1050	1.000000	0.954725	7.37532e+06	-52639.1	1055.82	-29748.6	0.000000	0.000000	6.955131	0.041591	NaN	0.000000	0.001677	0.001736	28.0827	0.062495	0.002018	30.9753	-1.637468	-166.949	0.051464	0.953424	-0.105774	-0.107075	0.041591	30.9753	-0.106781	-2.567270	-0.016201	NaN
1050	1.000000	0.962719	7.37532e+06	-52639.1	1055.82	-29748.6	0.000000	0.000000	6.963126	0.083443	NaN	0.000000	0.001654	0.001717	28.083	0.033833	0.001964	17.2273	-165.391	-165.568	0.056069	0.961417	-0.097780	-0.099082	0.083443	17.2273	-0.101413	-1.963214	-0.042503	NaN
1050	1.000000	0.970742	7.37532e+06	-52639.1	1055.82	-29748.6	0.000000	0.000000	6.971144	-0.041010	NaN	0.000000	0.001627	0.001712	28.083	0.105826	0.001975	53.5961	-99.5703	-166.754	-0.045692	0.969458	-0.089757	-0.091041	-0.041010	53.5961	-0.089183	-1.034198	0.039653	NaN
1050	1.000000	0.978716	7.37532e+06	-52639.1	1055.82	-29748.6	0.000000	0.000000	6.979120	0.002300	NaN	0.000000	0.001658	0.001745	28.0828	0.105623	0.002052	51.4836	39.4301	-165.532	-0.011772	0.977458	-0.081783	-0.083041	0.002300	51.4836	-0.081816	-0.686808	-0.003349	NaN
1050	1.000000	0.986749	7.37532e+06	-52639.1	1055.82	-29748.6	0.000000	0.000000	6.987152	-0.003103	NaN	0.000000	0.001626	0.001731	28.0827	0.071277	0.002066	34.5025	-65.3528	-167.272	0.014128	0.985356	-0.073750	-0.075143	-0.003103	34.5025	-0.073683	-0.426861	0.007270	NaN
1050	1.000000	0.994742	7.37532e+06	-52639.1	1055.82	-29748.6	0.000000	0.000000	6.995145	-0.031063	NaN	0.000000	0.001688	0.001728	28.0827	0.094512	0.002066	45.7527	-121.663	-165.057	0.038811	0.993428	-0.065756	-0.067071	-0.031063	45.7527	-0.065247	-0.253180	0.122692	NaN
1050	1.000000	1.002743	7.37532e+06	-52639.1	1055.82	-29748.6	0.000000	0.000000	7.003146	-0.020734	NaN	0.000000	0.001656	0.001718	28.0829	0.044987	0.001898	23.7047	138.748	-167.005	0.046298	1.001431	-0.057756	-0.059068	-0.020734	23.7047	-0.057100	-0.148438	0.139683	NaN
1050	1.000000	1.010748	7.37532e+06	-52639.1	1055.82	-29748.6	0.000000	0.000000	7.011154	0.038049	NaN	0.000000	0.001681	0.001738	28.083	0.041996	0.001844	22.7705	117.879	-166.732	0.054133	1.009428	-0.049751	-0.051071	0.038049	22.7705	-0.051004	-0.097845	-0.388864	NaN
1050	1.000000	1.018741	7.37532e+06	-52639.1	1055.82	-29748.6	0.000000	0.000000	7.019146	0.016502	NaN	0.000000	0.001687	0.001757	28.083	0.076963	0.002039	37.7514	5.766791	-169.694	0.030221	1.017461	-0.041758	-0.043038	0.016502	37.7514	-0.042085	-0.052346	-0.315252	NaN
1050	1.000000	1.026756	7.37532e+06	-52639.1	1055.82	-29748.6	0.000000	0.000000	7.027163	0.073025	NaN	0.000000	0.001682	0.001765	28.0828	0.110625	0.001939	57.0405	-35.3064	-163.725	0.013802	1.025421	-0.033743	-0.035077	0.073025	57.0405	-0.034703	-0.031386	-2.326630	NaN
1050	1.000000	1.034723	7.37532e+06	-52639.1	1055.82	-29748.6	0.000000	0.000000	7.035127	-0.000279	NaN	0.000000	0.001657	0.001758	28.083	0.097212	0.002120	45.8559	-112.094	-162.739	-0.049594	1.033501	-0.025776	-0.026998	-0.000279	45.8559	-0.025771	-0.017675	0.015783	NaN
1050	1.000000	1.042755	7.37532e+06	-52639.1	1055.82	-29748.6	0.000000	0.000000	7.043159	-0.008788	NaN	0.000000	0.001687	0.001756	28.084	0.161410	0.001953	82.6448	-35.2567	-162.509	0.006517	1.041443	-0.017743	-0.019056	-0.008788	82.6448	-0.017664	-0.010940	0.803278	NaN
1050	1.000000	1.050736	7.37532e+06	-52639.1	1055.82	-29748.6	0.000000	0.000000	7.051141	0.024491	NaN	0.000000	0.001699	0.001754	28.084	0.099074	0.002029	48.8182	98.312	-165.878	-0.022351	1.049450	-0.009763	-0.011049	0.024491	48.8182	-0.010139	-0.006467	-3.787131	NaN
1050	1.000000	1.058746	7.37532e+06	-52639.1	1055.82	-29748.6	0.000000	0.000000	7.059147	-0.081192	NaN	0.000000	0.001687	0.001742	28.0844	0.078659	0.001995	39.4217	-30.8699	-162.952	-0.023648	1.057465	-0.001752	-0.003034	-0.081192	39.4217	-0.000208	-0.000155	525.082	NaN
1050	1.000000	1.066772	7.37532e+06	-52639.1	1055.82	-29748.6	0.000000	0.000000	7.067194	0.443382	NaN	0.000000	0.001689	0.001747	28.0841	0.793977	0.001988	399.401	4.060386	-167.356	0.081447	1.065454	0.006273	0.004955	0.443382	399.401	0.005441	0.004539	97.68	5416.21
1050	2.000000	1.073401	7.37532e+06	-52639.1	1055.82	-29748.6	0.000000	0.000000	7.074073	6.518222	NaN	0.000000	0.001660	0.001763	28.0844	7.757932	0.001715	4523.43	11.0715	-174.232	8.106843	1.073061	0.012902	0.012562	6.518222	4523.43	0.011821	0.011277	578.025	38917.9
1050	2.000000	1.075370	7.37532e+06	-52639.1	1055.82	-29748.6	0.000000	0.000000	7.076182	9.928892	NaN	0.000000	0.001613	0.001764	28.0841	10.4709	0.001752	5975.38	2.811409	-170.009	9.277150	1.075051	0.014871	0.014552	9.928892	5975.38	0.013625	0.013495	735.729	46994.6
1050	2.000000	1.077389	7.37532e+06	-52639.1	1055.82	-29748.6	0.000000	0.000000	7.078306	12.4657	NaN	0.000000	0.001670	0.001743	28.084	12.6451	0.001729	7312.74	9.443875	-174.477	13.9226	1.077000	0.016890	0.016502	12.4657	7312.74	0.015612	0.016110	773.799	52639.1
1050	2.000000	1.079335	7.37532e+06	-52639.1	1055.82	-29748.6	0.000000	0.000000	7.080407	16.2552	NaN	0.000000	0.001642	0.001750	28.0839	14.9021	0.001781	8367.3	7.241472	-175.87	15.2236	1.079053	0.018836	0.018554	16.2552	8367.3	0.017379	0.018590	874.404	56068.4
1050	2.000000	1.081360	7.37532e+06	-52639.1	1055.82	-29748.6	0.000000	0.000000	7.082522	18.4171	NaN	0.000000	0.001664	0.001758	28.0842	16.9178	0.001777	9521.83	5.686867	-175.299	17.1586	1.081023	0.020862	0.020525	18.4171	9521.83	0.019411	0.021625	851.659	59158.3
1050	2.000000	1.083348	7.37532e+06	-52639.1	1055.82	-29748.6	0.000000	0.000000	7.084626	21.2326	NaN	0.000000	0.001619	0.001741	28.0844	18.15	0.001753	10355.4	3.525436	-173.466	21.4992	1.083050	0.022850	0.022551	21.2326	10355.4	0.021312	0.024646	861.511	60265.4
1050	2.000000	1.085341	7.37532e+06	-52639.1	1055.82	-29748.6	0.000000	0.000000	7.086784	25.2751	NaN	0.000000	0.001619	0.001780	28.084	20.6503	0.001772	11650.5	5.126844	-177.431	23.9256	1.085021	0.024842	0.024522	25.2751	11650.5	0.023215	0.027848	907.595	63784.7
1050	2.000000	1.087333	7.37532e+06	-52639.1	1055.82	-29748.6	0.000000	0.000000	7.088968	29.9322	NaN	0.000000	0.001589	0.001746	28.0844	21.7853	0.001585	13747.3	3.854282	-177.663	29.975	1.087075	0.026834	0.026576	29.9322	13747.3	0.025201	0.031382	953.786	70900
1050	2.000000	1.089321	7.37532e+06	-52639.1	1055.82	-29748.6	0.000000	0.000000	7.091245	36.9708	NaN	0.000000	0.001663	0.001738	28.0843	25.5017	0.001784	14293.4	8.542221	177.82	36.4106	1.088964	0.028822	0.028466	36.9708	14293.4	0.026882	0.034529	1070.72	70277.9
1050	2.000000	1.091387	7.37532e+06	-52639.1	1055.82	-29748.6	0.000000	0.000000	7.093461	40.5963	NaN	0.000000	0.001644	0.001761	28.0842	27.2398	0.001845	14761.2	9.123972	178.703	41.4061	1.091018	0.030889	0.030519	40.5963	14761.2	0.028826	0.038346	1058.7	68871
1050	2.000000	1.093252	7.37532e+06	-52639.1	1055.82	-29748.6	0.000000	0.000000	7.095494	44.681	NaN	0.000000	0.001664	0.001761	28.0844	29.106	0.001762	16519.1	4.880426	179.82	42.6926	1.092978	0.032754	0.032479	44.681	16519.1	0.030725	0.042260	1057.3	73416.9
1050	2.000000	1.095279	7.37532e+06	-52639.1	1055.82	-29748.6	0.000000	0.000000	7.097630	47.3395	NaN	0.000000	0.001619	0.001739	28.084	30.9184	0.001781	17364.6	-0.676062	-175.218	45.3841	1.095066	0.034780	0.034567	47.3395	17364.6	0.032735	0.046604	1015.78	73489.6
1050	2.000000	1.097324	7.37532e+06	-52639.1	1055.82	-29748.6	0.000000	0.000000	7.099956	54.165	NaN	0.000000	0.001600	0.001713	28.0843	32.72	0.001655	19772	4.737250	178.263	55.9478	1.096962	0.036825	0.036464	54.165	19772	0.034771	0.051214	1057.63	79823.6
1050	2.000000	1.099288	7.37532e+06	-52639.1	1055.82	-29748.6	0.000000	0.000000	7.102222	61.5124	NaN	0.000000	0.001622	0.001730	28.0828	35.1108	0.001742	20151	5.120244	177.659	59.8756	1.098938	0.038789	0.038439	61.5124	20151	0.036500	0.055296	1112.42	78293
1050	2.000000	1.101354	7.37532e+06	-52639.1	1055.82	-29748.6	0.000000	0.000000	7.104491	66.4394	NaN	0.000000	0.001631	0.001732	28.0831	36.9647	0.001875	19719.3	6.897387	178.076	67.7535	1.100984	0.040856	0.040485	66.4394	19719.3	0.038329	0.059780	1111.39	73686.1
1050	2.000000	1.103251	7.37532e+06	-52639.1	1055.82	-29748.6	0.000000	0.000000	7.106683	73.6096	NaN	0.000000	0.001631	0.001741	28.0829	38.3508	0.001705	22491.4	5.581790	176.415	72.7247	1.102985	0.042753	0.042486	73.6096	22491.4	0.040298	0.064801	1135.93	80723.4
1050	2.000000	1.105246	7.37532e+06	-52639.1	1055.82	-29748.6	0.000000	0.000000	7.108913	79.3351	NaN	0.000000	0.001618	0.001718	28.0828	41.0225	0.001796	22842.4	0.960227	-179.277	76.9189	1.105059	0.044747	0.044560	79.3351	22842.4	0.042142	0.069681	1138.54	79060
1050	2.000000	1.107272	7.37532e+06	-52639.1	1055.82	-29748.6	0.000000	0.000000	7.111381	90.0818	NaN	0.000000	0.001638	0.001757	28.0831	42.9556	0.001898	22628.6	9.531605	173.355	88.1675	1.106910	0.046774	0.046411	90.0818	22628.6	0.043788	0.074184	1214.31	75906
1050	2.000000	1.109295	7.37532e+06	-52639.1	1055.82	-29748.6	0.000000	0.000000	7.113798	99.6794	NaN	0.000000	0.001631	0.001782	28.083	44.3391	0.001853	23925.6	4.171832	177.501	98.2523	1.108947	0.048796	0.048449	99.6794	23925.6	0.045671	0.079505	1253.75	77524.6
1050	2.000000	1.111293	7.37532e+06	-52639.1	1055.82	-29748.6	0.000000	0.000000	7.116281	111.453	NaN	0.000000	0.001634	0.001759	28.0837	46.7296	0.001855	25191.1	7.233321	175.066	111.251	1.110873	0.050794	0.050374	111.453	25191.1	0.047476	0.084771	1314.74	79049
1050	2.000000	1.113209	7.37532e+06	-52639.1	1055.82	-29748.6	0.000000	0.000000	7.118420	116.859	NaN	0.000000	0.001663	0.001801	28.0829	47.5773	0.001806	26345	2.146511	178.52	114.356	1.112926	0.052711	0.052427	116.859	26345	0.049384	0.090518	1291	80002.5
1050	2.000000	1.115276	7.37532e+06	-52639.1	1055.82	-29748.6	0.000000	0.000000	7.120791	124.253	NaN	0.000000	0.001654	0.001757	28.083	49.825	0.001757	28359.4	0.248568	179.812	122.907	1.114954	0.054778	0.054455	124.253	28359.4	0.051491	0.097079	1279.92	83158.9
1050	2.000000	1.117255	7.37532e+06	-52639.1	1055.82	-29748.6	0.000000	0.000000	7.122961	128.921	NaN	0.000000	0.001608	0.001766	28.083	51.2951	0.001862	27541.8	4.720552	175.795	126.503	1.117004	0.056756	0.056505	128.921	27541.8	0.053246	0.102709	1255.22	78516.7
1050	2.000000	1.119265	7.37532e+06	-52639.1	1055.82	-29748.6	0.000000	0.000000	7.125361	138.406	NaN	0.000000	0.001652	0.001745	28.0831	53.897	0.001865	28897.2	4.326287	176.777	139.03	1.118931	0.058766	0.058432	138.406	28897.2	0.055174	0.109073	1268.93	79940.9
1050	2.000000	1.121249	7.37532e+06	-52639.1	1055.82	-29748.6	0.000000	0.000000	7.127895	151.768	NaN	0.000000	0.001623	0.001748	28.0836	55.3543	0.001928	28703.8	6.135794	175.64	149.45	1.120860	0.060750	0.060361	151.768	28703.8	0.056785	0.114533	1325.11	77490.4
1050	2.000000	1.123257	7.37532e+06	-52639.1	1055.82	-29748.6	0.000000	0.000000	7.130214	159.335	NaN	0.000000	0.001666	0.001763	28.0828	56.9165	0.001827	31158.7	2.857182	177.075	159.045	1.122901	0.062758	0.062402	159.335	31158.7	0.058923	0.121973	1306.31	81511.8
1050	2.000000	1.125298	7.37532e+06	-52639.1	1055.82	-29748.6	0.000000	0.000000	7.132570	166.974	NaN	0.000000	0.001631	0.001745	28.0832	58.8411	0.001901	30949.9	2.280123	177.351	168.429	1.125028	0.064800	0.064529	166.974	30949.9	0.060753	0.128524	1299.16	78875.2
1050	2.000000	1.127248	7.37532e+06	-52639.1	1055.82	-29748.6	0.000000	0.000000	7.135103	181.172	NaN	0.000000	0.001594	0.001715	28.083	60.0272	0.001856	32339.5	6.986711	172.374	180.519	1.126862	0.066749	0.066363	181.172	32339.5	0.062548	0.135102	1341	80385.2
1050	2.000000	1.129132	7.37532e+06	-52639.1	1055.82	-29748.6	0.000000	0.000000	7.137158	185.329	NaN	0.000000	0.001627	0.001754	28.0829	61.1861	0.001794	34103.2	3.680328	174.283	179.242	1.128934	0.068633	0.068435	185.329	34103.2	0.064557	0.142656	1299.14	82494.2
1050	2.000000	1.131226	7.37532e+06	-52639.1	1055.82	-29748.6	0.000000	0.000000	7.139780	198.151	NaN	0.000000	0.001650	0.001725	28.0835	62.5584	0.001746	35821.4	1.069625	177.839	194.717	1.130925	0.070727	0.070426	198.151	35821.4	0.066579	0.150449	1317.07	84376.5
1050	2.000000	1.133179	7.37532e+06	-52639.1	1055.82	-29748.6	0.000000	0.000000	7.142450	215.599	NaN	0.000000	0.001656	0.001725	28.0843	64.0022	0.001710	37419.3	2.957311	175.392	211.953	1.132760	0.072680	0.072261	215.599	37419.3	0.068359	0.157476	1369.09	86151.1
1050	2.000000	1.135252	7.37532e+06	-52639.1	1055.82	-29748.6	0.000000	0.000000	7.144672	219.209	NaN	0.000000	0.001657	0.001782	28.0843	68.4115	0.001834	37305.1	5.135912	173.252	217.723	1.135015	0.074753	0.074517	219.209	37305.1	0.070346	0.165499	1324.53	83780.6
1050	2.000000	1.137208	7.37532e+06	-52639.1	1055.82	-29748.6	0.000000	0.000000	7.147214	233.46	NaN	0.000000	0.001670	0.001741	28.0841	68.8408	0.001744	39465.3	1.545464	176.353	231.234	1.136882	0.076710	0.076383	233.46	39465.3	0.072273	0.173457	1345.93	86575.1
1050	2.000000	1.139122	7.37532e+06	-52639.1	1055.82	-29748.6	0.000000	0.000000	7.149315	238.034	NaN	0.000000	0.001672	0.001733	28.0841	72.5767	0.001753	41402.7	4.053309	172.683	232.007	1.138953	0.078623	0.078454	238.034	41402.7	0.074311	0.182065	1307.42	88652.2
1050	2.000000	1.141339	7.37532e+06	-52639.1	1055.82	-29748.6	0.000000	0.000000	7.152133	252.61	NaN	0.000000	0.001689	0.001745	28.0843	74.6601	0.001871	39907.3	6.175806	171.667	254.901	1.140977	0.080841	0.080478	252.61	39907.3	0.076093	0.189754	1331.25	83700.8
1050	2.000000	1.143146	7.37532e+06	-52639.1	1055.82	-29748.6	0.000000	0.000000	7.154405	263.919	NaN	0.000000	0.001676	0.001736	28.0843	75.6494	0.001791	42240	1.975762	175.038	258.739	1.142884	0.082647	0.082385	263.919	42240	0.077961	0.197973	1333.11	86735
1050	2.000000	1.145242	7.37532e+06	-52639.1	1055.82	-29748.6	0.000000	0.000000	7.157124	279.078	NaN	0.000000	0.001689	0.001739	28.0844	78.4035	0.001800	43558	10.1109	167.54	278.847	1.144786	0.084743	0.084287	279.078	43558	0.079938	0.206846	1349.2	87501.8
1050	2.000000	1.147168	7.37532e+06	-52639.1	1055.82	-29748.6	0.000000	0.000000	7.159571	291.75	NaN	0.000000	0.001694	0.001708	28.0843	78.0016	0.001674	46606	4.006882	172.806	288.806	1.146982	0.086669	0.086484	291.75	46606	0.081974	0.216179	1349.57	91581.5
1050	2.000000	1.149194	7.37532e+06	-52639.1	1055.82	-29748.6	0.000000	0.000000	7.161967	300.752	NaN	0.000000	0.001706	0.001737	28.0844	81.4292	0.001813	44918.7	3.425719	173.375	297.716	1.148851	0.088695	0.088352	300.752	44918.7	0.083673	0.224114	1341.96	86689.3
1050	2.000000	1.151368	7.37532e+06	-52639.1	1055.82	-29748.6	0.000000	0.000000	7.164380	306.547	NaN	0.000000	0.001692	0.001745	28.0845	83.2895	0.001771	47030.3	4.002493	172.559	312.532	1.151057	0.090870	0.090558	306.547	47030.3	0.085981	0.235104	1303.88	88617.8
1050	2.000000	1.153264	7.37532e+06	-52639.1	1055.82	-29748.6	0.000000	0.000000	7.166717	317.293	NaN	0.000000	0.001692	0.001739	28.0842	84.042	0.001714	49027.7	2.089898	173.7	317.785	1.153139	0.092765	0.092641	317.293	49027.7	0.087911	0.244484	1297.81	90592
1050	2.000000	1.155252	7.37532e+06	-52639.1	1055.82	-29748.6	0.000000	0.000000	7.169607	339.229	NaN	0.000000	0.001683	0.001749	28.0844	88.2314	0.001845	47813.7	6.095367	170.364	340.426	1.154879	0.094753	0.094381	339.229	47813.7	0.089432	0.251995	1346.17	87022.1
1050	2.000000	1.157188	7.37532e+06	-52639.1	1055.82	-29748.6	0.000000	0.000000	7.172241	356.18	NaN	0.000000	0.001674	0.001770	28.0842	87.5268	0.001752	49948.7	2.910262	174.143	355.145	1.156922	0.096689	0.096423	356.18	49948.7	0.091341	0.261578	1361.66	89227.2
1050	2.000000	1.159135	7.37532e+06	-52639.1	1055.82	-29748.6	0.000000	0.000000	7.174550	364.991	NaN	0.000000	0.001689	0.001746	28.0847	89.8874	0.001839	48878.9	2.112325	174.571	360.236	1.158843	0.098636	0.098344	364.991	48878.9	0.093035	0.270219	1350.72	85908.7
1050	2.000000	1.161217	7.37532e+06	-52639.1	1055.82	-29748.6	0.000000	0.000000	7.177172	378.12	NaN	0.000000	0.001667	0.001743	28.0845	92.4497	0.001891	48891.5	5.295412	171.403	376.684	1.160839	0.100718	0.100340	378.12	48891.5	0.094918	0.279975	1350.55	84420.4
1050	2.000000	1.163149	7.37532e+06	-52639.1	1055.82	-29748.6	0.000000	0.000000	7.179807	395.203	NaN	0.000000	0.001674	0.001736	28.0842	93.7796	0.001794	52268.3	5.755031	170.155	390.335	1.162920	0.102650	0.102422	395.203	52268.3	0.096980	0.290845	1358.81	88548.4
1050	2.000000	1.165287	7.37532e+06	-52639.1	1055.82	-29748.6	0.000000	0.000000	7.182281	403.365	NaN	0.000000	0.001642	0.001758	28.0845	97.153	0.001843	52728.5	6.816433	168.832	405.326	1.165051	0.104789	0.104553	403.365	52728.5	0.099051	0.301963	1335.81	87668.2
1050	2.000000	1.167228	7.37532e+06	-52639.1	1055.82	-29748.6	0.000000	0.000000	7.185255	428.492	NaN	0.000000	0.001667	0.001748	28.0832	98.1379	0.001770	55457.1	10.5829	166.129	430.464	1.166823	0.106729	0.106324	428.492	55457.1	0.100934	0.312234	1372.34	90675.4
1050	2.000000	1.169132	7.37532e+06	-52639.1	1055.82	-29748.6	0.000000	0.000000	7.187603	439.299	NaN	0.000000	0.001750	0.001741	28.0831	99.7295	0.001823	54719.1	4.601297	171.01	435.823	1.168853	0.108633	0.108354	439.299	54719.1	0.102612	0.321526	1366.29	88166.7
1050	2.000000	1.171195	7.37532e+06	-52639.1	1055.82	-29748.6	0.000000	0.000000	7.190370	456.411	NaN	0.000000	0.001726	0.001717	28.0831	102.004	0.001869	54577.4	5.554094	170.153	453.451	1.170815	0.110696	0.110316	456.411	54577.4	0.104424	0.331704	1375.96	86578.7