File: remote_trans/data/nanoindenter/0828-1/data/Data_2025-08-06,11h17m57s/2025-07-22_16-23-58_1_767.txt
2025-07-22, 16:23:58, 1
Index	Phase	Displacement	Time	Pos X	Pos Y	Pos Z	Rot A	Rot B	Piezo Z	Force A	Force B	Gripper	Voltage A	Voltage B	Temperature	Amplitude force	Amplitude pos	Stiffness	Phase shift	Phase excitation	Force A raw	Displacement raw	HMax	HMax raw	Real Force	Real Stiffness	Contact Depth	Area	Hardness	Reduced Mod.
[#]	[#]	[um]	[s]	[um]	[um]	[um]	[m°]	[m°]	[um]	[uN]	[uN]	[V]	[V]	[V]	[°C]	[uN]	[um]	[N/m]	[°]	[°]	[uN]	[um]	[um]	[um]	[uN]	[N/m]	[um]	[um^2]	[MPa]	[MPa]
767	1.000000	0.002530	7.37256e+06	-38739.1	1005.82	-29796.3	0.000000	0.000000	6.002830	-0.062367	NaN	0.000000	0.001611	0.001807	28.0842	0.097475	0.000947	102.906	-1.105549	-164.322	-0.128794	0.001215	-1.114870	-1.116184	-0.062367	102.906	-1.114415	-7.825941E+14	7.969240E-17	NaN
767	1.000000	0.012573	7.37256e+06	-38739.1	1005.82	-29796.3	0.000000	0.000000	6.012876	-0.018384	NaN	0.000000	0.001568	0.001812	28.0834	0.060025	0.001261	47.5969	-113.646	13.7524	0.003661	0.011095	-1.104826	-1.106304	-0.018384	47.5969	-1.104536	-5.767143E+14	3.187727E-17	NaN
767	1.000000	0.022471	7.37256e+06	-38739.1	1005.82	-29796.3	0.000000	0.000000	6.022778	0.062428	NaN	0.000000	0.001582	0.001813	28.084	0.083352	0.001711	48.708	-87.9335	-168.484	0.063338	0.021125	-1.094928	-1.096275	0.062428	48.708	-1.095889	-4.414485E+14	-1.414173E-16	NaN
767	1.000000	0.032443	7.37256e+06	-38739.1	1005.82	-29796.3	0.000000	0.000000	6.032749	0.073549	NaN	0.000000	0.001577	0.001795	28.0837	0.093933	0.001814	51.7754	166.107	10.9857	0.037657	0.031100	-1.084956	-1.086300	0.073549	51.7754	-1.086022	-3.253815E+14	-2.260403E-16	NaN
767	1.000000	0.042445	7.37256e+06	-38739.1	1005.82	-29796.3	0.000000	0.000000	6.042751	0.046849	NaN	0.000000	0.001585	0.001817	28.084	0.174156	0.002127	81.8619	-107.133	-167.171	-0.012308	0.041137	-1.074954	-1.076262	0.046849	81.8619	-1.075383	-2.341553E+14	-2.000787E-16	NaN
767	1.000000	0.052450	7.37256e+06	-38739.1	1005.82	-29796.3	0.000000	0.000000	6.052752	-0.028271	NaN	0.000000	0.001608	0.001809	28.0837	0.048931	0.002130	22.971	-94.0062	12.0486	-0.133270	0.051066	-1.064949	-1.066333	-0.028271	22.971	-1.064026	-1.647871E+14	1.715627E-16	NaN
767	1.000000	0.062438	7.37256e+06	-38739.1	1005.82	-29796.3	0.000000	0.000000	6.062743	0.028879	NaN	0.000000	0.001589	0.001823	28.0839	0.121418	0.002012	60.3621	-99.6332	-167.478	0.019355	0.061102	-1.054961	-1.056297	0.028879	60.3621	-1.055320	-1.258690E+14	-2.294348E-16	NaN
767	1.000000	0.072471	7.37256e+06	-38739.1	1005.82	-29796.3	0.000000	0.000000	6.072778	0.070575	NaN	0.000000	0.001589	0.001835	28.084	0.055209	0.002009	27.4765	-61.2019	12.7405	0.063810	0.071095	-1.044928	-1.046304	0.070575	27.4765	-1.046854	-9.685587E+13	-7.286631E-16	NaN
767	1.000000	0.082454	7.37256e+06	-38739.1	1005.82	-29796.3	0.000000	0.000000	6.082758	-0.000431	NaN	0.000000	0.001620	0.001802	28.0838	0.059544	0.001988	29.9577	105.305	-167.888	-0.117646	0.081141	-1.034945	-1.036259	-0.000431	29.9577	-1.034934	-6.696490E+13	6.437259E-18	NaN
767	1.000000	0.092471	7.37256e+06	-38739.1	1005.82	-29796.3	0.000000	0.000000	6.092778	0.087039	NaN	0.000000	0.001580	0.001826	28.0837	0.105153	0.001977	53.1984	-126.501	12.2711	0.113235	0.091058	-1.024928	-1.026342	0.087039	53.1984	-1.026156	-5.102308E+13	-1.705882E-15	NaN
767	1.000000	0.102467	7.37256e+06	-38739.1	1005.82	-29796.3	0.000000	0.000000	6.102768	-0.055803	NaN	0.000000	0.001609	0.001785	28.0827	0.061240	0.001991	30.7551	144.567	-169.306	-0.134929	0.101140	-1.014933	-1.016259	-0.055803	30.7551	-1.013572	-3.455036E+13	1.615123E-15	NaN
767	1.000000	0.112465	7.37256e+06	-38739.1	1005.82	-29796.3	0.000000	0.000000	6.112767	-0.027455	NaN	0.000000	0.001597	0.001803	28.083	0.078831	0.002019	39.0493	105.882	9.970950	-0.073460	0.111122	-1.004934	-1.006277	-0.027455	39.0493	-1.004407	-2.600757E+13	1.055639E-15	NaN
767	1.000000	0.122449	7.37256e+06	-38739.1	1005.82	-29796.3	0.000000	0.000000	6.122752	-0.012218	NaN	0.000000	0.001592	0.001814	28.0829	0.077559	0.001969	39.3947	-1.584037	-170.454	-0.029079	0.121137	-0.994950	-0.996262	-0.012218	39.3947	-0.994718	-1.925945E+13	6.343998E-16	NaN
767	1.000000	0.132462	7.37256e+06	-38739.1	1005.82	-29796.3	0.000000	0.000000	6.132767	0.016900	NaN	0.000000	0.001590	0.001795	28.0827	0.111554	0.001900	58.7068	161.309	13.8054	-0.008983	0.131045	-0.984937	-0.986354	0.016900	58.7068	-0.985153	-1.431610E+13	-1.180463E-15	NaN
767	1.000000	0.142469	7.37256e+06	-38739.1	1005.82	-29796.3	0.000000	0.000000	6.142773	0.015355	NaN	0.000000	0.001617	0.001762	28.0828	0.028881	0.002005	14.4074	133.291	-165.671	0.036909	0.141110	-0.974931	-0.976289	0.015355	14.4074	-0.975730	-1.068753E+13	-1.436745E-15	NaN
767	1.000000	0.152500	7.37256e+06	-38739.1	1005.82	-29796.3	0.000000	0.000000	6.152803	-0.001273	NaN	0.000000	0.001617	0.001786	28.0827	0.039900	0.002067	19.3068	-141.43	15.793	0.099085	0.151149	-0.964899	-0.966251	-0.001273	19.3068	-0.964850	-7.625121E+12	1.670017E-16	NaN
767	1.000000	0.162455	7.37256e+06	-38739.1	1005.82	-29796.3	0.000000	0.000000	6.162756	-0.063184	NaN	0.000000	0.001608	0.001791	28.0827	0.120307	0.001936	62.1429	-137.505	-169.951	-0.067335	0.161202	-0.954944	-0.956197	-0.063184	62.1429	-0.954182	-5.475425E+12	1.153959E-14	NaN
767	1.000000	0.172489	7.37256e+06	-38739.1	1005.82	-29796.3	0.000000	0.000000	6.172794	0.021719	NaN	0.000000	0.001630	0.001785	28.0826	0.040672	0.001917	21.22	73.2264	15.5182	0.039558	0.171147	-0.944910	-0.946252	0.021719	21.22	-0.945677	-4.204608E+12	-5.165537E-15	NaN
767	1.000000	0.182482	7.37256e+06	-38739.1	1005.82	-29796.3	0.000000	0.000000	6.182783	-0.068673	NaN	0.000000	0.001599	0.001854	28.0829	0.028081	0.001985	14.1468	-132.404	-164.411	-0.036511	0.181192	-0.934917	-0.936208	-0.068673	14.1468	-0.931276	-2.687957E+12	2.554850E-14	NaN
767	1.000000	0.192511	7.37256e+06	-38739.1	1005.82	-29796.3	0.000000	0.000000	6.192815	0.022371	NaN	0.000000	0.001611	0.001775	28.0826	0.094253	0.001954	48.2479	172.434	13.5212	0.081317	0.191139	-0.924888	-0.926260	0.022371	48.2479	-0.925236	-2.227890E+12	-1.004123E-14	NaN
767	1.000000	0.202503	7.37256e+06	-38739.1	1005.82	-29796.3	0.000000	0.000000	6.202807	0.024580	NaN	0.000000	0.001688	0.001789	28.0825	0.104409	0.001929	54.1356	-179.973	-167.296	0.058565	0.201183	-0.914896	-0.916217	0.024580	54.1356	-0.915237	-1.632644E+12	-1.505557E-14	NaN
767	1.000000	0.212506	7.37256e+06	-38739.1	1005.82	-29796.3	0.000000	0.000000	6.212809	-0.005156	NaN	0.000000	0.001687	0.001738	28.0825	0.031783	0.001957	16.2386	126.793	13.2321	0.013090	0.211096	-0.904894	-0.906303	-0.005156	16.2386	-0.904655	-1.174808E+12	4.388696E-15	NaN
767	1.000000	0.222504	7.37256e+06	-38739.1	1005.82	-29796.3	0.000000	0.000000	6.222806	-0.051313	NaN	0.000000	0.001655	0.001782	28.0825	0.056489	0.002133	26.4827	-99.7951	-170.092	-0.028030	0.221228	-0.894895	-0.896171	-0.051313	26.4827	-0.893442	-8.287803E+11	6.191329E-14	NaN
767	1.000000	0.232527	7.37256e+06	-38739.1	1005.82	-29796.3	0.000000	0.000000	6.232831	-0.001922	NaN	0.000000	0.001627	0.001756	28.0837	0.070582	0.002060	34.267	-48.0367	14.0199	-0.011621	0.231114	-0.884872	-0.886285	-0.001922	34.267	-0.884830	-6.338946E+11	3.032259E-15	NaN
767	1.000000	0.242534	7.37256e+06	-38739.1	1005.82	-29796.3	0.000000	0.000000	6.242837	0.011120	NaN	0.000000	0.001617	0.001799	28.0839	0.096585	0.001887	51.1849	10.1807	-168.649	-0.014674	0.241225	-0.874866	-0.876174	0.011120	51.1849	-0.875029	-4.671658E+11	-2.380407E-14	NaN
767	1.000000	0.252532	7.37256e+06	-38739.1	1005.82	-29796.3	0.000000	0.000000	6.252837	0.036865	NaN	0.000000	0.001624	0.001816	28.0841	0.101425	0.002001	50.6831	-41.481	13.4975	-0.026020	0.251197	-0.864867	-0.866202	0.036865	50.6831	-0.865413	-3.462377E+11	-1.064737E-13	NaN
767	1.000000	0.262525	7.37256e+06	-38739.1	1005.82	-29796.3	0.000000	0.000000	6.262828	-0.010560	NaN	0.000000	0.001558	0.001785	28.0841	0.053720	0.002023	26.5572	17.1428	-166.655	-0.069554	0.261177	-0.854875	-0.856222	-0.010560	26.5572	-0.854576	-2.470033E+11	4.275424E-14	NaN
767	1.000000	0.272547	7.37256e+06	-38739.1	1005.82	-29796.3	0.000000	0.000000	6.272852	0.041833	NaN	0.000000	0.001597	0.001808	28.0839	0.081702	0.001973	41.405	29.414	13.5802	0.083117	0.271227	-0.844852	-0.846172	0.041833	41.405	-0.845610	-1.867611E+11	-2.239920E-13	NaN
767	1.000000	0.282527	7.37256e+06	-38739.1	1005.82	-29796.3	0.000000	0.000000	6.282834	0.082451	NaN	0.000000	0.001605	0.001826	28.0838	0.043488	0.001987	21.8873	-5.905300	-165.443	-0.022963	0.281217	-0.834872	-0.836182	0.082451	21.8873	-0.837698	-1.459148E+11	-5.650638E-13	NaN
767	1.000000	0.292545	7.37256e+06	-38739.1	1005.82	-29796.3	0.000000	0.000000	6.292846	-0.055382	NaN	0.000000	0.001640	0.001796	28.0839	0.079411	0.002049	38.7468	-46.1204	10.6732	-0.103030	0.291208	-0.824854	-0.826191	-0.055382	38.7468	-0.823782	-9.451392E+10	5.859705E-13	NaN
767	1.000000	0.302530	7.37256e+06	-38739.1	1005.82	-29796.3	0.000000	0.000000	6.302833	-0.015327	NaN	0.000000	0.001607	0.001814	28.0838	0.150330	0.002120	70.9021	-78.3516	-165.923	-0.021405	0.301234	-0.814869	-0.816165	-0.015327	70.9021	-0.814707	-7.119081E+10	2.152964E-13	NaN
767	1.000000	0.312554	7.37256e+06	-38739.1	1005.82	-29796.3	0.000000	0.000000	6.312860	0.062549	NaN	0.000000	0.001585	0.001748	28.0838	0.064311	0.001886	34.0933	-155.751	14.1132	-0.039657	0.311203	-0.804845	-0.806196	0.062549	34.0933	-0.806221	-5.461361E+10	-1.145297E-12	NaN
767	1.000000	0.322562	7.37256e+06	-38739.1	1005.82	-29796.3	0.000000	0.000000	6.322864	-0.037770	NaN	0.000000	0.001603	0.001791	28.0837	0.059535	0.002077	28.658	-40.1236	-167.811	-0.038498	0.321221	-0.794837	-0.796178	-0.037770	28.658	-0.793848	-3.709748E+10	1.018142E-12	NaN
767	1.000000	0.332594	7.37256e+06	-38739.1	1005.82	-29796.3	0.000000	0.000000	6.332897	0.000589	NaN	0.000000	0.001609	0.001771	28.0837	0.075299	0.002156	34.9198	177.976	14.7011	-0.018970	0.331158	-0.784806	-0.786242	0.000589	34.9198	-0.784818	-2.797029E+10	-2.104559E-14	NaN
767	1.000000	0.342559	7.37256e+06	-38739.1	1005.82	-29796.3	0.000000	0.000000	6.342867	0.116026	NaN	0.000000	0.001591	0.001785	28.0834	0.029724	0.002039	14.58	-75.0139	-164.079	-0.002965	0.341253	-0.774841	-0.776146	0.116026	14.58	-0.780809	-2.467313E+10	-4.702544E-12	NaN
767	1.000000	0.352567	7.37256e+06	-38739.1	1005.82	-29796.3	0.000000	0.000000	6.352870	-0.022303	NaN	0.000000	0.001607	0.001782	28.0834	0.077721	0.001978	39.2849	-99.327	14.5846	-0.043461	0.351206	-0.764832	-0.766193	-0.022303	39.2849	-0.764406	-1.476507E+10	1.510552E-12	NaN
767	1.000000	0.362571	7.37256e+06	-38739.1	1005.82	-29796.3	0.000000	0.000000	6.362873	-0.020603	NaN	0.000000	0.001601	0.001802	28.0835	0.025900	0.002168	11.9477	165.765	-168.775	-0.036313	0.361298	-0.754829	-0.756101	-0.020603	11.9477	-0.753535	-1.050358E+10	1.961494E-12	NaN
767	1.000000	0.372579	7.37256e+06	-38739.1	1005.82	-29796.3	0.000000	0.000000	6.372882	-0.012434	NaN	0.000000	0.001628	0.001739	28.082	0.069059	0.002002	34.5009	-77.9761	15.8479	-0.034323	0.371184	-0.744820	-0.746215	-0.012434	34.5009	-0.744550	-7.925411E+9	1.568851E-12	NaN
767	1.000000	0.382585	7.37256e+06	-38739.1	1005.82	-29796.3	0.000000	0.000000	6.382889	0.006664	NaN	0.000000	0.001621	0.001782	28.0819	0.023864	0.001873	12.7416	63.1533	-164.675	-0.025634	0.381290	-0.734814	-0.736109	0.006664	12.7416	-0.735206	-5.912260E+9	-1.127222E-12	NaN
767	1.000000	0.392591	7.37256e+06	-38739.1	1005.82	-29796.3	0.000000	0.000000	6.392894	-0.026244	NaN	0.000000	0.001603	0.001775	28.0822	0.034917	0.001963	17.7879	-140.164	12.1889	0.016253	0.391210	-0.724808	-0.726189	-0.026244	17.7879	-0.723702	-4.120485E+9	6.369271E-12	NaN
767	1.000000	0.402628	7.37256e+06	-38739.1	1005.82	-29796.3	0.000000	0.000000	6.402929	-0.046792	NaN	0.000000	0.001587	0.001796	28.0824	0.080566	0.002015	39.9901	42.3227	-166.656	-0.072748	0.401244	-0.714771	-0.716155	-0.046792	39.9901	-0.713894	-3.028170E+9	1.545224E-11	NaN
767	1.000000	0.412594	7.37256e+06	-38739.1	1005.82	-29796.3	0.000000	0.000000	6.412896	-0.024738	NaN	0.000000	0.001616	0.001763	28.082	0.072866	0.001971	36.9662	-142.593	11.626	0.043895	0.411232	-0.704805	-0.706167	-0.024738	36.9662	-0.704304	-2.240237E+9	1.104253E-11	NaN
767	1.000000	0.422579	7.37256e+06	-38739.1	1005.82	-29796.3	0.000000	0.000000	6.422881	-0.031276	NaN	0.000000	0.001590	0.001765	28.0822	0.094791	0.001989	47.6504	-108.952	-168.473	-0.024036	0.421319	-0.694820	-0.696080	-0.031276	47.6504	-0.694328	-1.637023E+9	1.910531E-11	NaN
767	1.000000	0.432607	7.37256e+06	-38739.1	1005.82	-29796.3	0.000000	0.000000	6.432909	-0.018052	NaN	0.000000	0.001571	0.001791	28.0824	0.114221	0.001943	58.7844	171.721	10.8729	-0.045790	0.431248	-0.684793	-0.686151	-0.018052	58.7844	-0.684562	-1.203903E+9	1.499453E-11	NaN
767	1.000000	0.442604	7.37256e+06	-38739.1	1005.82	-29796.3	0.000000	0.000000	6.442908	0.014217	NaN	0.000000	0.001579	0.001747	28.0822	0.042417	0.002019	21.0081	107.911	-167.632	0.065904	0.441234	-0.674795	-0.676166	0.014217	21.0081	-0.675302	-8.993913E+8	-1.580718E-11	NaN
767	1.000000	0.452635	7.37256e+06	-38739.1	1005.82	-29796.3	0.000000	0.000000	6.452938	-0.012393	NaN	0.000000	0.001576	0.001805	28.0822	0.066443	0.001995	33.309	149.518	15.1799	-0.035626	0.451266	-0.664764	-0.666133	-0.012393	33.309	-0.664485	-6.395746E+8	1.937696E-11	NaN
767	1.000000	0.462637	7.37256e+06	-38739.1	1005.82	-29796.3	0.000000	0.000000	6.462939	-0.029051	NaN	0.000000	0.001597	0.001763	28.0823	0.032899	0.001979	16.6218	-127.742	-167.948	-0.018088	0.461349	-0.654762	-0.656050	-0.029051	16.6218	-0.653452	-4.515942E+8	6.432939E-11	NaN
767	1.000000	0.472614	7.37256e+06	-38739.1	1005.82	-29796.3	0.000000	0.000000	6.472919	0.047575	NaN	0.000000	0.001667	0.001818	28.0825	0.024878	0.002086	11.9233	-175.098	13.6426	0.043294	0.471282	-0.644785	-0.646117	0.047575	11.9233	-0.647778	-3.775479E+8	-1.260108E-10	NaN
767	1.000000	0.482632	7.37256e+06	-38739.1	1005.82	-29796.3	0.000000	0.000000	6.482935	-0.028170	NaN	0.000000	0.001676	0.001790	28.0826	0.069592	0.001979	35.1655	-168.288	-164.468	0.046255	0.481366	-0.634767	-0.636034	-0.028170	35.1655	-0.634166	-2.455987E+8	1.146995E-10	NaN
767	1.000000	0.492638	7.37256e+06	-38739.1	1005.82	-29796.3	0.000000	0.000000	6.492941	-0.014986	NaN	0.000000	0.001703	0.001774	28.0823	0.054086	0.002063	26.2157	12.9069	11.8212	-0.018933	0.491284	-0.624762	-0.626115	-0.014986	26.2157	-0.624333	-1.799610E+8	8.327425E-11	NaN
767	1.000000	0.502652	7.37256e+06	-38739.1	1005.82	-29796.3	0.000000	0.000000	6.502953	-0.058442	NaN	0.000000	0.001657	0.001772	28.0824	0.085996	0.001962	43.8268	-100.797	-164.851	-0.112355	0.501284	-0.614747	-0.616115	-0.058442	43.8268	-0.613747	-1.287248E+8	4.540081E-10	NaN
767	1.000000	0.512606	7.37256e+06	-38739.1	1005.82	-29796.3	0.000000	0.000000	6.512912	0.077156	NaN	0.000000	0.001671	0.001771	28.0837	0.082671	0.002113	39.1311	-145.564	11.1373	0.013510	0.511291	-0.604793	-0.606108	0.077156	39.1311	-0.606272	-1.015820E+8	-7.595409E-10	NaN
767	1.000000	0.522630	7.37256e+06	-38739.1	1005.82	-29796.3	0.000000	0.000000	6.522933	-0.009535	NaN	0.000000	0.001604	0.001780	28.0834	0.028064	0.001855	15.1308	172.93	-168.767	0.010186	0.521373	-0.594769	-0.596027	-0.009535	15.1308	-0.594296	-6.948383E+7	1.372229E-10	NaN
767	1.000000	0.532629	7.37256e+06	-38739.1	1005.82	-29796.3	0.000000	0.000000	6.532934	0.029357	NaN	0.000000	0.001615	0.001793	28.0834	0.076799	0.001900	40.4201	117.308	17.6037	-0.006391	0.531271	-0.584770	-0.586128	0.029357	40.4201	-0.585315	-5.224702E+7	-5.618927E-10	NaN
767	1.000000	0.542649	7.37256e+06	-38739.1	1005.82	-29796.3	0.000000	0.000000	6.542953	-0.000616	NaN	0.000000	0.001618	0.001784	28.0837	0.120205	0.001993	60.3219	-142.057	-165.239	0.016559	0.541376	-0.574750	-0.576023	-0.000616	60.3219	-0.574742	-3.733714E+7	1.650578E-11	NaN
767	1.000000	0.552641	7.37256e+06	-38739.1	1005.82	-29796.3	0.000000	0.000000	6.552945	0.022117	NaN	0.000000	0.001596	0.001786	28.0835	0.003069	0.001960	1.566179	-8.331524	14.1484	0.006397	0.551279	-0.564759	-0.566120	0.022117	1.566179	-0.575350	-3.806519E+7	-5.810255E-10	NaN
767	1.000000	0.562646	7.37256e+06	-38739.1	1005.82	-29796.3	0.000000	0.000000	6.562949	-0.020591	NaN	0.000000	0.001579	0.001779	28.0838	0.092782	0.002035	45.5897	108.436	-166.202	0.017456	0.561375	-0.554753	-0.556025	-0.020591	45.5897	-0.554414	-1.954702E+7	1.053413E-9	NaN
767	1.000000	0.572680	7.37256e+06	-38739.1	1005.82	-29796.3	0.000000	0.000000	6.572983	-0.006960	NaN	0.000000	0.001589	0.001767	28.0837	0.082604	0.002053	40.2424	106.793	15.064	-0.024860	0.571284	-0.544719	-0.546115	-0.006960	40.2424	-0.544590	-1.428871E+7	4.871283E-10	NaN
767	1.000000	0.582644	7.37256e+06	-38739.1	1005.82	-29796.3	0.000000	0.000000	6.582947	-0.011086	NaN	0.000000	0.001609	0.001792	28.084	0.081172	0.002001	40.5736	-167.667	-166.064	0.006617	0.581381	-0.534755	-0.536019	-0.011086	40.5736	-0.534550	-1.036923E+7	1.069167E-9	NaN
767	1.000000	0.592662	7.37256e+06	-38739.1	1005.82	-29796.3	0.000000	0.000000	6.592964	-0.022324	NaN	0.000000	0.001614	0.001766	28.0837	0.115591	0.001933	59.8048	130.702	13.7326	0.056808	0.591320	-0.524738	-0.526080	-0.022324	59.8048	-0.524458	-7.50883e+06	2.973004E-9	NaN
767	1.000000	0.602682	7.37256e+06	-38739.1	1005.82	-29796.3	0.000000	0.000000	6.602985	-0.018450	NaN	0.000000	0.001633	0.001745	28.0838	0.148817	0.002035	73.1261	-45.4676	-163.367	-0.019746	0.601382	-0.514717	-0.516018	-0.018450	73.1261	-0.514528	-5.46333e+06	3.377092E-9	NaN
767	1.000000	0.612672	7.37256e+06	-38739.1	1005.82	-29796.3	0.000000	0.000000	6.612977	0.023283	NaN	0.000000	0.001597	0.001775	28.0837	0.036026	0.002011	17.9125	0.650727	14.4473	0.045149	0.611307	-0.504727	-0.506092	0.023283	17.9125	-0.505702	-4.11652e+06	-5.655921E-9	NaN
767	1.000000	0.622657	7.37256e+06	-38739.1	1005.82	-29796.3	0.000000	0.000000	6.622958	-0.060526	NaN	0.000000	0.001582	0.001789	28.084	0.092692	0.002059	45.0183	157.814	-169.852	0.006715	0.621354	-0.494742	-0.496045	-0.060526	45.0183	-0.493734	-2.80254e+06	2.159670E-8	NaN
767	1.000000	0.632700	7.37256e+06	-38739.1	1005.82	-29796.3	0.000000	0.000000	6.633003	-0.007397	NaN	0.000000	0.001598	0.001797	28.0838	0.079953	0.002031	39.3601	64.4043	14.7085	0.025271	0.631369	-0.484699	-0.486030	-0.007397	39.3601	-0.484558	-2.08599e+06	3.546056E-9	NaN
767	1.000000	0.642696	7.37256e+06	-38739.1	1005.82	-29796.3	0.000000	0.000000	6.642999	-0.024036	NaN	0.000000	0.001613	0.001750	28.0827	0.017927	0.002080	8.619735	97.8628	-165.398	-0.044895	0.641387	-0.474703	-0.476012	-0.024036	8.619735	-0.472612	-1.41915e+06	1.693705E-8	NaN
767	1.000000	0.652719	7.37256e+06	-38739.1	1005.82	-29796.3	0.000000	0.000000	6.653022	-0.012724	NaN	0.000000	0.001587	0.001745	28.0827	0.055585	0.001990	27.9338	137.746	11.421	-0.056131	0.651386	-0.464680	-0.466013	-0.012724	27.9338	-0.464338	-1.08631e+06	1.171257E-8	NaN
767	1.000000	0.662690	7.37256e+06	-38739.1	1005.82	-29796.3	0.000000	0.000000	6.662995	0.037827	NaN	0.000000	0.001596	0.001797	28.0825	0.059228	0.001967	30.11	-106.496	-165.837	-0.017643	0.661389	-0.454709	-0.456010	0.037827	30.11	-0.455652	-820133	-4.612256E-8	NaN
767	1.000000	0.672722	7.37256e+06	-38739.1	1005.82	-29796.3	0.000000	0.000000	6.673024	-0.049419	NaN	0.000000	0.001542	0.001801	28.0824	0.060569	0.002050	29.5409	150.693	13.2183	-0.065799	0.671385	-0.444677	-0.446015	-0.049419	29.5409	-0.443422	-551628	8.958697E-8	NaN
767	1.000000	0.682714	7.37256e+06	-38739.1	1005.82	-29796.3	0.000000	0.000000	6.683016	-0.030243	NaN	0.000000	0.001568	0.001806	28.0825	0.047978	0.002111	22.7232	12.6462	-167.913	-0.043311	0.681453	-0.434686	-0.435946	-0.030243	22.7232	-0.433688	-401981	7.523534E-8	NaN
767	1.000000	0.692703	7.37256e+06	-38739.1	1005.82	-29796.3	0.000000	0.000000	6.693007	0.016544	NaN	0.000000	0.001579	0.001781	28.0826	0.009057	0.001873	4.834531	21.1555	12.5739	0.003134	0.691334	-0.424696	-0.426065	0.016544	4.834531	-0.427263	-326080	-5.073747E-8	NaN
767	1.000000	0.702729	7.37256e+06	-38739.1	1005.82	-29796.3	0.000000	0.000000	6.703030	-0.046979	NaN	0.000000	0.001609	0.001798	28.0825	0.100134	0.001972	50.7797	101.022	-167.055	0.006185	0.701419	-0.414670	-0.415980	-0.046979	50.7797	-0.413976	-211309	2.223260E-7	NaN
767	1.000000	0.712759	7.37256e+06	-38739.1	1005.82	-29796.3	0.000000	0.000000	6.713062	-0.002975	NaN	0.000000	0.001575	0.001806	28.0826	0.099515	0.002016	49.3713	-144.491	14.6155	0.021094	0.711369	-0.404641	-0.406030	-0.002975	49.3713	-0.404595	-155412	1.914573E-8	NaN
767	1.000000	0.722709	7.37256e+06	-38739.1	1005.82	-29796.3	0.000000	0.000000	6.723011	-0.018438	NaN	0.000000	0.001608	0.001789	28.0828	0.015053	0.001947	7.730669	149.979	-168.458	0.033822	0.721421	-0.394691	-0.395979	-0.018438	7.730669	-0.392902	-105842	1.742048E-7	NaN
767	1.000000	0.732705	7.37256e+06	-38739.1	1005.82	-29796.3	0.000000	0.000000	6.733010	0.049358	NaN	0.000000	0.001572	0.001818	28.0825	0.101588	0.002203	46.1216	-44.161	16.7115	-0.002786	0.731374	-0.384694	-0.386025	0.049358	46.1216	-0.385497	-82929.2	-5.951790E-7	NaN
767	1.000000	0.742735	7.37256e+06	-38739.1	1005.82	-29796.3	0.000000	0.000000	6.743036	-0.050661	NaN	0.000000	0.001627	0.001826	28.0826	0.014963	0.002103	7.116153	164.837	-166.144	-0.026756	0.741413	-0.374664	-0.375987	-0.050661	7.116153	-0.369325	-48574	1.042967E-6	NaN
767	1.000000	0.752771	7.37256e+06	-38739.1	1005.82	-29796.3	0.000000	0.000000	6.753073	-0.027133	NaN	0.000000	0.001617	0.001815	28.0824	0.058079	0.001997	29.0781	120.813	14.1775	-0.035304	0.751363	-0.364629	-0.366036	-0.027133	29.0781	-0.363929	-40606.5	6.681870E-7	NaN
767	1.000000	0.762725	7.37256e+06	-38739.1	1005.82	-29796.3	0.000000	0.000000	6.763029	-0.000332	NaN	0.000000	0.001651	0.001815	28.0826	0.032687	0.001960	16.6773	-66.5214	-166.734	-0.014032	0.761474	-0.354674	-0.355925	-0.000332	16.6773	-0.354659	-29823.5	1.113078E-8	NaN
767	1.000000	0.772753	7.37256e+06	-38739.1	1005.82	-29796.3	0.000000	0.000000	6.773056	-0.003311	NaN	0.000000	0.001608	0.001784	28.0824	0.046005	0.002090	22.0148	148.293	11.2858	-0.026216	0.771381	-0.344646	-0.346018	-0.003311	22.0148	-0.344533	-21260.4	1.557149E-7	NaN
767	1.000000	0.782764	7.37256e+06	-38739.1	1005.82	-29796.3	0.000000	0.000000	6.783067	0.001401	NaN	0.000000	0.001642	0.001756	28.0835	0.057186	0.001933	29.581	82.2005	-168.543	0.018958	0.781480	-0.334635	-0.335919	0.001401	29.581	-0.334671	-15267.9	-9.177998E-8	NaN
767	1.000000	0.792745	7.37256e+06	-38739.1	1005.82	-29796.3	0.000000	0.000000	6.793047	-0.033478	NaN	0.000000	0.001618	0.001758	28.0838	0.055225	0.001854	29.7872	17.1763	14.5011	-0.030971	0.791381	-0.324654	-0.326019	-0.033478	29.7872	-0.323811	-10584.8	3.162893E-6	NaN
767	1.000000	0.802755	7.37256e+06	-38739.1	1005.82	-29796.3	0.000000	0.000000	6.803056	-0.062920	NaN	0.000000	0.001654	0.001805	28.0834	0.064565	0.002016	32.0303	157.64	-164.245	-0.026914	0.801451	-0.314644	-0.315948	-0.062920	32.0303	-0.313171	-7378.06	8.528009E-6	NaN
767	1.000000	0.812745	7.37256e+06	-38739.1	1005.82	-29796.3	0.000000	0.000000	6.813048	-0.033975	NaN	0.000000	0.001657	0.001767	28.0835	0.126355	0.002177	58.0354	167.666	13.7362	-0.107998	0.811415	-0.304654	-0.305984	-0.033975	58.0354	-0.304215	-5436.23	6.249657E-6	NaN
767	1.000000	0.822768	7.37256e+06	-38739.1	1005.82	-29796.3	0.000000	0.000000	6.823068	-0.083188	NaN	0.000000	0.001633	0.001801	28.0834	0.023656	0.002081	11.3664	-150.146	-164.198	-0.148271	0.821432	-0.294631	-0.295967	-0.083188	11.3664	-0.289142	-3239.26	2.568111E-5	NaN
767	1.000000	0.832763	7.37256e+06	-38739.1	1005.82	-29796.3	0.000000	0.000000	6.833064	-0.048917	NaN	0.000000	0.001654	0.001802	28.0838	0.057848	0.002134	27.1018	-38.5211	16.4698	-0.031576	0.831405	-0.284636	-0.285995	-0.048917	27.1018	-0.283283	-2645.05	1.849368E-5	NaN
767	1.000000	0.842771	7.37256e+06	-38739.1	1005.82	-29796.3	0.000000	0.000000	6.843075	0.016683	NaN	0.000000	0.001595	0.001798	28.0835	0.035944	0.002133	16.8479	-12.7805	-165.53	0.001865	0.841469	-0.274628	-0.275931	0.016683	16.8479	-0.275371	-2009.18	-8.303361E-6	NaN
767	1.000000	0.852807	7.37256e+06	-38739.1	1005.82	-29796.3	0.000000	0.000000	6.853111	0.013192	NaN	0.000000	0.001637	0.001791	28.0835	0.052083	0.002201	23.6662	-170.863	15.7274	0.043669	0.851386	-0.264593	-0.266013	0.013192	23.6662	-0.265011	-1398.14	-9.435521E-6	NaN
767	1.000000	0.862763	7.37256e+06	-38739.1	1005.82	-29796.3	0.000000	0.000000	6.863069	0.062485	NaN	0.000000	0.001651	0.001798	28.0837	0.049312	0.001937	25.4626	-11.544	-167.379	0.108438	0.861486	-0.254636	-0.255913	0.062485	25.4626	-0.256477	-1034.75	-6.038668E-5	NaN
767	1.000000	0.872788	7.37256e+06	-38739.1	1005.82	-29796.3	0.000000	0.000000	6.873094	0.060800	NaN	0.000000	0.001658	0.001822	28.0834	0.055586	0.001871	29.7152	143.598	13.3453	-0.007699	0.871411	-0.244611	-0.245989	0.060800	29.7152	-0.246146	-716.548	-8.485166E-5	NaN
767	1.000000	0.882781	7.37256e+06	-38739.1	1005.82	-29796.3	0.000000	0.000000	6.883085	0.019671	NaN	0.000000	0.001675	0.001818	28.0834	0.014226	0.002160	6.586967	-38.6666	-164.998	0.006675	0.881514	-0.234619	-0.235885	0.019671	6.586967	-0.236858	-513.333	-3.831967E-5	NaN
767	1.000000	0.892769	7.37256e+06	-38739.1	1005.82	-29796.3	0.000000	0.000000	6.893073	0.005920	NaN	0.000000	0.001672	0.001811	28.0836	0.040532	0.002045	19.8247	148.057	12.2104	-0.014933	0.891453	-0.224630	-0.225946	0.005920	19.8247	-0.224854	-331.911	-1.783598E-5	NaN
767	1.000000	0.902783	7.37256e+06	-38739.1	1005.82	-29796.3	0.000000	0.000000	6.903085	-0.022586	NaN	0.000000	0.001677	0.001853	28.0838	0.051441	0.002047	25.1311	-130.653	-164.242	0.020111	0.901485	-0.214616	-0.215915	-0.022586	25.1311	-0.213942	-222.07	0.000102	NaN
767	1.000000	0.912793	7.37256e+06	-38739.1	1005.82	-29796.3	0.000000	0.000000	6.913099	0.063060	NaN	0.000000	0.001675	0.001841	28.0834	0.132476	0.002073	63.9119	-118.307	11.926	0.058022	0.911436	-0.204606	-0.205963	0.063060	63.9119	-0.205346	-161.138	-0.000391	NaN
767	1.000000	0.922821	7.37256e+06	-38739.1	1005.82	-29796.3	0.000000	0.000000	6.923121	-0.094131	NaN	0.000000	0.001711	0.001800	28.0823	0.015007	0.001992	7.534675	-157.058	-169.316	-0.074834	0.921508	-0.194578	-0.195891	-0.094131	7.534675	-0.185209	-74.7561	0.001259	NaN
767	1.000000	0.932819	7.37256e+06	-38739.1	1005.82	-29796.3	0.000000	0.000000	6.933122	-0.010308	NaN	0.000000	0.001667	0.001810	28.0824	0.050402	0.002052	24.5642	-163.424	14.2623	0.063074	0.931457	-0.184580	-0.185942	-0.010308	24.5642	-0.184266	-72.0688	0.000143	NaN
767	1.000000	0.942842	7.37256e+06	-38739.1	1005.82	-29796.3	0.000000	0.000000	6.943148	0.060400	NaN	0.000000	0.001667	0.001825	28.0823	0.092944	0.001994	46.6214	12.9024	-166.309	-0.005404	0.941460	-0.174557	-0.175939	0.060400	46.6214	-0.175529	-51.1749	-0.001180	NaN
767	1.000000	0.952818	7.37256e+06	-38739.1	1005.82	-29796.3	0.000000	0.000000	6.953122	-0.001515	NaN	0.000000	0.001623	0.001825	28.0824	0.071644	0.001920	37.3053	-69.385	13.7416	-0.007191	0.951448	-0.164581	-0.165951	-0.001515	37.3053	-0.164550	-32.9917	4.590782E-5	NaN
767	1.000000	0.962809	7.37256e+06	-38739.1	1005.82	-29796.3	0.000000	0.000000	6.963113	-0.003592	NaN	0.000000	0.001626	0.001796	28.0823	0.026948	0.001955	13.7872	-24.3472	-166.672	-0.027829	0.961537	-0.154590	-0.155863	-0.003592	13.7872	-0.154395	-21.7609	0.000165	NaN
767	1.000000	0.972857	7.37256e+06	-38739.1	1005.82	-29796.3	0.000000	0.000000	6.973160	-0.012021	NaN	0.000000	0.001644	0.001800	28.0828	0.093485	0.002028	46.0888	66.4103	17.1684	-0.061991	0.971522	-0.144543	-0.145877	-0.012021	46.0888	-0.144347	-14.2585	0.000843	NaN
767	1.000000	0.982836	7.37256e+06	-38739.1	1005.82	-29796.3	0.000000	0.000000	6.983139	-0.005400	NaN	0.000000	0.001712	0.001787	28.0825	0.096641	0.002006	48.1808	60.9687	-166.429	0.001349	0.981555	-0.134563	-0.135845	-0.005400	48.1808	-0.134479	-9.296843	0.000581	NaN
767	1.000000	0.992831	7.37256e+06	-38739.1	1005.82	-29796.3	0.000000	0.000000	6.993134	-0.007477	NaN	0.000000	0.001664	0.001816	28.0825	0.075948	0.001819	41.7565	80.7688	10.4443	-0.013229	0.991496	-0.124568	-0.125903	-0.007477	41.7565	-0.124434	-5.926297	0.001262	NaN
767	1.000000	1.002836	7.37256e+06	-38739.1	1005.82	-29796.3	0.000000	0.000000	7.003139	-0.015097	NaN	0.000000	0.001648	0.001798	28.0824	0.036550	0.002152	16.9869	-17.053	-165.05	0.039434	1.001527	-0.114563	-0.115873	-0.015097	16.9869	-0.113896	-3.624926	0.004165	NaN
767	1.000000	1.012844	7.37256e+06	-38739.1	1005.82	-29796.3	0.000000	0.000000	7.013149	0.033973	NaN	0.000000	0.001680	0.001790	28.0825	0.035604	0.002054	17.3323	28.0131	14.0853	0.001204	1.011433	-0.104555	-0.105967	0.033973	17.3323	-0.106025	-2.473245	-0.013736	NaN
767	1.000000	1.022854	7.37256e+06	-38739.1	1005.82	-29796.3	0.000000	0.000000	7.023158	0.012972	NaN	0.000000	0.001696	0.001778	28.0823	0.025526	0.002045	12.4849	173.394	-164.373	-0.014064	1.021489	-0.094545	-0.095910	0.012972	12.4849	-0.095324	-1.434818	-0.009041	NaN
767	1.000000	1.032884	7.37256e+06	-38739.1	1005.82	-29796.3	0.000000	0.000000	7.033187	-0.012433	NaN	0.000000	0.001693	0.001776	28.0823	0.086230	0.001911	45.121	-30.372	13.7989	-0.087144	1.031499	-0.084516	-0.085900	-0.012433	45.121	-0.084309	-0.790531	0.015728	NaN
767	1.000000	1.042864	7.37256e+06	-38739.1	1005.82	-29796.3	0.000000	0.000000	7.043168	0.002543	NaN	0.000000	0.001648	0.001773	28.0827	0.075410	0.002043	36.9197	-0.186113	-166.124	-0.054601	1.041512	-0.074535	-0.075887	0.002543	36.9197	-0.074586	-0.450615	-0.005644	NaN
767	1.000000	1.052882	7.37256e+06	-38739.1	1005.82	-29796.3	0.000000	0.000000	7.053187	0.025976	NaN	0.000000	0.001673	0.001767	28.0836	0.176424	0.002038	86.5638	40.4436	13.458	-0.025572	1.051536	-0.064517	-0.065863	0.025976	86.5638	-0.064742	-0.245140	-0.105963	NaN
767	1.000000	1.062894	7.37256e+06	-38739.1	1005.82	-29796.3	0.000000	0.000000	7.063197	-0.013004	NaN	0.000000	0.001685	0.001783	28.0839	0.072297	0.002009	35.9798	-55.2535	-167.794	0.024644	1.061602	-0.054505	-0.055797	-0.013004	35.9798	-0.054234	-0.122227	0.106396	NaN
767	1.000000	1.072885	7.37256e+06	-38739.1	1005.82	-29796.3	0.000000	0.000000	7.073188	-0.027277	NaN	0.000000	0.001663	0.001794	28.0837	0.079507	0.002067	38.4669	-117.397	11.9795	-0.088668	1.071541	-0.044514	-0.045859	-0.027277	38.4669	-0.043982	-0.059823	0.455963	NaN
767	1.000000	1.082898	7.37256e+06	-38739.1	1005.82	-29796.3	0.000000	0.000000	7.083199	-0.061618	NaN	0.000000	0.001640	0.001751	28.084	0.061310	0.002041	30.041	154.683	-165.027	-0.049689	1.081536	-0.034501	-0.035863	-0.061618	30.041	-0.032963	-0.027929	2.206237	NaN
767	1.000000	1.092892	7.37256e+06	-38739.1	1005.82	-29796.3	0.000000	0.000000	7.093194	-0.036358	NaN	0.000000	0.001648	0.001746	28.0836	0.129830	0.002025	64.1209	-75.1212	12.3351	-0.012536	1.091512	-0.024507	-0.025887	-0.036358	64.1209	-0.024082	-0.015968	2.276846	NaN
767	1.000000	1.102861	7.37256e+06	-38739.1	1005.82	-29796.3	0.000000	0.000000	7.103164	-0.003536	NaN	0.000000	0.001666	0.001796	28.0835	0.110064	0.002033	54.1475	3.607978	-165.289	0.051507	1.101516	-0.014538	-0.015883	-0.003536	54.1475	-0.014489	-0.008971	0.394122	NaN
767	1.000000	1.112882	7.37256e+06	-38739.1	1005.82	-29796.3	0.000000	0.000000	7.113215	0.719746	NaN	0.000000	0.001641	0.001822	28.0838	1.212854	0.002077	583.964	6.247276	14.0045	0.206262	1.111495	-0.004517	-0.005904	0.719746	583.964	-0.005441	-0.003692	-194.934	NaN
767	2.000000	1.122321	7.37256e+06	-38739.1	1005.82	-29796.3	0.000000	0.000000	7.122963	8.250794	NaN	0.000000	0.001622	0.001783	28.0836	8.618026	0.001819	4738.2	13.5255	-174.749	8.560731	1.121441	0.004922	0.004042	8.250794	4738.2	0.003616	0.002905	2840.59	80323.5
767	2.000000	1.124949	7.37256e+06	-38739.1	1005.82	-29796.3	0.000000	0.000000	7.125711	11.1501	NaN	0.000000	0.001640	0.001753	28.0836	11.0033	0.001740	6323.96	8.024240	6.894695	10.7852	1.124559	0.007550	0.007160	11.1501	6323.96	0.006228	0.005282	2110.94	79498.9
767	2.000000	1.127378	7.37256e+06	-38739.1	1005.82	-29796.3	0.000000	0.000000	7.128321	15.5556	NaN	0.000000	0.001652	0.001773	28.0837	13.8105	0.001719	8034.14	4.099319	-173.47	14.7709	1.127094	0.009979	0.009695	15.5556	8034.14	0.008527	0.007590	2049.62	84256.9
767	2.000000	1.129852	7.37256e+06	-38739.1	1005.82	-29796.3	0.000000	0.000000	7.131003	20.6127	NaN	0.000000	0.001644	0.001791	28.0838	16.8464	0.001816	9276.88	6.364349	3.144314	19.1196	1.129514	0.012453	0.012114	20.6127	9276.88	0.010787	0.010069	2047.19	84466.9
767	2.000000	1.132366	7.37256e+06	-38739.1	1005.82	-29796.3	0.000000	0.000000	7.133726	25.7114	NaN	0.000000	0.001668	0.001777	28.0837	18.9353	0.001677	11293.7	4.310929	-177.739	25.1159	1.132060	0.014967	0.014660	25.7114	11293.7	0.013259	0.013034	1972.7	90381.3
767	2.000000	1.134881	7.37256e+06	-38739.1	1005.82	-29796.3	0.000000	0.000000	7.136224	25.2906	NaN	0.000000	0.001611	0.001782	28.0838	20.5004	0.001724	11891.1	8.604673	1.265078	25.6319	1.134503	0.017482	0.017104	25.2906	11891.1	0.015887	0.016486	1534.06	84613.1
767	2.000000	1.137306	7.37256e+06	-38739.1	1005.82	-29796.3	0.000000	0.000000	7.138902	31.4658	NaN	0.000000	0.001656	0.001785	28.0841	23.0988	0.001736	13307.2	7.582404	179.904	30.4799	1.137033	0.019906	0.019634	31.4658	13307.2	0.018133	0.019693	1597.83	86637.3
767	2.000000	1.139885	7.37256e+06	-38739.1	1005.82	-29796.3	0.000000	0.000000	7.141716	37.18	NaN	0.000000	0.001646	0.001793	28.0825	25.4421	0.001779	14301.4	10.3264	-3.242540	39.066	1.139403	0.022486	0.022004	37.18	14301.4	0.020536	0.023391	1589.49	85432.9
767	2.000000	1.142386	7.37256e+06	-38739.1	1005.82	-29796.3	0.000000	0.000000	7.144381	41.1567	NaN	0.000000	0.001648	0.001787	28.0827	27.8869	0.001959	14234.7	8.815603	178.995	44.0119	1.142099	0.024987	0.024700	41.1567	14234.7	0.022819	0.027166	1514.99	78905.3
767	2.000000	1.144882	7.37256e+06	-38739.1	1005.82	-29796.3	0.000000	0.000000	7.147141	47.5849	NaN	0.000000	0.001675	0.001758	28.0826	29.7282	0.001848	16082.5	9.620388	-2.763530	47.8755	1.144411	0.027482	0.027012	47.5849	16082.5	0.025263	0.031496	1510.8	82793.4
767	2.000000	1.147269	7.37256e+06	-38739.1	1005.82	-29796.3	0.000000	0.000000	7.149994	58.934	NaN	0.000000	0.001634	0.001804	28.0832	32.1272	0.001839	17467.8	7.556208	177.882	57.1035	1.147014	0.029870	0.029615	58.934	17467.8	0.027340	0.035410	1664.34	84810.6
767	2.000000	1.149814	7.37256e+06	-38739.1	1005.82	-29796.3	0.000000	0.000000	7.152536	58.8739	NaN	0.000000	0.001598	0.001814	28.0828	34.5242	0.001746	19777.7	3.468918	-0.126523	57.2889	1.149508	0.032414	0.032109	58.8739	19777.7	0.030182	0.041122	1431.7	89107.5
767	2.000000	1.152336	7.37256e+06	-38739.1	1005.82	-29796.3	0.000000	0.000000	7.155591	71.8058	NaN	0.000000	0.001653	0.001821	28.0828	37.7642	0.001798	21008.2	5.644536	177.313	72.3188	1.151974	0.034937	0.034575	71.8058	21008.2	0.032374	0.045808	1567.56	89679.7
767	2.000000	1.154874	7.37256e+06	-38739.1	1005.82	-29796.3	0.000000	0.000000	7.158161	72.5823	NaN	0.000000	0.001635	0.001820	28.0826	39.3994	0.001801	21872.1	4.411915	-1.183026	73.2416	1.154539	0.037475	0.037140	72.5823	21872.1	0.034986	0.051714	1403.53	87873.7
767	2.000000	1.157396	7.37256e+06	-38739.1	1005.82	-29796.3	0.000000	0.000000	7.161210	85.4301	NaN	0.000000	0.001638	0.001853	28.083	42.2871	0.001725	24519.2	10.6895	173.364	88.8679	1.156968	0.039997	0.039569	85.4301	24519.2	0.037384	0.057443	1487.23	93467.9
767	2.000000	1.159756	7.37256e+06	-38739.1	1005.82	-29796.3	0.000000	0.000000	7.163993	95.714	NaN	0.000000	0.001624	0.001808	28.0829	44.7436	0.001770	25275.4	3.230658	-1.985899	91.8905	1.159455	0.042357	0.042055	95.714	25275.4	0.039517	0.062786	1524.45	92159.5
767	2.000000	1.162330	7.37256e+06	-38739.1	1005.82	-29796.3	0.000000	0.000000	7.166588	96.2287	NaN	0.000000	0.001637	0.001831	28.0831	47.6178	0.001800	26459.4	2.642842	177.597	95.457	1.162081	0.044931	0.044681	96.2287	26459.4	0.042203	0.069846	1377.72	91470.6
767	2.000000	1.164830	7.37256e+06	-38739.1	1005.82	-29796.3	0.000000	0.000000	7.169799	113.524	NaN	0.000000	0.001639	0.001840	28.083	50.3205	0.001977	25454.5	11.0252	-8.258569	112.928	1.164400	0.047431	0.047001	113.524	25454.5	0.044086	0.075014	1513.36	84911.1
767	2.000000	1.167373	7.37256e+06	-38739.1	1005.82	-29796.3	0.000000	0.000000	7.172657	121.19	NaN	0.000000	0.001644	0.001776	28.0829	52.8725	0.001901	27817.4	9.770093	171.137	126.634	1.167007	0.049974	0.049608	121.19	27817.4	0.046706	0.082505	1468.88	88480.9
767	2.000000	1.169796	7.37256e+06	-38739.1	1005.82	-29796.3	0.000000	0.000000	7.175455	130.313	NaN	0.000000	0.001628	0.001781	28.0824	54.5232	0.001846	29530.1	5.429093	-4.837587	129.303	1.169454	0.052397	0.052054	130.313	29530.1	0.049087	0.089613	1454.17	90126.5
767	2.000000	1.172275	7.37256e+06	-38739.1	1005.82	-29796.3	0.000000	0.000000	7.178214	137.15	NaN	0.000000	0.001657	0.001794	28.0825	56.9296	0.001924	29584.4	6.526159	174.665	136.16	1.171955	0.054876	0.054555	137.15	29584.4	0.051399	0.096786	1417.04	86881.9
767	2.000000	1.174843	7.37256e+06	-38739.1	1005.82	-29796.3	0.000000	0.000000	7.181197	147.229	NaN	0.000000	0.001620	0.001787	28.0837	58.3771	0.001836	31792	6.214399	-5.322234	147.63	1.174389	0.057444	0.056990	147.229	31792	0.053971	0.105081	1401.1	89604.5
767	2.000000	1.177334	7.37256e+06	-38739.1	1005.82	-29796.3	0.000000	0.000000	7.184474	166.362	NaN	0.000000	0.001638	0.001805	28.084	60.5268	0.001863	32490.1	8.572198	172.688	167.233	1.176819	0.059935	0.059419	166.362	32490.1	0.056095	0.112178	1483.02	88628
767	2.000000	1.179734	7.37256e+06	-38739.1	1005.82	-29796.3	0.000000	0.000000	7.187446	180.283	NaN	0.000000	0.001639	0.001806	28.0836	62.3287	0.001767	35265.6	5.081604	-5.566948	175.097	1.179388	0.062335	0.061989	180.283	35265.6	0.058501	0.120486	1496.3	92822.9
767	2.000000	1.182257	7.37256e+06	-38739.1	1005.82	-29796.3	0.000000	0.000000	7.190243	186.953	NaN	0.000000	0.001666	0.001796	28.0837	64.8844	0.001797	36114.5	2.967700	176.112	184.805	1.181973	0.064858	0.064574	186.953	36114.5	0.060975	0.129328	1445.57	91750.5
767	2.000000	1.184734	7.37256e+06	-38739.1	1005.82	-29796.3	0.000000	0.000000	7.193301	201.094	NaN	0.000000	0.001691	0.001784	28.0838	67.4684	0.001827	36925.4	6.706270	-7.226839	196.938	1.184350	0.067335	0.066950	201.094	36925.4	0.063251	0.137722	1460.15	90906.9
767	2.000000	1.187262	7.37256e+06	-38739.1	1005.82	-29796.3	0.000000	0.000000	7.196067	206.886	NaN	0.000000	0.001708	0.001843	28.0838	69.4664	0.001826	38035.4	6.316507	172.061	206.299	1.187107	0.069862	0.069708	206.886	38035.4	0.065783	0.147358	1403.97	90526.2
767	2.000000	1.189793	7.37256e+06	-38739.1	1005.82	-29796.3	0.000000	0.000000	7.199551	230.062	NaN	0.000000	0.001706	0.001837	28.0838	72.5477	0.001777	40831.2	8.428957	-10.3605	229.235	1.189288	0.072394	0.071889	230.062	40831.2	0.068168	0.156717	1468.01	94233.9
767	2.000000	1.192423	7.37256e+06	-38739.1	1005.82	-29796.3	0.000000	0.000000	7.202294	232.819	NaN	0.000000	0.001681	0.001834	28.0839	74.1706	0.001766	42008.4	4.396574	173.656	243.249	1.192075	0.075024	0.074676	232.819	42008.4	0.070867	0.167634	1388.86	93740.8
767	2.000000	1.194714	7.37256e+06	-38739.1	1005.82	-29796.3	0.000000	0.000000	7.206193	271.95	NaN	0.000000	0.001703	0.001793	28.0841	74.5842	0.001737	42933.1	1.720239	-3.739157	269.333	1.194400	0.077315	0.077001	271.95	42933.1	0.072564	0.174676	1556.88	93853.1
767	2.000000	1.197297	7.37256e+06	-38739.1	1005.82	-29796.3	0.000000	0.000000	7.209208	282.483	NaN	0.000000	0.001722	0.001800	28.0841	77.2729	0.001765	43790.7	0.983157	177.165	285.788	1.196828	0.079897	0.079429	282.483	43790.7	0.075059	0.185275	1524.66	92949.3
767	2.000000	1.199695	7.37256e+06	-38739.1	1005.82	-29796.3	0.000000	0.000000	7.212478	303.711	NaN	0.000000	0.001614	0.001769	28.0843	79.7893	0.001775	44949.6	3.888688	-5.882789	299.666	1.199367	0.082296	0.081967	303.711	44949.6	0.077228	0.194727	1559.67	93064.9
767	2.000000	1.202215	7.37256e+06	-38739.1	1005.82	-29796.3	0.000000	0.000000	7.215316	311.433	NaN	0.000000	0.001613	0.001845	28.084	83.2755	0.001795	46399.2	5.627281	170.956	309.464	1.201914	0.084816	0.084515	311.433	46399.2	0.079782	0.206140	1510.78	93369
767	2.000000	1.204772	7.37256e+06	-38739.1	1005.82	-29796.3	0.000000	0.000000	7.218354	323.16	NaN	0.000000	0.001649	0.001790	28.084	85.1816	0.001880	45307.4	5.959588	-8.627818	322.275	1.204244	0.087372	0.086845	323.16	45307.4	0.082023	0.216405	1493.31	88983.3
767	2.000000	1.207258	7.37256e+06	-38739.1	1005.82	-29796.3	0.000000	0.000000	7.221767	345.686	NaN	0.000000	0.001630	0.001782	28.0828	86.6953	0.001812	47838.7	6.149314	171.15	344.627	1.206895	0.089859	0.089496	345.686	47838.7	0.084439	0.227735	1517.93	91587.8
767	2.000000	1.209708	7.37256e+06	-38739.1	1005.82	-29796.3	0.000000	0.000000	7.225071	366.484	NaN	0.000000	0.001610	0.001785	28.0828	89.4252	0.001770	50524.5	4.984480	-8.366134	361.174	1.209386	0.092309	0.091986	366.484	50524.5	0.086869	0.239397	1530.87	94344.4
767	2.000000	1.212176	7.37256e+06	-38739.1	1005.82	-29796.3	0.000000	0.000000	7.227865	374.415	NaN	0.000000	0.001636	0.001811	28.0832	91.7297	0.001835	49998.9	2.612258	174.254	371.381	1.212007	0.094776	0.094608	374.415	49998.9	0.089160	0.250645	1493.81	91244
767	2.000000	1.214806	7.37256e+06	-38739.1	1005.82	-29796.3	0.000000	0.000000	7.231262	393.073	NaN	0.000000	0.001623	0.001791	28.083	93.7479	0.001856	50511	6.530020	-8.937904	395.66	1.214224	0.097407	0.096825	393.073	50511	0.091570	0.262738	1496.06	90032.1
767	2.000000	1.217133	7.37256e+06	-38739.1	1005.82	-29796.3	0.000000	0.000000	7.234390	412.57	NaN	0.000000	0.001641	0.001809	28.083	95.7648	0.001810	52914.6	5.501224	171.323	408.393	1.216837	0.099734	0.099437	412.57	52914.6	0.093886	0.274609	1502.39	92255.3
767	2.000000	1.219879	7.37256e+06	-38739.1	1005.82	-29796.3	0.000000	0.000000	7.237304	416.678	NaN	0.000000	0.001645	0.001809	28.0827	97.478	0.001803	54066.6	5.450623	-9.070194	423.777	1.219654	0.102479	0.102255	416.678	54066.6	0.096699	0.289356	1440.02	91830.3
767	2.000000	1.220646	7.37256e+06	-38739.1	1005.82	-29796.3	0.000000	0.000000	7.238465	426.253	NaN	0.000000	0.001646	0.001747	28.0832	96.6212	0.001759	54928.2	-0.562607	-3.225227	418.756	1.220371	0.103246	0.102972	426.253	54928.2	0.097426	0.293225	1453.67	92676.2