File: remote_trans/data/nanoindenter/0828-1/data/Data_2025-08-06,11h17m57s/2025-07-22_16-23-58_1_383.txt
2025-07-22, 16:23:58, 1
Index	Phase	Displacement	Time	Pos X	Pos Y	Pos Z	Rot A	Rot B	Piezo Z	Force A	Force B	Gripper	Voltage A	Voltage B	Temperature	Amplitude force	Amplitude pos	Stiffness	Phase shift	Phase excitation	Force A raw	Displacement raw	HMax	HMax raw	Real Force	Real Stiffness	Contact Depth	Area	Hardness	Reduced Mod.
[#]	[#]	[um]	[s]	[um]	[um]	[um]	[m°]	[m°]	[um]	[uN]	[uN]	[V]	[V]	[V]	[°C]	[uN]	[um]	[N/m]	[°]	[°]	[uN]	[um]	[um]	[um]	[uN]	[N/m]	[um]	[um^2]	[MPa]	[MPa]
383	1.000000	0.002286	7.36881e+06	-57789.1	955.818	-29736.6	0.000000	0.000000	6.002758	0.028165	NaN	0.000000	0.001609	0.001650	28.0795	0.083691	0.000959	87.2963	-120.883	-159.153	0.100721	0.001075	-1.083768	-1.084980	0.028165	87.2963	-1.084010	-3.057575E+14	-9.211604E-17	NaN
383	1.000000	0.012389	7.36881e+06	-57789.1	955.819	-29736.6	0.000000	0.000000	6.012862	0.042710	NaN	0.000000	0.001570	0.001659	28.0796	0.065789	0.001236	53.2267	178.613	17.2493	0.057251	0.010930	-1.073665	-1.075125	0.042710	53.2267	-1.074267	-2.262113E+14	-1.888041E-16	NaN
383	1.000000	0.022287	7.36881e+06	-57789.1	955.819	-29736.6	0.000000	0.000000	6.022760	0.068251	NaN	0.000000	0.001600	0.001690	28.0795	0.101494	0.001690	60.0528	-168.2	-163.464	0.014229	0.020981	-1.063768	-1.065074	0.068251	60.0528	-1.064620	-1.678449E+14	-4.066313E-16	NaN
383	1.000000	0.032302	7.36881e+06	-57789.1	955.818	-29736.6	0.000000	0.000000	6.032777	0.092407	NaN	0.000000	0.001581	0.001667	28.0796	0.058175	0.001870	31.1053	-68.353	12.5781	0.048571	0.030907	-1.053753	-1.055147	0.092407	31.1053	-1.055981	-1.284705E+14	-7.192879E-16	NaN
383	1.000000	0.042286	7.36881e+06	-57789.1	955.82	-29736.6	0.000000	0.000000	6.042759	0.048905	NaN	0.000000	0.001566	0.001657	28.0798	0.031450	0.002025	15.5326	155.949	-160.515	-0.005140	0.040990	-1.043769	-1.045064	0.048905	15.5326	-1.046130	-9.470926E+13	-5.163663E-16	NaN
383	1.000000	0.052302	7.36881e+06	-57789.1	955.82	-29736.6	0.000000	0.000000	6.052772	-0.011387	NaN	0.000000	0.001613	0.001636	28.0798	0.108439	0.001972	54.9922	-145.942	16.8687	-0.014303	0.050871	-1.033753	-1.035184	-0.011387	54.9922	-1.033597	-6.424897E+13	1.772360E-16	NaN
383	1.000000	0.062245	7.36881e+06	-57789.1	955.819	-29736.6	0.000000	0.000000	6.062715	-0.014346	NaN	0.000000	0.001559	0.001660	28.0797	0.104382	0.002036	51.2784	-105.196	-168.54	0.006072	0.061026	-1.023810	-1.025029	-0.014346	51.2784	-1.023600	-4.713927E+13	3.043419E-16	NaN
383	1.000000	0.072295	7.36881e+06	-57789.1	955.819	-29736.6	0.000000	0.000000	6.072765	-0.005986	NaN	0.000000	0.001606	0.001675	28.0799	0.100298	0.001999	50.1814	116.499	14.4719	0.051931	0.070961	-1.013760	-1.015094	-0.005986	50.1814	-1.013670	-3.465608E+13	1.727287E-16	NaN
383	1.000000	0.082290	7.36881e+06	-57789.1	955.818	-29736.6	0.000000	0.000000	6.082761	0.013741	NaN	0.000000	0.001637	0.001632	28.08	0.033268	0.001946	17.094	-99.8242	-167.48	0.080105	0.080964	-1.003765	-1.005091	0.013741	17.094	-1.004368	-2.597603E+13	-5.290011E-16	NaN
383	1.000000	0.092311	7.36881e+06	-57789.1	955.819	-29736.6	0.000000	0.000000	6.092782	0.022745	NaN	0.000000	0.001605	0.001671	28.081	0.038486	0.001965	19.589	121.873	17.5164	0.014007	0.090976	-0.993744	-0.995079	0.022745	19.589	-0.994615	-1.919817E+13	-1.184729E-15	NaN
383	1.000000	0.102315	7.36881e+06	-57789.1	955.819	-29736.6	0.000000	0.000000	6.102786	0.013607	NaN	0.000000	0.001589	0.001702	28.081	0.075293	0.001868	40.3118	-9.537901	-164.572	-0.023703	0.101027	-0.983740	-0.985028	0.013607	40.3118	-0.983993	-1.381023E+13	-9.853117E-16	NaN
383	1.000000	0.112308	7.36881e+06	-57789.1	955.818	-29736.6	0.000000	0.000000	6.112782	0.071615	NaN	0.000000	0.001613	0.001641	28.0809	0.045272	0.002039	22.205	-43.9657	15.8124	0.056749	0.111014	-0.973747	-0.975041	0.071615	22.205	-0.976166	-1.083302E+13	-6.610785E-15	NaN
383	1.000000	0.122293	7.36881e+06	-57789.1	955.817	-29736.6	0.000000	0.000000	6.122769	0.114160	NaN	0.000000	0.001647	0.001658	28.0812	0.109308	0.001959	55.8051	-110.93	-164.867	0.083772	0.121037	-0.963762	-0.965017	0.114160	55.8051	-0.965296	-7.731430E+12	-1.476572E-14	NaN
383	1.000000	0.132298	7.36881e+06	-57789.1	955.819	-29736.6	0.000000	0.000000	6.132769	-0.007276	NaN	0.000000	0.001645	0.001608	28.0808	0.105521	0.001879	56.1577	69.6701	14.4514	-0.027314	0.130924	-0.953756	-0.955131	-0.007276	56.1577	-0.953659	-5.387318E+12	1.350526E-15	NaN
383	1.000000	0.142327	7.36881e+06	-57789.1	955.819	-29736.6	0.000000	0.000000	6.142800	0.042104	NaN	0.000000	0.001610	0.001644	28.0811	0.056919	0.002064	27.5748	67.7547	-162.769	0.013937	0.141033	-0.943727	-0.945021	0.042104	27.5748	-0.944872	-4.100788E+12	-1.026719E-14	NaN
383	1.000000	0.152337	7.36881e+06	-57789.1	955.819	-29736.6	0.000000	0.000000	6.152809	0.028991	NaN	0.000000	0.001603	0.001632	28.0811	0.073646	0.001942	37.9258	-174.409	14.1919	0.018964	0.150949	-0.933717	-0.935105	0.028991	37.9258	-0.934291	-2.951906E+12	-9.820944E-15	NaN
383	1.000000	0.162329	7.36881e+06	-57789.1	955.818	-29736.6	0.000000	0.000000	6.162797	-0.059472	NaN	0.000000	0.001631	0.001641	28.0814	0.038522	0.002037	18.911	-17.6639	-168.223	-0.028864	0.161040	-0.923726	-0.925014	-0.059472	18.911	-0.921367	-1.975450E+12	3.010531E-14	NaN
383	1.000000	0.172347	7.36881e+06	-57789.1	955.818	-29736.6	0.000000	0.000000	6.172815	-0.066162	NaN	0.000000	0.001595	0.001616	28.0815	0.113959	0.001978	57.6202	-167.328	15.4644	-0.019317	0.170983	-0.913708	-0.915072	-0.066162	57.6202	-0.912847	-1.515698E+12	4.365106E-14	NaN
383	1.000000	0.182329	7.36881e+06	-57789.1	955.819	-29736.6	0.000000	0.000000	6.182799	-0.011867	NaN	0.000000	0.001617	0.001660	28.0812	0.038594	0.001939	19.9031	177.189	-165.239	-0.023324	0.181021	-0.903726	-0.905033	-0.011867	19.9031	-0.903279	-1.125550E+12	1.054318E-14	NaN
383	1.000000	0.192344	7.36881e+06	-57789.1	955.818	-29736.6	0.000000	0.000000	6.192815	0.004998	NaN	0.000000	0.001597	0.001624	28.0812	0.023322	0.002005	11.6339	57.9428	16.8474	0.007793	0.190998	-0.893711	-0.895057	0.004998	11.6339	-0.894033	-8.441666E+11	-5.920391E-15	NaN
383	1.000000	0.202347	7.36881e+06	-57789.1	955.819	-29736.6	0.000000	0.000000	6.202821	0.087342	NaN	0.000000	0.001609	0.001637	28.0812	0.075634	0.001879	40.2593	-179.037	-163.204	0.057458	0.201024	-0.883708	-0.885030	0.087342	40.2593	-0.885335	-6.439434E+11	-1.356357E-13	NaN
383	1.000000	0.212342	7.36881e+06	-57789.1	955.819	-29736.6	0.000000	0.000000	6.212811	-0.035028	NaN	0.000000	0.001617	0.001655	28.081	0.050688	0.002013	25.1767	-26.5916	16.4426	-0.021191	0.210982	-0.873713	-0.875072	-0.035028	25.1767	-0.872669	-4.340652E+11	8.069746E-14	NaN
383	1.000000	0.222350	7.36881e+06	-57789.1	955.819	-29736.6	0.000000	0.000000	6.222821	0.009670	NaN	0.000000	0.001596	0.001642	28.0804	0.004733	0.001855	2.550869	13.3203	-164.886	-0.008982	0.221005	-0.863705	-0.865050	0.009670	2.550869	-0.866548	-3.587044E+11	-2.695816E-14	NaN
383	1.000000	0.232334	7.36881e+06	-57789.1	955.819	-29736.6	0.000000	0.000000	6.232807	0.053679	NaN	0.000000	0.001598	0.001646	28.08	0.116361	0.002053	56.6793	-104.392	15.201	0.071468	0.231022	-0.853720	-0.855032	0.053679	56.6793	-0.854430	-2.458818E+11	-2.183128E-13	NaN
383	1.000000	0.242365	7.36881e+06	-57789.1	955.819	-29736.6	0.000000	0.000000	6.242835	0.000952	NaN	0.000000	0.001579	0.001640	28.0796	0.043925	0.001978	22.2029	37.2703	-165.547	0.068201	0.241013	-0.843690	-0.845042	0.000952	22.2029	-0.843722	-1.760824E+11	-5.404478E-15	NaN
383	1.000000	0.252353	7.36881e+06	-57789.1	955.819	-29736.6	0.000000	0.000000	6.252822	-0.034187	NaN	0.000000	0.001619	0.001634	28.0798	0.051649	0.002024	25.5199	-151.686	15.2513	-0.107969	0.251000	-0.833702	-0.835054	-0.034187	25.5199	-0.832697	-1.248368E+11	2.738539E-13	NaN
383	1.000000	0.262365	7.36881e+06	-57789.1	955.819	-29736.6	0.000000	0.000000	6.262837	0.029284	NaN	0.000000	0.001583	0.001617	28.08	0.010701	0.001980	5.405753	-160.121	-165.914	0.066271	0.261065	-0.823689	-0.824990	0.029284	5.405753	-0.827752	-1.069830E+11	-2.737214E-13	NaN
383	1.000000	0.272371	7.36881e+06	-57789.1	955.819	-29736.6	0.000000	0.000000	6.272845	0.100659	NaN	0.000000	0.001630	0.001640	28.0801	0.035357	0.002165	16.3333	-70.1344	13.1945	0.020396	0.271002	-0.813684	-0.815052	0.100659	16.3333	-0.818306	-7.966015E+10	-1.263604E-12	NaN
383	1.000000	0.282369	7.36881e+06	-57789.1	955.819	-29736.6	0.000000	0.000000	6.282837	-0.055121	NaN	0.000000	0.001662	0.001610	28.0798	0.120663	0.001997	60.4369	35.2607	-163.344	0.025301	0.281068	-0.803686	-0.804986	-0.055121	60.4369	-0.803002	-4.938673E+10	1.116114E-12	NaN
383	1.000000	0.292400	7.36881e+06	-57789.1	955.819	-29736.6	0.000000	0.000000	6.292872	0.031786	NaN	0.000000	0.001618	0.001643	28.0798	0.071807	0.002072	34.6587	108.28	16.2354	0.091710	0.291022	-0.793655	-0.795032	0.031786	34.6587	-0.794343	-3.767514E+10	-8.436754E-13	NaN
383	1.000000	0.302391	7.36881e+06	-57789.1	955.818	-29736.6	0.000000	0.000000	6.302863	0.034425	NaN	0.000000	0.001617	0.001647	28.08	0.083261	0.002067	40.2844	-120.711	-162.327	0.004138	0.301003	-0.783664	-0.785052	0.034425	40.2844	-0.784304	-2.752437E+10	-1.250725E-12	NaN
383	1.000000	0.312400	7.36881e+06	-57789.1	955.819	-29736.6	0.000000	0.000000	6.312868	-0.080394	NaN	0.000000	0.001590	0.001637	28.0801	0.113408	0.002000	56.7066	67.9522	13.9076	-0.053575	0.310985	-0.773654	-0.775069	-0.080394	56.7066	-0.772591	-1.907796E+10	4.213995E-12	NaN
383	1.000000	0.322390	7.36881e+06	-57789.1	955.819	-29736.6	0.000000	0.000000	6.322862	0.005723	NaN	0.000000	0.001567	0.001657	28.0799	0.063869	0.001904	33.5511	148.185	-162.988	-0.029809	0.321061	-0.763664	-0.764994	0.005723	33.5511	-0.763792	-1.448389E+10	-3.951584E-13	NaN
383	1.000000	0.332385	7.36881e+06	-57789.1	955.819	-29736.6	0.000000	0.000000	6.332854	-0.054657	NaN	0.000000	0.001563	0.001640	28.0795	0.068411	0.001972	34.6972	164.506	12.2486	-0.039810	0.331043	-0.753669	-0.755011	-0.054657	34.6972	-0.752488	-1.016449E+10	5.377269E-12	NaN
383	1.000000	0.342392	7.36881e+06	-57789.1	955.819	-29736.6	0.000000	0.000000	6.342863	0.015930	NaN	0.000000	0.001600	0.001640	28.0796	0.010076	0.001905	5.288990	-22.9174	-163.972	0.001702	0.341087	-0.743663	-0.744967	0.015930	5.288990	-0.745922	-8.273708E+9	-1.925380E-12	NaN
383	1.000000	0.352393	7.36881e+06	-57789.1	955.819	-29736.6	0.000000	0.000000	6.352861	-0.066674	NaN	0.000000	0.001576	0.001663	28.0799	0.105129	0.002175	48.3333	63.6087	17.2981	-0.050186	0.351005	-0.733662	-0.735050	-0.066674	48.3333	-0.732627	-5.452739E+9	1.222762E-11	NaN
383	1.000000	0.362409	7.36881e+06	-57789.1	955.819	-29736.6	0.000000	0.000000	6.362879	0.000515	NaN	0.000000	0.001617	0.001675	28.0804	0.065331	0.001865	35.0245	147.582	-162.943	-0.016657	0.361115	-0.723646	-0.724940	0.000515	35.0245	-0.723657	-4.114743E+9	-1.250628E-13	NaN
383	1.000000	0.372433	7.36881e+06	-57789.1	955.819	-29736.6	0.000000	0.000000	6.372906	0.066271	NaN	0.000000	0.001569	0.001645	28.0805	0.165256	0.001944	85.0237	9.721645	13.8947	-0.045267	0.371056	-0.713622	-0.714999	0.066271	85.0237	-0.714207	-3.058080E+9	-2.167078E-11	NaN
383	1.000000	0.382439	7.36881e+06	-57789.1	955.82	-29736.6	0.000000	0.000000	6.382914	0.091358	NaN	0.000000	0.001566	0.001668	28.0811	0.128906	0.001974	65.2934	157.903	-165.187	0.007089	0.381146	-0.703616	-0.704909	0.091358	65.2934	-0.704665	-2.265838E+9	-4.031953E-11	NaN
383	1.000000	0.392409	7.36881e+06	-57789.1	955.817	-29736.6	0.000000	0.000000	6.392883	0.062208	NaN	0.000000	0.001641	0.001677	28.0807	0.068927	0.002070	33.3009	78.8845	15.8902	0.064493	0.391036	-0.693645	-0.695019	0.062208	33.3009	-0.695046	-1.674437E+9	-3.715188E-11	NaN
383	1.000000	0.402414	7.36881e+06	-57789.1	955.819	-29736.6	0.000000	0.000000	6.402886	0.017951	NaN	0.000000	0.001607	0.001678	28.0807	0.153844	0.001954	78.723	-105.387	-165.973	0.021071	0.401134	-0.683641	-0.684921	0.017951	78.723	-0.683812	-1.175779E+9	-1.526763E-11	NaN
383	1.000000	0.412400	7.36881e+06	-57789.1	955.819	-29736.6	0.000000	0.000000	6.412871	0.017195	NaN	0.000000	0.001618	0.001664	28.0806	0.062372	0.001934	32.251	-42.8635	16.7414	-0.013325	0.411079	-0.673655	-0.674976	0.017195	32.251	-0.674055	-8.647219E+8	-1.988485E-11	NaN
383	1.000000	0.422441	7.36881e+06	-57789.1	955.818	-29736.6	0.000000	0.000000	6.422915	0.077881	NaN	0.000000	0.001646	0.001645	28.0809	0.077877	0.002077	37.4913	122.097	-167.957	-0.005984	0.421188	-0.663614	-0.664867	0.077881	37.4913	-0.665172	-6.535700E+8	-1.191622E-10	NaN
383	1.000000	0.432432	7.36881e+06	-57789.1	955.819	-29736.6	0.000000	0.000000	6.432901	-0.048174	NaN	0.000000	0.001646	0.001670	28.0806	0.131745	0.002020	65.2364	-177.402	17.3373	-0.054908	0.431136	-0.653623	-0.654918	-0.048174	65.2364	-0.653069	-4.461703E+8	1.079720E-10	NaN
383	1.000000	0.442453	7.36881e+06	-57789.1	955.817	-29736.6	0.000000	0.000000	6.442925	0.014542	NaN	0.000000	0.001680	0.001678	28.0808	0.119354	0.001956	61.0083	-78.692	-165.534	0.104351	0.441133	-0.643601	-0.644922	0.014542	61.0083	-0.643780	-3.327710E+8	-4.370014E-11	NaN
383	1.000000	0.452436	7.36881e+06	-57789.1	955.819	-29736.6	0.000000	0.000000	6.452907	0.002657	NaN	0.000000	0.001660	0.001643	28.0809	0.082495	0.001973	41.8133	-6.512521	12.8557	0.011674	0.451103	-0.633619	-0.634951	0.002657	41.8133	-0.633666	-2.417476E+8	-1.099014E-11	NaN
383	1.000000	0.462465	7.36881e+06	-57789.1	955.819	-29736.6	0.000000	0.000000	6.462938	0.049423	NaN	0.000000	0.001576	0.001661	28.0807	0.050238	0.001943	25.8522	-6.994919	-166.209	0.048157	0.461143	-0.623589	-0.624912	0.049423	25.8522	-0.625023	-1.839343E+8	-2.687011E-10	NaN
383	1.000000	0.472451	7.36881e+06	-57789.1	955.819	-29736.6	0.000000	0.000000	6.472923	0.023566	NaN	0.000000	0.001590	0.001653	28.0809	0.087474	0.001999	43.7604	70.1822	13.2336	0.071323	0.471095	-0.613604	-0.614960	0.023566	43.7604	-0.614008	-1.297907E+8	-1.815671E-10	NaN
383	1.000000	0.482452	7.36881e+06	-57789.1	955.818	-29736.6	0.000000	0.000000	6.482922	-0.002257	NaN	0.000000	0.001582	0.001670	28.0807	0.038739	0.002029	19.089	37.9746	-166.537	-0.034845	0.481161	-0.603603	-0.604894	-0.002257	19.089	-0.603514	-9.307941E+7	2.424546E-11	NaN
383	1.000000	0.492466	7.36881e+06	-57789.1	955.818	-29736.6	0.000000	0.000000	6.492935	-0.045469	NaN	0.000000	0.001576	0.001699	28.0808	0.038989	0.002014	19.3617	13.3464	14.3554	0.019276	0.491123	-0.593589	-0.594932	-0.045469	19.3617	-0.591828	-6.424845E+7	7.077001E-10	NaN
383	1.000000	0.502455	7.36881e+06	-57789.1	955.818	-29736.6	0.000000	0.000000	6.502927	0.026831	NaN	0.000000	0.001573	0.001683	28.0794	0.048919	0.001907	25.653	85.3422	-163.99	0.091392	0.501190	-0.583600	-0.584864	0.026831	25.653	-0.584384	-5.072513E+7	-5.289407E-10	NaN
383	1.000000	0.512459	7.36881e+06	-57789.1	955.818	-29736.6	0.000000	0.000000	6.512931	0.042652	NaN	0.000000	0.001587	0.001617	28.0794	0.139705	0.001972	70.8382	53.7778	14.5827	0.039215	0.511136	-0.573596	-0.574918	0.042652	70.8382	-0.574047	-3.652094E+7	-1.167870E-9	NaN
383	1.000000	0.522474	7.36881e+06	-57789.1	955.818	-29736.6	0.000000	0.000000	6.522947	0.039945	NaN	0.000000	0.001604	0.001674	28.0794	0.017546	0.001996	8.792712	29.8374	-162.32	0.029159	0.521142	-0.563580	-0.564913	0.039945	8.792712	-0.566988	-2.917451E+7	-1.369183E-9	NaN
383	1.000000	0.532479	7.36881e+06	-57789.1	955.818	-29736.6	0.000000	0.000000	6.532949	-0.025750	NaN	0.000000	0.001611	0.001693	28.0796	0.082057	0.002094	39.1892	169.289	16.5922	0.019742	0.531111	-0.553575	-0.554944	-0.025750	39.1892	-0.553083	-1.873456E+7	1.374469E-9	NaN
383	1.000000	0.542459	7.36881e+06	-57789.1	955.82	-29736.6	0.000000	0.000000	6.542933	0.074687	NaN	0.000000	0.001576	0.001672	28.0792	0.045619	0.002196	20.7712	11.6762	-162.653	0.007391	0.541149	-0.543596	-0.544906	0.074687	20.7712	-0.546293	-1.508671E+7	-4.950537E-9	NaN
383	1.000000	0.552488	7.36881e+06	-57789.1	955.819	-29736.6	0.000000	0.000000	6.552960	0.031722	NaN	0.000000	0.001597	0.001681	28.0795	0.044011	0.002113	20.8277	-45.9795	14.6227	0.086799	0.551153	-0.533567	-0.534901	0.031722	20.8277	-0.534709	-1.042211E+7	-3.043730E-9	NaN
383	1.000000	0.562513	7.36881e+06	-57789.1	955.819	-29736.6	0.000000	0.000000	6.562982	-0.039511	NaN	0.000000	0.001602	0.001691	28.0793	0.122463	0.001972	62.0884	-32.6728	-160.568	0.007836	0.561228	-0.523542	-0.524827	-0.039511	62.0884	-0.523065	-7.1814e+06	5.501858E-9	NaN
383	1.000000	0.572499	7.36881e+06	-57789.1	955.819	-29736.6	0.000000	0.000000	6.572968	-0.042515	NaN	0.000000	0.001620	0.001626	28.0795	0.057033	0.001939	29.4063	-41.2434	18.1032	0.011406	0.571193	-0.513555	-0.514862	-0.042515	29.4063	-0.512471	-5.1148e+06	8.312145E-9	NaN
383	1.000000	0.582481	7.36881e+06	-57789.1	955.818	-29736.6	0.000000	0.000000	6.582953	0.030054	NaN	0.000000	0.001631	0.001689	28.0794	0.043964	0.002021	21.7519	-127.698	-164.887	-0.040637	0.581209	-0.503573	-0.504845	0.030054	21.7519	-0.504610	-3.97468e+06	-7.561299E-9	NaN
383	1.000000	0.592499	7.36881e+06	-57789.1	955.82	-29736.6	0.000000	0.000000	6.592968	-0.045713	NaN	0.000000	0.001594	0.001657	28.0793	0.032168	0.002036	15.8034	-59.9487	13.1239	-0.000398	0.591148	-0.493555	-0.494907	-0.045713	15.8034	-0.491386	-2.59872e+06	1.759039E-8	NaN
383	1.000000	0.602489	7.36881e+06	-57789.1	955.819	-29736.6	0.000000	0.000000	6.602960	0.017539	NaN	0.000000	0.001620	0.001682	28.0796	0.031306	0.001937	16.1639	-170.773	-164.967	0.029116	0.601211	-0.483566	-0.484843	0.017539	16.1639	-0.484380	-2.07404e+06	-8.456454E-9	NaN
383	1.000000	0.612531	7.36881e+06	-57789.1	955.819	-29736.6	0.000000	0.000000	6.612998	-0.069580	NaN	0.000000	0.001652	0.001662	28.0794	0.021321	0.001951	10.9256	-153.72	16.2974	-0.029345	0.611097	-0.473524	-0.474958	-0.069580	10.9256	-0.468748	-1.25269e+06	5.554442E-8	NaN
383	1.000000	0.622545	7.36881e+06	-57789.1	955.818	-29736.6	0.000000	0.000000	6.623012	-0.070835	NaN	0.000000	0.001614	0.001691	28.0797	0.066634	0.002064	32.2768	16.7594	-165.31	-0.169088	0.621172	-0.463510	-0.464883	-0.070835	32.2768	-0.461864	-1.00279e+06	7.063831E-8	NaN
383	1.000000	0.632537	7.36881e+06	-57789.1	955.819	-29736.6	0.000000	0.000000	6.633010	0.047157	NaN	0.000000	0.001597	0.001638	28.0805	0.030782	0.001990	15.4649	-3.435367	16.3226	-0.020567	0.631143	-0.453517	-0.454911	0.047157	15.4649	-0.455804	-824195	-5.721565E-8	NaN
383	1.000000	0.642544	7.36881e+06	-57789.1	955.819	-29736.6	0.000000	0.000000	6.643015	0.016819	NaN	0.000000	0.001610	0.001644	28.0809	0.091306	0.001983	46.0345	-47.8761	-165.404	0.019950	0.641189	-0.443511	-0.444866	0.016819	46.0345	-0.443785	-558160	-3.013205E-8	NaN
383	1.000000	0.652543	7.36881e+06	-57789.1	955.819	-29736.6	0.000000	0.000000	6.653016	0.043372	NaN	0.000000	0.001572	0.001651	28.0808	0.046392	0.001966	23.5991	145.417	16.7999	-0.004649	0.651174	-0.433512	-0.434880	0.043372	23.5991	-0.434890	-418022	-1.037564E-7	NaN
383	1.000000	0.662574	7.36881e+06	-57789.1	955.819	-29736.6	0.000000	0.000000	6.663045	0.003860	NaN	0.000000	0.001587	0.001664	28.0809	0.061741	0.001912	32.2926	146.936	-163.382	-0.056609	0.661239	-0.423480	-0.424815	0.003860	32.2926	-0.423570	-289083	-1.335218E-8	NaN
383	1.000000	0.672549	7.36881e+06	-57789.1	955.82	-29736.6	0.000000	0.000000	6.673017	-0.077767	NaN	0.000000	0.001541	0.001651	28.0808	0.005738	0.001891	3.034057	-76.893	17.2782	-0.106891	0.671232	-0.413506	-0.414823	-0.077767	3.034057	-0.394282	-110759	7.021312E-7	NaN
383	1.000000	0.682561	7.36881e+06	-57789.1	955.819	-29736.6	0.000000	0.000000	6.683035	0.087313	NaN	0.000000	0.001559	0.001649	28.081	0.095172	0.002018	47.1507	89.2149	-164.879	0.070983	0.681275	-0.403494	-0.404780	0.087313	47.1507	-0.404883	-156884	-5.565456E-7	NaN
383	1.000000	0.692531	7.36881e+06	-57789.1	955.818	-29736.6	0.000000	0.000000	6.693000	-0.038233	NaN	0.000000	0.001527	0.001657	28.0807	0.053724	0.001949	27.5673	-141.735	15.1116	0.004878	0.691165	-0.393523	-0.394890	-0.038233	27.5673	-0.392483	-104394	3.662328E-7	NaN
383	1.000000	0.702554	7.36881e+06	-57789.1	955.819	-29736.6	0.000000	0.000000	6.703024	-0.028816	NaN	0.000000	0.001599	0.001658	28.0808	0.064897	0.001945	33.3686	-174.308	-163.452	0.010169	0.701268	-0.383500	-0.384787	-0.028816	33.3686	-0.382853	-75999.3	3.791646E-7	NaN
383	1.000000	0.712559	7.36881e+06	-57789.1	955.818	-29736.6	0.000000	0.000000	6.713028	-0.043633	NaN	0.000000	0.001596	0.001655	28.0807	0.050537	0.001989	25.4108	-167.657	13.5171	-0.049595	0.711206	-0.373495	-0.374849	-0.043633	25.4108	-0.372207	-53444.7	8.164129E-7	NaN
383	1.000000	0.722576	7.36881e+06	-57789.1	955.818	-29736.6	0.000000	0.000000	6.723045	-0.026767	NaN	0.000000	0.001635	0.001654	28.0809	0.034052	0.002023	16.8284	29.2154	-170.376	-0.006053	0.721277	-0.363479	-0.364778	-0.026767	16.8284	-0.362286	-38448.4	6.961848E-7	NaN
383	1.000000	0.732550	7.36881e+06	-57789.1	955.818	-29736.6	0.000000	0.000000	6.733020	-0.019389	NaN	0.000000	0.001613	0.001656	28.0807	0.084463	0.001966	42.9642	34.081	11.8241	-0.014726	0.731196	-0.353505	-0.354859	-0.019389	42.9642	-0.353166	-28374.4	6.833384E-7	NaN
383	1.000000	0.742583	7.36881e+06	-57789.1	955.818	-29736.6	0.000000	0.000000	6.743054	0.003324	NaN	0.000000	0.001609	0.001693	28.0808	0.012976	0.001967	6.596534	98.4134	-164.984	-0.038739	0.741216	-0.343472	-0.344838	0.003324	6.596534	-0.343850	-20778.9	-1.599565E-7	NaN
383	1.000000	0.752586	7.36881e+06	-57789.1	955.819	-29736.6	0.000000	0.000000	6.753057	-0.001466	NaN	0.000000	0.001642	0.001643	28.0807	0.022009	0.001996	11.0273	-41.5065	16.3462	-0.006462	0.751166	-0.333469	-0.334889	-0.001466	11.0273	-0.333369	-14613.4	1.003235E-7	NaN
383	1.000000	0.762571	7.36881e+06	-57789.1	955.819	-29736.6	0.000000	0.000000	6.763041	-0.016552	NaN	0.000000	0.001638	0.001659	28.0811	0.029408	0.002038	14.429	102.14	-164.564	-0.049535	0.761229	-0.323484	-0.324826	-0.016552	14.429	-0.322623	-10167.7	1.627875E-6	NaN
383	1.000000	0.772564	7.36881e+06	-57789.1	955.818	-29736.6	0.000000	0.000000	6.773035	-0.007557	NaN	0.000000	0.001605	0.001652	28.0794	0.119922	0.002055	58.3461	-98.9727	15.1238	0.044562	0.771187	-0.313490	-0.314868	-0.007557	58.3461	-0.313393	-7434.01	1.016513E-6	NaN
383	1.000000	0.782570	7.36881e+06	-57789.1	955.819	-29736.6	0.000000	0.000000	6.783041	-0.005807	NaN	0.000000	0.001655	0.001613	28.0796	0.058101	0.002029	28.6336	62.3567	-164.827	0.010801	0.781268	-0.303485	-0.304786	-0.005807	28.6336	-0.303333	-5274.67	1.100958E-6	NaN
383	1.000000	0.792588	7.36881e+06	-57789.1	955.819	-29736.6	0.000000	0.000000	6.793061	0.044621	NaN	0.000000	0.001640	0.001634	28.0797	0.058241	0.001914	30.4367	155.185	18.2342	-0.025585	0.791248	-0.293467	-0.294807	0.044621	30.4367	-0.294566	-3904.9	-1.142694E-5	NaN
383	1.000000	0.802613	7.36881e+06	-57789.1	955.819	-29736.6	0.000000	0.000000	6.803082	-0.050678	NaN	0.000000	0.001585	0.001598	28.0796	0.020174	0.001994	10.1175	81.9592	-167.41	-0.025008	0.801299	-0.283442	-0.284755	-0.050678	10.1175	-0.279685	-2334.61	2.170745E-5	NaN
383	1.000000	0.812615	7.36881e+06	-57789.1	955.819	-29736.6	0.000000	0.000000	6.813086	0.001400	NaN	0.000000	0.001566	0.001602	28.0795	0.014552	0.002019	7.209351	9.454308	12.645	0.032571	0.811174	-0.273439	-0.274880	0.001400	7.209351	-0.273585	-1887.82	-7.418595E-7	NaN
383	1.000000	0.822565	7.36881e+06	-57789.1	955.818	-29736.6	0.000000	0.000000	6.823038	0.040617	NaN	0.000000	0.001551	0.001676	28.0795	0.037192	0.001952	19.0486	-160.049	-163.755	-0.069160	0.821293	-0.263489	-0.264762	0.040617	19.0486	-0.265089	-1401.97	-2.897115E-5	NaN
383	1.000000	0.832594	7.36881e+06	-57789.1	955.819	-29736.6	0.000000	0.000000	6.833066	0.027555	NaN	0.000000	0.001552	0.001656	28.0795	0.081897	0.002037	40.2052	134.334	10.4307	0.063169	0.831268	-0.253460	-0.254787	0.027555	40.2052	-0.253974	-946.93	-2.909932E-5	NaN
383	1.000000	0.842614	7.36881e+06	-57789.1	955.818	-29736.6	0.000000	0.000000	6.843082	-0.058243	NaN	0.000000	0.001604	0.001643	28.0794	0.053053	0.001917	27.6805	-44.4023	-165.173	-0.026745	0.841347	-0.243441	-0.244707	-0.058243	27.6805	-0.241863	-614.635	9.476086E-5	NaN
383	1.000000	0.852646	7.36881e+06	-57789.1	955.818	-29736.6	0.000000	0.000000	6.853116	-0.023938	NaN	0.000000	0.001598	0.001617	28.0798	0.053352	0.002039	26.1678	102.937	13.1141	-0.017306	0.851257	-0.233408	-0.234798	-0.023938	26.1678	-0.232722	-442.016	5.415732E-5	NaN
383	1.000000	0.862650	7.36881e+06	-57789.1	955.819	-29736.6	0.000000	0.000000	6.863118	-0.065212	NaN	0.000000	0.001614	0.001631	28.0797	0.043767	0.001961	22.3196	-86.7952	-163.971	-0.041595	0.861280	-0.223404	-0.224775	-0.065212	22.3196	-0.221213	-290.434	0.000225	NaN
383	1.000000	0.872633	7.36881e+06	-57789.1	955.819	-29736.6	0.000000	0.000000	6.873102	-0.056543	NaN	0.000000	0.001611	0.001631	28.08	0.086236	0.002088	41.3011	-11.8186	16.6443	-0.055028	0.871246	-0.213421	-0.214809	-0.056543	41.3011	-0.212395	-209.668	0.000270	NaN
383	1.000000	0.882601	7.36881e+06	-57789.1	955.818	-29736.6	0.000000	0.000000	6.883071	-0.021815	NaN	0.000000	0.001573	0.001596	28.0798	0.106384	0.001835	57.9827	-168.865	-163.539	-0.034576	0.881273	-0.203454	-0.204781	-0.021815	57.9827	-0.203171	-148.489	0.000147	NaN
383	1.000000	0.892647	7.36881e+06	-57789.1	955.818	-29736.6	0.000000	0.000000	6.893118	0.013261	NaN	0.000000	0.001630	0.001602	28.0799	0.112768	0.002026	55.672	73.3998	16.4496	0.045778	0.891302	-0.193408	-0.194753	0.013261	55.672	-0.193586	-103.219	-0.000128	NaN
383	1.000000	0.902641	7.36881e+06	-57789.1	955.819	-29736.6	0.000000	0.000000	6.903113	0.036055	NaN	0.000000	0.001612	0.001616	28.0799	0.082429	0.001983	41.5714	51.0834	-164.281	-0.005212	0.901372	-0.183414	-0.184683	0.036055	41.5714	-0.184064	-71.5074	-0.000504	NaN
383	1.000000	0.912624	7.36881e+06	-57789.1	955.819	-29736.6	0.000000	0.000000	6.913097	0.042693	NaN	0.000000	0.001565	0.001608	28.081	0.148981	0.001965	75.8236	-98.6003	14.0617	-0.018621	0.911271	-0.173430	-0.174783	0.042693	75.8236	-0.173853	-47.8896	-0.000891	NaN
383	1.000000	0.922663	7.36881e+06	-57789.1	955.82	-29736.6	0.000000	0.000000	6.923130	-0.080232	NaN	0.000000	0.001547	0.001627	28.0806	0.108434	0.002065	52.513	91.292	-165.764	-0.012534	0.921324	-0.163392	-0.164730	-0.080232	52.513	-0.162246	-30.0461	0.002670	NaN
383	1.000000	0.932634	7.36881e+06	-57789.1	955.819	-29736.6	0.000000	0.000000	6.933103	-0.041160	NaN	0.000000	0.001591	0.001656	28.081	0.083147	0.002041	40.7459	13.4506	14.1721	0.000151	0.931285	-0.153421	-0.154769	-0.041160	40.7459	-0.152663	-20.249	0.002033	NaN
383	1.000000	0.942645	7.36881e+06	-57789.1	955.818	-29736.6	0.000000	0.000000	6.943115	-0.018361	NaN	0.000000	0.001573	0.001629	28.0811	0.019518	0.002062	9.466081	155.025	-164.584	0.005025	0.941335	-0.143410	-0.144720	-0.018361	9.466081	-0.141955	-12.87	0.001427	NaN
383	1.000000	0.952645	7.36881e+06	-57789.1	955.818	-29736.6	0.000000	0.000000	6.953115	-0.003210	NaN	0.000000	0.001566	0.001628	28.081	0.066854	0.001842	36.3017	118.035	13.891	-0.001527	0.951229	-0.133410	-0.134826	-0.003210	36.3017	-0.133344	-8.842606	0.000363	NaN
383	1.000000	0.962673	7.36881e+06	-57789.1	955.818	-29736.6	0.000000	0.000000	6.963144	0.004198	NaN	0.000000	0.001578	0.001625	28.0808	0.076258	0.002104	36.2448	-42.936	-163.789	-0.015341	0.961356	-0.123382	-0.124699	0.004198	36.2448	-0.123469	-5.670319	-0.000740	NaN
383	1.000000	0.972655	7.36881e+06	-57789.1	955.82	-29736.6	0.000000	0.000000	6.973124	-0.042232	NaN	0.000000	0.001573	0.001654	28.081	0.047676	0.002058	23.1711	143.564	13.0618	0.051364	0.971306	-0.113399	-0.114749	-0.042232	23.1711	-0.112032	-3.315305	0.012739	NaN
383	1.000000	0.982664	7.36881e+06	-57789.1	955.819	-29736.6	0.000000	0.000000	6.983139	0.089774	NaN	0.000000	0.001574	0.001643	28.0817	0.085314	0.001958	43.5621	-26.8948	-164.71	0.034834	0.981356	-0.103391	-0.104699	0.089774	43.5621	-0.104936	-2.343126	-0.038314	NaN
383	1.000000	0.992659	7.36881e+06	-57789.1	955.819	-29736.6	0.000000	0.000000	6.993133	0.067971	NaN	0.000000	0.001556	0.001614	28.081	0.136458	0.002073	65.8279	-70.5539	14.802	0.056754	0.991284	-0.093395	-0.094771	0.067971	65.8279	-0.094170	-1.350364	-0.050335	NaN
383	1.000000	1.002682	7.36881e+06	-57789.1	955.818	-29736.6	0.000000	0.000000	7.003154	0.032702	NaN	0.000000	0.001551	0.001635	28.0809	0.027045	0.001897	14.2572	-121.356	-164.649	0.126088	1.001273	-0.083373	-0.084782	0.032702	14.2572	-0.085093	-0.825915	-0.039595	NaN
383	1.000000	1.012695	7.36881e+06	-57789.1	955.819	-29736.6	0.000000	0.000000	7.013165	-0.036714	NaN	0.000000	0.001566	0.001666	28.081	0.074579	0.001991	37.4584	-56.5896	13.7257	0.051669	1.011305	-0.073359	-0.074750	-0.036714	37.4584	-0.072624	-0.400451	0.091683	NaN
383	1.000000	1.022650	7.36881e+06	-57789.1	955.819	-29736.6	0.000000	0.000000	7.023123	0.056620	NaN	0.000000	0.001596	0.001648	28.081	0.145098	0.002141	67.7776	-133.247	-161.787	0.106649	1.021356	-0.063405	-0.064699	0.056620	67.7776	-0.064031	-0.234218	-0.241741	NaN
383	1.000000	1.032716	7.36881e+06	-57789.1	955.82	-29736.6	0.000000	0.000000	7.033188	0.028538	NaN	0.000000	0.001618	0.001645	28.0809	0.073291	0.002036	35.9946	-31.0071	12.388	0.034060	1.031290	-0.053339	-0.054765	0.028538	35.9946	-0.053934	-0.119739	-0.238336	NaN
383	1.000000	1.042683	7.36881e+06	-57789.1	955.819	-29736.6	0.000000	0.000000	7.043158	0.099088	NaN	0.000000	0.001583	0.001615	28.0797	0.109711	0.001956	56.0935	59.0696	-164.211	0.079324	1.041367	-0.043372	-0.044688	0.099088	56.0935	-0.044697	-0.062910	-1.575078	NaN
383	1.000000	1.052709	7.36881e+06	-57789.1	955.819	-29736.6	0.000000	0.000000	7.053183	0.065394	NaN	0.000000	0.001580	0.001590	28.0798	0.017718	0.002040	8.683567	142.59	14.0644	0.003689	1.051322	-0.033345	-0.034733	0.065394	8.683567	-0.038993	-0.042154	-1.551336	NaN
383	1.000000	1.062680	7.36881e+06	-57789.1	955.819	-29736.6	0.000000	0.000000	7.063149	-0.036549	NaN	0.000000	0.001631	0.001635	28.0797	0.160814	0.001946	82.6579	107.229	-163.78	-0.090952	1.061380	-0.023375	-0.024675	-0.036549	82.6579	-0.023043	-0.015015	2.434172	NaN
383	1.000000	1.072680	7.36881e+06	-57789.1	955.82	-29736.6	0.000000	0.000000	7.073151	0.007889	NaN	0.000000	0.001594	0.001629	28.0796	0.031036	0.001914	16.2187	130.228	10.9773	0.064428	1.071385	-0.013375	-0.014670	0.007889	16.2187	-0.013740	-0.008531	-0.924774	NaN
383	1.000000	1.082697	7.36881e+06	-57789.1	955.82	-29736.6	0.000000	0.000000	7.083170	0.059979	NaN	0.000000	0.001611	0.001604	28.0795	0.056092	0.001995	28.1123	-98.8456	-162.451	0.050862	1.081409	-0.003358	-0.004645	0.059979	28.1123	-0.004958	-0.003390	-17.6913	NaN
383	1.000000	1.092667	7.36881e+06	-57789.1	955.819	-29736.6	0.000000	0.000000	7.093291	3.739517	NaN	0.000000	0.001648	0.001592	28.0796	4.103212	0.001904	2155.47	12.5291	7.807348	2.341516	1.091343	0.006612	0.005289	3.739517	2155.47	0.005311	0.004419	846.236	29624.6
383	2.000000	1.099260	7.36881e+06	-57789.1	955.819	-29736.6	0.000000	0.000000	7.100061	8.030711	NaN	0.000000	0.001619	0.001623	28.0797	8.432151	0.001686	5001.78	8.881732	-173.631	7.894457	1.098943	0.013205	0.012888	8.030711	5001.78	0.012001	0.011491	698.87	42630.4
383	2.000000	1.101701	7.36881e+06	-57789.1	955.819	-29736.6	0.000000	0.000000	7.102594	10.279	NaN	0.000000	0.001590	0.001639	28.0796	10.8045	0.001860	5809.88	9.037448	7.834951	10.0177	1.101415	0.015646	0.015360	10.279	5809.88	0.014319	0.014388	714.409	44252.6
383	2.000000	1.104212	7.36881e+06	-57789.1	955.82	-29736.6	0.000000	0.000000	7.105231	13.3175	NaN	0.000000	0.001577	0.001606	28.0796	13.5655	0.001852	7326.17	7.403294	-172.776	13.4036	1.103931	0.018157	0.017876	13.3175	7326.17	0.016794	0.017753	750.17	50236.4
383	2.000000	1.106738	7.36881e+06	-57789.1	955.819	-29736.6	0.000000	0.000000	7.107870	16.0774	NaN	0.000000	0.001592	0.001596	28.0797	15.6006	0.001741	8961.08	7.096780	4.627035	16.0724	1.106262	0.020684	0.020208	16.0774	8961.08	0.019338	0.021513	747.351	55819.7
383	2.000000	1.109156	7.36881e+06	-57789.1	955.82	-29736.6	0.000000	0.000000	7.110452	20.0576	NaN	0.000000	0.001588	0.001611	28.0797	17.3529	0.001795	9667.4	6.573961	-175.181	19.0689	1.108856	0.023101	0.022801	20.0576	9667.4	0.021545	0.025029	801.392	55829.7
383	2.000000	1.111652	7.36881e+06	-57789.1	955.819	-29736.6	0.000000	0.000000	7.113201	26.2031	NaN	0.000000	0.001581	0.001630	28.0797	19.8247	0.001584	12517.2	2.785761	4.545256	24.0558	1.111333	0.025597	0.025278	26.2031	12517.2	0.024027	0.029270	895.218	66845.1
383	2.000000	1.114134	7.36881e+06	-57789.1	955.819	-29736.6	0.000000	0.000000	7.115937	32.3896	NaN	0.000000	0.001617	0.001640	28.0797	23.549	0.001834	12842.5	2.386477	-175.021	29.8659	1.113865	0.028079	0.027811	32.3896	12842.5	0.026187	0.033211	975.26	64384.2
383	2.000000	1.116642	7.36881e+06	-57789.1	955.82	-29736.6	0.000000	0.000000	7.118594	36.0059	NaN	0.000000	0.001556	0.001637	28.0796	24.7949	0.001769	14013.1	6.193914	1.581189	33.4141	1.116313	0.030588	0.030259	36.0059	14013.1	0.028660	0.038013	947.197	65666.2
383	2.000000	1.119112	7.36881e+06	-57789.1	955.819	-29736.6	0.000000	0.000000	7.121512	46.8785	NaN	0.000000	0.001608	0.001606	28.081	27.1361	0.001703	15931.6	6.803419	179.182	44.8452	1.118779	0.033058	0.032724	46.8785	15931.6	0.030851	0.042526	1102.35	70583.8
383	2.000000	1.121657	7.36881e+06	-57789.1	955.82	-29736.6	0.000000	0.000000	7.124150	49.1535	NaN	0.000000	0.001607	0.001624	28.0809	29.9526	0.001907	15704.8	5.275369	1.938653	47.2837	1.121192	0.035602	0.035138	49.1535	15704.8	0.033255	0.047760	1029.18	65655.8
383	2.000000	1.124112	7.36881e+06	-57789.1	955.819	-29736.6	0.000000	0.000000	7.126929	57.0174	NaN	0.000000	0.001576	0.001592	28.0812	31.7768	0.001769	17963.5	2.454100	-177.756	54.1239	1.123814	0.038057	0.037759	57.0174	17963.5	0.035677	0.053334	1069.07	71066.4
383	2.000000	1.126696	7.36881e+06	-57789.1	955.821	-29736.6	0.000000	0.000000	7.129780	63.5294	NaN	0.000000	0.001569	0.001586	28.0808	33.1044	0.001879	17620.5	5.928288	0.392621	64.0838	1.126322	0.040641	0.040267	63.5294	17620.5	0.037937	0.058805	1080.33	66387
383	2.000000	1.129196	7.36881e+06	-57789.1	955.82	-29736.6	0.000000	0.000000	7.132609	71.5096	NaN	0.000000	0.001552	0.001608	28.081	35.8145	0.001750	20467.1	5.577339	178.329	72.9004	1.128854	0.043142	0.042800	71.5096	20467.1	0.040521	0.065383	1093.71	73130.5
383	2.000000	1.131642	7.36881e+06	-57789.1	955.82	-29736.6	0.000000	0.000000	7.135594	84.6193	NaN	0.000000	0.001545	0.001655	28.0808	39.3646	0.001873	21015.5	4.445788	-0.381988	85.2959	1.131210	0.045587	0.045156	84.6193	21015.5	0.042567	0.070831	1194.66	72143.9
383	2.000000	1.134184	7.36881e+06	-57789.1	955.82	-29736.6	0.000000	0.000000	7.138262	87.6664	NaN	0.000000	0.001537	0.001613	28.0809	41.5397	0.001844	22525.2	3.013967	-179.153	91.9883	1.133881	0.048129	0.047826	87.6664	22525.2	0.045210	0.078186	1121.26	73600.2
383	2.000000	1.136675	7.36881e+06	-57789.1	955.82	-29736.6	0.000000	0.000000	7.141303	101.034	NaN	0.000000	0.001596	0.001627	28.0808	44.3175	0.001756	25243.7	7.806763	-5.862234	101.786	1.136297	0.050621	0.050242	101.034	25243.7	0.047619	0.085196	1185.9	79016.3
383	2.000000	1.139096	7.36881e+06	-57789.1	955.821	-29736.6	0.000000	0.000000	7.144027	108.388	NaN	0.000000	0.001607	0.001648	28.0808	46.1324	0.001935	23845.2	7.188542	176.047	106.662	1.138790	0.053042	0.052735	108.388	23845.2	0.049633	0.091281	1187.41	72108.2
383	2.000000	1.141562	7.36881e+06	-57789.1	955.82	-29736.6	0.000000	0.000000	7.146948	119.471	NaN	0.000000	0.001615	0.001610	28.0813	47.3753	0.001669	28386.2	5.464379	-5.148272	115.36	1.141270	0.055507	0.055215	119.471	28386.2	0.052350	0.099816	1196.91	82088.1
383	2.000000	1.144157	7.36881e+06	-57789.1	955.821	-29736.6	0.000000	0.000000	7.149747	124.417	NaN	0.000000	0.001648	0.001597	28.0811	50.8624	0.001774	28674.2	5.299827	175.718	124.945	1.143799	0.058103	0.057744	124.417	28674.2	0.054848	0.107986	1152.15	79722.3
383	2.000000	1.146597	7.36881e+06	-57789.1	955.82	-29736.6	0.000000	0.000000	7.152733	137.684	NaN	0.000000	0.001637	0.001643	28.0807	52.7296	0.001792	29431.1	4.213434	-3.493918	133.912	1.146276	0.060543	0.060222	137.684	29431.1	0.057034	0.115388	1193.22	79158.6
383	2.000000	1.149072	7.36881e+06	-57789.1	955.821	-29736.6	0.000000	0.000000	7.155705	149.761	NaN	0.000000	0.001666	0.001633	28.0811	55.0577	0.001793	30698.9	4.163667	176.192	148.478	1.148754	0.063018	0.062699	149.761	30698.9	0.059359	0.123519	1212.45	79804.8
383	2.000000	1.151599	7.36881e+06	-57789.1	955.822	-29736.6	0.000000	0.000000	7.158667	160.353	NaN	0.000000	0.001680	0.001641	28.081	57.9915	0.001774	32694.8	6.315136	-6.533547	157.314	1.151225	0.065544	0.065171	160.353	32694.8	0.061866	0.132584	1209.45	82036.5
383	2.000000	1.154147	7.36881e+06	-57789.1	955.82	-29736.6	0.000000	0.000000	7.161387	164.518	NaN	0.000000	0.001661	0.001648	28.08	61.7554	0.001980	31190.4	4.544060	175.24	167.02	1.153912	0.068092	0.067858	164.518	31190.4	0.064136	0.141056	1166.33	75874.9
383	2.000000	1.156684	7.36881e+06	-57789.1	955.822	-29736.6	0.000000	0.000000	7.164639	181.893	NaN	0.000000	0.001667	0.001626	28.0798	63.1287	0.001857	34002.7	6.530494	-6.737243	184.354	1.156218	0.070629	0.070163	181.893	34002.7	0.066617	0.150600	1207.79	80052.3
383	2.000000	1.159014	7.36881e+06	-57789.1	955.822	-29736.6	0.000000	0.000000	7.167829	202.794	NaN	0.000000	0.001617	0.001644	28.08	64.8046	0.001763	36765.7	5.675281	172.835	198.455	1.158769	0.072959	0.072714	202.794	36765.7	0.068822	0.159331	1272.79	84152.3
383	2.000000	1.161596	7.36881e+06	-57789.1	955.821	-29736.6	0.000000	0.000000	7.170747	210.982	NaN	0.000000	0.001652	0.001627	28.0799	67.9439	0.001891	35926.4	3.628756	-4.435699	210.54	1.161233	0.075541	0.075179	210.982	35926.4	0.071136	0.168742	1250.33	79905.4
383	2.000000	1.164124	7.36881e+06	-57789.1	955.821	-29736.6	0.000000	0.000000	7.173866	225.327	NaN	0.000000	0.001598	0.001614	28.0802	70.1609	0.001852	37888.4	4.752988	173.614	228.095	1.163801	0.078069	0.077746	225.327	37888.4	0.073609	0.179078	1258.26	81801
383	2.000000	1.166625	7.36881e+06	-57789.1	955.82	-29736.6	0.000000	0.000000	7.177027	241.375	NaN	0.000000	0.001609	0.001592	28.08	70.8854	0.001676	42297.3	5.130735	-7.146953	240.448	1.166225	0.080570	0.080171	241.375	42297.3	0.076290	0.190612	1266.31	88513.7
383	2.000000	1.169058	7.36881e+06	-57789.1	955.821	-29736.6	0.000000	0.000000	7.180211	259.619	NaN	0.000000	0.001634	0.001599	28.0803	73.147	0.001724	42424.8	6.734003	170.556	258.999	1.168749	0.083004	0.082694	259.619	42424.8	0.078414	0.199990	1298.16	86674.1
383	2.000000	1.171502	7.36881e+06	-57789.1	955.821	-29736.6	0.000000	0.000000	7.183013	268.308	NaN	0.000000	0.001615	0.001606	28.08	75.0237	0.001823	41161.6	3.678425	-5.953417	262.832	1.171218	0.085448	0.085163	268.308	41161.6	0.080559	0.209673	1279.65	82128.7
383	2.000000	1.174103	7.36881e+06	-57789.1	955.821	-29736.6	0.000000	0.000000	7.185686	270.056	NaN	0.000000	0.001641	0.001611	28.08	77.601	0.001862	41679.3	1.417236	175.87	269.791	1.174019	0.088049	0.087964	270.056	41679.3	0.083189	0.221839	1217.35	80849.1
383	2.000000	1.176576	7.36881e+06	-57789.1	955.821	-29736.6	0.000000	0.000000	7.189190	295.133	NaN	0.000000	0.001585	0.001582	28.0798	79.7596	0.001864	42795.7	6.285707	-8.780590	292.48	1.176206	0.090521	0.090151	295.133	42795.7	0.085349	0.232069	1271.75	81164.2
383	2.000000	1.179002	7.36881e+06	-57789.1	955.82	-29736.6	0.000000	0.000000	7.192386	313.831	NaN	0.000000	0.001595	0.001577	28.0801	81.3051	0.001852	43910.1	4.939561	172.353	310.468	1.178739	0.092948	0.092684	313.831	43910.1	0.087587	0.242899	1292.02	81400.1
383	2.000000	1.181487	7.36881e+06	-57789.1	955.82	-29736.6	0.000000	0.000000	7.195620	332.035	NaN	0.000000	0.001552	0.001559	28.0799	84.5185	0.001883	44895.7	3.260200	-6.284270	326.401	1.181254	0.095432	0.095200	332.035	44895.7	0.089886	0.254258	1305.9	81346.7
383	2.000000	1.184120	7.36881e+06	-57789.1	955.82	-29736.6	0.000000	0.000000	7.198939	348.713	NaN	0.000000	0.001588	0.001550	28.0802	85.8206	0.001739	49359.6	0.565796	176.23	350.932	1.183720	0.098065	0.097665	348.713	49359.6	0.092767	0.268840	1297.1	86975.8
383	2.000000	1.186632	7.36881e+06	-57789.1	955.821	-29736.6	0.000000	0.000000	7.201880	359.134	NaN	0.000000	0.001569	0.001569	28.0814	88.7759	0.001783	49799.1	7.820149	-11.4645	357.696	1.186313	0.100577	0.100258	359.134	49799.1	0.095169	0.281286	1276.76	85786.7
383	2.000000	1.188968	7.36881e+06	-57789.1	955.821	-29736.6	0.000000	0.000000	7.204989	377.935	NaN	0.000000	0.001631	0.001558	28.0813	89.4985	0.001742	51381	2.137302	174.031	371.039	1.188713	0.102914	0.102658	377.935	51381	0.097397	0.293068	1289.58	86714.5
383	2.000000	1.191548	7.36881e+06	-57789.1	955.82	-29736.6	0.000000	0.000000	7.208129	391.527	NaN	0.000000	0.001569	0.001513	28.0815	92.9383	0.001812	51288.2	5.921192	-9.331139	388.412	1.191073	0.105494	0.105019	391.527	51288.2	0.099768	0.305855	1280.11	84729.2
383	2.000000	1.194070	7.36881e+06	-57789.1	955.82	-29736.6	0.000000	0.000000	7.211356	408.678	NaN	0.000000	0.001569	0.001529	28.0811	95.2033	0.001835	51880.9	3.762641	172.597	407.771	1.193826	0.108015	0.107772	408.678	51880.9	0.102107	0.318720	1282.25	83960.7
383	2.000000	1.196543	7.36881e+06	-57789.1	955.821	-29736.6	0.000000	0.000000	7.214734	430.653	NaN	0.000000	0.001545	0.001557	28.0812	97.0936	0.001784	54413.4	9.588534	-13.5884	425.926	1.196128	0.110489	0.110073	430.653	54413.4	0.104553	0.332434	1295.45	86223.7