File: remote_trans/data/nanoindenter/0828-1/data/Data_2025-08-06,11h17m57s/2025-07-22_16-23-58_1_1097.txt
2025-07-22, 16:23:58, 1
Index	Phase	Displacement	Time	Pos X	Pos Y	Pos Z	Rot A	Rot B	Piezo Z	Force A	Force B	Gripper	Voltage A	Voltage B	Temperature	Amplitude force	Amplitude pos	Stiffness	Phase shift	Phase excitation	Force A raw	Displacement raw	HMax	HMax raw	Real Force	Real Stiffness	Contact Depth	Area	Hardness	Reduced Mod.
[#]	[#]	[um]	[s]	[um]	[um]	[um]	[m°]	[m°]	[um]	[uN]	[uN]	[V]	[V]	[V]	[°C]	[uN]	[um]	[N/m]	[°]	[°]	[uN]	[um]	[um]	[um]	[uN]	[N/m]	[um]	[um^2]	[MPa]	[MPa]
1097	1.000000	0.002589	7.37579e+06	-54989.1	1055.82	-29742.4	0.000000	0.000000	6.002826	0.013586	NaN	0.000000	0.001646	0.001697	28.0826	0.095174	0.001065	89.3783	-122.933	-163.36	0.071007	0.001305	-1.111224	-1.112508	0.013586	89.3783	-1.111338	-7.116057E+14	-1.909204E-17	NaN
1097	1.000000	0.012627	7.37579e+06	-54989.1	1055.82	-29742.4	0.000000	0.000000	6.012862	-0.038881	NaN	0.000000	0.001625	0.001719	28.0825	0.107230	0.001129	94.942	13.3175	15.3974	0.058248	0.011185	-1.101186	-1.102628	-0.038881	94.942	-1.100879	-5.150637E+14	7.548775E-17	NaN
1097	1.000000	0.022539	7.37579e+06	-54989.1	1055.82	-29742.4	0.000000	0.000000	6.022779	0.092114	NaN	0.000000	0.001605	0.001674	28.0835	0.078107	0.001639	47.6534	46.7864	-165.915	0.017580	0.021196	-1.091274	-1.092617	0.092114	47.6534	-1.092724	-4.002970E+14	-2.301143E-16	NaN
1097	1.000000	0.032480	7.37579e+06	-54989.1	1055.82	-29742.4	0.000000	0.000000	6.032719	0.058465	NaN	0.000000	0.001585	0.001666	28.0838	0.030080	0.001893	15.8939	-135.404	14.0351	0.027843	0.031126	-1.081333	-1.082686	0.058465	15.8939	-1.084091	-3.065264E+14	-1.907346E-16	NaN
1097	1.000000	0.042527	7.37579e+06	-54989.1	1055.82	-29742.4	0.000000	0.000000	6.042764	0.002495	NaN	0.000000	0.001673	0.001661	28.0838	0.066993	0.001955	34.2714	-67.0415	-161.507	0.014760	0.041235	-1.071286	-1.072578	0.002495	34.2714	-1.071341	-2.066325E+14	-1.207501E-17	NaN
1097	1.000000	0.052527	7.37579e+06	-54989.1	1055.82	-29742.4	0.000000	0.000000	6.052765	0.038317	NaN	0.000000	0.001667	0.001672	28.0841	0.121566	0.002005	60.6305	16.7089	16.0189	0.109804	0.051193	-1.061286	-1.062620	0.038317	60.6305	-1.061760	-1.536267E+14	-2.494153E-16	NaN
1097	1.000000	0.062519	7.37579e+06	-54989.1	1055.82	-29742.4	0.000000	0.000000	6.062753	-0.070862	NaN	0.000000	0.001675	0.001679	28.0839	0.021639	0.002037	10.6222	145.884	-167.825	-0.051279	0.061204	-1.051293	-1.052609	-0.070862	10.6222	-1.046290	-9.517862E+13	7.445112E-16	NaN
1097	1.000000	0.072529	7.37579e+06	-54989.1	1055.82	-29742.4	0.000000	0.000000	6.072764	-0.025833	NaN	0.000000	0.001656	0.001650	28.0839	0.039843	0.002088	19.0797	97.5269	14.1514	0.062736	0.071187	-1.041284	-1.042626	-0.025833	19.0797	-1.040269	-7.899183E+13	3.270345E-16	NaN
1097	1.000000	0.082534	7.37579e+06	-54989.1	1055.82	-29742.4	0.000000	0.000000	6.082772	0.040834	NaN	0.000000	0.001645	0.001705	28.0838	0.028579	0.001999	14.2957	-6.341989	-164.052	-0.048253	0.081212	-1.031279	-1.032601	0.040834	14.2957	-1.033421	-6.389902E+13	-6.390331E-16	NaN
1097	1.000000	0.092534	7.37579e+06	-54989.1	1055.82	-29742.4	0.000000	0.000000	6.092773	0.057528	NaN	0.000000	0.001658	0.001723	28.0838	0.040125	0.002062	19.4613	-98.518	15.2857	0.016017	0.091167	-1.021279	-1.022645	0.057528	19.4613	-1.023496	-4.698789E+13	-1.224309E-15	NaN
1097	1.000000	0.102541	7.37579e+06	-54989.1	1055.82	-29742.4	0.000000	0.000000	6.102777	0.002673	NaN	0.000000	0.001621	0.001700	28.0837	0.058099	0.002122	27.3807	-177.878	-167.915	0.003447	0.101217	-1.011272	-1.012596	0.002673	27.3807	-1.011345	-3.224705E+13	-8.289581E-17	NaN
1097	1.000000	0.112520	7.37579e+06	-54989.1	1055.82	-29742.4	0.000000	0.000000	6.112756	0.007134	NaN	0.000000	0.001661	0.001698	28.0842	0.082411	0.001930	42.7106	-71.4475	15.2091	-0.005766	0.111170	-1.001293	-1.002643	0.007134	42.7106	-1.001419	-2.370650E+13	-3.009353E-16	NaN
1097	1.000000	0.122563	7.37579e+06	-54989.1	1055.82	-29742.4	0.000000	0.000000	6.122803	0.074171	NaN	0.000000	0.001671	0.001749	28.0838	0.051996	0.001973	26.3605	-4.486158	-162.133	0.094013	0.121263	-0.991250	-0.992550	0.074171	26.3605	-0.993360	-1.846547E+13	-4.016728E-15	NaN
1097	1.000000	0.132583	7.37579e+06	-54989.1	1055.82	-29742.4	0.000000	0.000000	6.132825	0.129282	NaN	0.000000	0.001656	0.001690	28.0841	0.022823	0.002017	11.3131	165.684	18.0269	0.059652	0.131142	-0.981230	-0.982671	0.129282	11.3131	-0.989801	-1.653598E+13	-7.818226E-15	NaN
1097	1.000000	0.142567	7.37579e+06	-54989.1	1055.82	-29742.4	0.000000	0.000000	6.142804	0.007939	NaN	0.000000	0.001640	0.001694	28.084	0.084363	0.002169	38.8863	-177.871	-164.707	0.068489	0.141268	-0.971246	-0.972545	0.007939	38.8863	-0.971399	-9.343664E+12	-8.497181E-16	NaN
1097	1.000000	0.152547	7.37579e+06	-54989.1	1055.82	-29742.4	0.000000	0.000000	6.152784	0.015642	NaN	0.000000	0.001639	0.001693	28.0833	0.025114	0.001866	13.4567	-165.704	13.7198	0.045193	0.151185	-0.961266	-0.962628	0.015642	13.4567	-0.962137	-7.009454E+12	-2.231512E-15	NaN
1097	1.000000	0.162552	7.37579e+06	-54989.1	1055.82	-29742.4	0.000000	0.000000	6.162788	-0.000661	NaN	0.000000	0.001667	0.001704	28.0828	0.177941	0.002045	87.0021	-99.5808	-167.486	0.019668	0.161264	-0.951261	-0.952548	-0.000661	87.0021	-0.951255	-4.999846E+12	1.321190E-16	NaN
1097	1.000000	0.172549	7.37579e+06	-54989.1	1055.82	-29742.4	0.000000	0.000000	6.172785	-0.015002	NaN	0.000000	0.001627	0.001646	28.0829	0.031847	0.002171	14.6672	-86.4718	15.6535	-0.047619	0.171223	-0.941264	-0.942590	-0.015002	14.6672	-0.940497	-3.579615E+12	4.190924E-15	NaN
1097	1.000000	0.182564	7.37579e+06	-54989.1	1055.82	-29742.4	0.000000	0.000000	6.182801	0.008014	NaN	0.000000	0.001613	0.001717	28.0831	0.070436	0.002050	34.3666	97.5796	-165.089	0.014327	0.181297	-0.931249	-0.932516	0.008014	34.3666	-0.931424	-2.700317E+12	-2.967840E-15	NaN
1097	1.000000	0.192591	7.37579e+06	-54989.1	1055.82	-29742.4	0.000000	0.000000	6.192827	-0.031965	NaN	0.000000	0.001589	0.001728	28.0827	0.066611	0.002001	33.2938	-9.960689	14.9534	0.058583	0.191213	-0.921221	-0.922599	-0.031965	33.2938	-0.920501	-1.922975E+12	1.662265E-14	NaN
1097	1.000000	0.202557	7.37579e+06	-54989.1	1055.82	-29742.4	0.000000	0.000000	6.202795	0.040720	NaN	0.000000	0.001622	0.001737	28.0829	0.101474	0.001964	51.6703	-128.226	-166.59	0.064543	0.201256	-0.911256	-0.912557	0.040720	51.6703	-0.911847	-1.469300E+12	-2.771380E-14	NaN
1097	1.000000	0.212588	7.37579e+06	-54989.1	1055.82	-29742.4	0.000000	0.000000	6.212824	0.000854	NaN	0.000000	0.001645	0.001713	28.0828	0.067865	0.002031	33.4188	-73.6608	17.9785	-0.076039	0.211221	-0.901225	-0.902591	0.000854	33.4188	-0.901244	-1.056526E+12	-8.084180E-16	NaN
1097	1.000000	0.222614	7.37579e+06	-54989.1	1055.82	-29742.4	0.000000	0.000000	6.222852	0.027268	NaN	0.000000	0.001685	0.001740	28.0832	0.099113	0.001907	51.9694	37.2716	-167.744	-0.081100	0.221302	-0.891199	-0.892511	0.027268	51.9694	-0.891592	-7.824165E+11	-3.485136E-14	NaN
1097	1.000000	0.232614	7.37579e+06	-54989.1	1055.82	-29742.4	0.000000	0.000000	6.232853	0.043305	NaN	0.000000	0.001645	0.001723	28.0828	0.093776	0.001959	47.8745	-127.306	15.4839	0.039307	0.231218	-0.881199	-0.882594	0.043305	47.8745	-0.881877	-5.782166E+11	-7.489401E-14	NaN
1097	1.000000	0.242590	7.37579e+06	-54989.1	1055.82	-29742.4	0.000000	0.000000	6.242829	0.051101	NaN	0.000000	0.001611	0.001699	28.083	0.101488	0.001947	52.1125	26.8352	-166.161	0.061148	0.241286	-0.871223	-0.872527	0.051101	52.1125	-0.871958	-4.245583E+11	-1.203633E-13	NaN
1097	1.000000	0.252595	7.37579e+06	-54989.1	1055.82	-29742.4	0.000000	0.000000	6.252833	0.040099	NaN	0.000000	0.001662	0.001684	28.0831	0.011260	0.001988	5.663784	173.412	15.1384	0.040074	0.251223	-0.861218	-0.862590	0.040099	5.663784	-0.866528	-3.584805E+11	-1.118574E-13	NaN
1097	1.000000	0.262592	7.37579e+06	-54989.1	1055.82	-29742.4	0.000000	0.000000	6.262831	0.053219	NaN	0.000000	0.001642	0.001723	28.0827	0.100745	0.002025	49.745	-12.5858	-167.705	0.036147	0.261307	-0.851221	-0.852506	0.053219	49.745	-0.852023	-2.281032E+11	-2.333104E-13	NaN
1097	1.000000	0.272595	7.37579e+06	-54989.1	1055.82	-29742.4	0.000000	0.000000	6.272829	-0.058094	NaN	0.000000	0.001649	0.001698	28.0827	0.068134	0.002016	33.8023	50.0672	17.5943	-0.019684	0.271235	-0.841218	-0.842578	-0.058094	33.8023	-0.839929	-1.564351E+11	3.713645E-13	NaN
1097	1.000000	0.282606	7.37579e+06	-54989.1	1055.82	-29742.4	0.000000	0.000000	6.282845	0.066154	NaN	0.000000	0.001676	0.001723	28.083	0.026873	0.001993	13.4813	-168.86	-165.28	0.110873	0.281325	-0.831207	-0.832488	0.066154	13.4813	-0.834887	-1.336642E+11	-4.949248E-13	NaN
1097	1.000000	0.292597	7.37579e+06	-54989.1	1055.82	-29742.4	0.000000	0.000000	6.292833	0.004013	NaN	0.000000	0.001694	0.001723	28.0842	0.108380	0.002004	54.0825	128.712	11.7263	-0.029300	0.291231	-0.821216	-0.822581	0.004013	54.0825	-0.821272	-8.738921E+10	-4.592610E-14	NaN
1097	1.000000	0.302623	7.37579e+06	-54989.1	1055.82	-29742.4	0.000000	0.000000	6.302859	-0.014288	NaN	0.000000	0.001715	0.001708	28.0841	0.106138	0.002022	52.4967	177.601	-161.46	-0.023691	0.301300	-0.811189	-0.812513	-0.014288	52.4967	-0.810985	-6.337790E+10	2.254468E-13	NaN
1097	1.000000	0.312613	7.37579e+06	-54989.1	1055.82	-29742.4	0.000000	0.000000	6.312849	-0.002434	NaN	0.000000	0.001703	0.001721	28.0838	0.039933	0.001985	20.1218	106.202	14.3762	-0.008449	0.311315	-0.801200	-0.802498	-0.002434	20.1218	-0.801109	-4.654996E+10	5.227848E-14	NaN
1097	1.000000	0.322643	7.37579e+06	-54989.1	1055.82	-29742.4	0.000000	0.000000	6.322882	0.037268	NaN	0.000000	0.001698	0.001741	28.0841	0.016102	0.001955	8.236250	16.5596	-165.841	0.145215	0.321335	-0.791169	-0.792478	0.037268	8.236250	-0.794563	-3.793569E+10	-9.823920E-13	NaN
1097	1.000000	0.332657	7.37579e+06	-54989.1	1055.82	-29742.4	0.000000	0.000000	6.332894	0.013705	NaN	0.000000	0.001693	0.001756	28.0844	0.012744	0.002006	6.351174	-79.1092	14.9102	-0.047048	0.331285	-0.781156	-0.782528	0.013705	6.351174	-0.782774	-2.623755E+10	-5.223322E-13	NaN
1097	1.000000	0.342632	7.37579e+06	-54989.1	1055.82	-29742.4	0.000000	0.000000	6.342869	0.024886	NaN	0.000000	0.001685	0.001694	28.084	0.051390	0.001963	26.1822	-144.536	-162.95	0.014262	0.341306	-0.771181	-0.772507	0.024886	26.1822	-0.771894	-1.866616E+10	-1.333233E-12	NaN
1097	1.000000	0.352645	7.37579e+06	-54989.1	1055.82	-29742.4	0.000000	0.000000	6.352883	0.049910	NaN	0.000000	0.001679	0.001743	28.0838	0.032946	0.001981	16.6285	-68.4154	12.5208	0.061280	0.351266	-0.761168	-0.762547	0.049910	16.6285	-0.763419	-1.431574E+10	-3.486337E-12	NaN
1097	1.000000	0.362636	7.37579e+06	-54989.1	1055.82	-29742.4	0.000000	0.000000	6.362877	0.087912	NaN	0.000000	0.001723	0.001729	28.0841	0.105990	0.002060	51.4424	-65.7323	-166.512	-0.020088	0.361348	-0.751176	-0.752465	0.087912	51.4424	-0.752458	-1.015494E+10	-8.657074E-12	NaN
1097	1.000000	0.372606	7.37579e+06	-54989.1	1055.82	-29742.4	0.000000	0.000000	6.372842	-0.009102	NaN	0.000000	0.001693	0.001695	28.0841	0.096363	0.002047	47.0835	-160.797	13.6304	-0.001355	0.371311	-0.741207	-0.742502	-0.009102	47.0835	-0.741062	-7.104198E+9	1.281224E-12	NaN
1097	1.000000	0.382617	7.37579e+06	-54989.1	1055.82	-29742.4	0.000000	0.000000	6.382854	0.021705	NaN	0.000000	0.001641	0.001699	28.084	0.054035	0.002070	26.1041	57.37	-164.541	0.064000	0.381340	-0.731196	-0.732473	0.021705	26.1041	-0.731820	-5.316308E+9	-4.082814E-12	NaN
1097	1.000000	0.392676	7.37579e+06	-54989.1	1055.82	-29742.4	0.000000	0.000000	6.392914	0.038853	NaN	0.000000	0.001660	0.001710	28.084	0.059223	0.002164	27.3681	179.983	17.775	0.071937	0.391310	-0.721137	-0.722503	0.038853	27.3681	-0.722201	-3.930898E+9	-9.883913E-12	NaN
1097	1.000000	0.402677	7.37579e+06	-54989.1	1055.82	-29742.4	0.000000	0.000000	6.402919	0.129745	NaN	0.000000	0.001647	0.001706	28.0842	0.076964	0.002024	38.0218	87.3181	-166.5	0.113611	0.401356	-0.711135	-0.712457	0.129745	38.0218	-0.713695	-3.009296E+9	-4.311471E-11	NaN
1097	1.000000	0.412682	7.37579e+06	-54989.1	1055.82	-29742.4	0.000000	0.000000	6.412918	-0.001783	NaN	0.000000	0.001680	0.001734	28.084	0.040008	0.002031	19.703	121.352	12.3446	-0.040158	0.411272	-0.701131	-0.702541	-0.001783	19.703	-0.701063	-2.023261E+9	8.811745E-13	NaN
1097	1.000000	0.422661	7.37579e+06	-54989.1	1055.82	-29742.4	0.000000	0.000000	6.422898	0.011665	NaN	0.000000	0.001658	0.001713	28.084	0.098110	0.002049	47.8855	-33.9489	-163.098	-0.014526	0.421374	-0.691152	-0.692439	0.011665	47.8855	-0.691334	-1.489889E+9	-7.829225E-12	NaN
1097	1.000000	0.432655	7.37579e+06	-54989.1	1055.82	-29742.4	0.000000	0.000000	6.432891	-0.013225	NaN	0.000000	0.001607	0.001748	28.0828	0.054007	0.001940	27.8389	-80.5736	14.6286	-0.061464	0.431308	-0.681158	-0.682505	-0.013225	27.8389	-0.680802	-1.069473E+9	1.236600E-11	NaN
1097	1.000000	0.442676	7.37579e+06	-54989.1	1055.82	-29742.4	0.000000	0.000000	6.442914	0.033538	NaN	0.000000	0.001634	0.001729	28.0829	0.037301	0.001860	20.0501	92.9257	-165.633	0.000172	0.441345	-0.671137	-0.672468	0.033538	20.0501	-0.672392	-8.205773E+8	-4.087078E-11	NaN
1097	1.000000	0.452709	7.37579e+06	-54989.1	1055.82	-29742.4	0.000000	0.000000	6.452945	-0.016187	NaN	0.000000	0.001653	0.001734	28.0827	0.093896	0.001937	48.4665	9.786122	18.4871	-0.037272	0.451276	-0.661104	-0.662536	-0.016187	48.4665	-0.660853	-5.703679E+8	2.838012E-11	NaN
1097	1.000000	0.462690	7.37579e+06	-54989.1	1055.82	-29742.4	0.000000	0.000000	6.462926	-0.014871	NaN	0.000000	0.001624	0.001747	28.0827	0.062465	0.002017	30.9715	169.102	-164.263	0.017318	0.461372	-0.651123	-0.652441	-0.014871	30.9715	-0.650763	-4.148563E+8	3.584627E-11	NaN
1097	1.000000	0.472706	7.37579e+06	-54989.1	1055.82	-29742.4	0.000000	0.000000	6.472942	-0.028954	NaN	0.000000	0.001616	0.001725	28.083	0.043965	0.002083	21.1074	-4.932020	14.0272	-0.043028	0.471364	-0.641106	-0.642449	-0.028954	21.1074	-0.640078	-2.960428E+8	9.780280E-11	NaN
1097	1.000000	0.482698	7.37579e+06	-54989.1	1055.82	-29742.4	0.000000	0.000000	6.482937	0.062975	NaN	0.000000	0.001618	0.001709	28.0827	0.054497	0.002159	25.2442	-76.9718	-164.411	0.090839	0.481320	-0.631115	-0.632493	0.062975	25.2442	-0.632986	-2.366070E+8	-2.661570E-10	NaN
1097	1.000000	0.492643	7.37579e+06	-54989.1	1055.82	-29742.4	0.000000	0.000000	6.492882	0.071822	NaN	0.000000	0.001650	0.001709	28.0829	0.028583	0.001967	14.5302	-125.901	14.1341	0.023588	0.491298	-0.621170	-0.622515	0.071822	14.5302	-0.624877	-1.830865E+8	-3.922843E-10	NaN
1097	1.000000	0.502713	7.37579e+06	-54989.1	1055.82	-29742.4	0.000000	0.000000	6.502952	0.052558	NaN	0.000000	0.001641	0.001748	28.0825	0.069772	0.001811	38.5307	-168.538	-169.038	0.053723	0.501364	-0.611100	-0.612449	0.052558	38.5307	-0.612123	-1.222686E+8	-4.298545E-10	NaN
1097	1.000000	0.512709	7.37579e+06	-54989.1	1055.82	-29742.4	0.000000	0.000000	6.512943	-0.055086	NaN	0.000000	0.001649	0.001739	28.083	0.109844	0.001916	57.3424	-113.533	12.7628	-0.070930	0.511364	-0.601104	-0.602449	-0.055086	57.3424	-0.600383	-8.428273E+7	6.535820E-10	NaN
1097	1.000000	0.522723	7.37579e+06	-54989.1	1055.82	-29742.4	0.000000	0.000000	6.522961	0.032238	NaN	0.000000	0.001651	0.001735	28.0826	0.039612	0.001923	20.5946	-35.3136	-163.175	0.066822	0.521410	-0.591090	-0.592403	0.032238	20.5946	-0.592264	-6.514432E+7	-4.948689E-10	NaN
1097	1.000000	0.532724	7.37579e+06	-54989.1	1055.82	-29742.4	0.000000	0.000000	6.532961	0.005630	NaN	0.000000	0.001662	0.001736	28.083	0.146124	0.001998	73.1182	105.326	12.8386	0.036031	0.531401	-0.581089	-0.582412	0.005630	73.1182	-0.581146	-4.576626E+7	-1.230075E-10	NaN
1097	1.000000	0.542711	7.37579e+06	-54989.1	1055.82	-29742.4	0.000000	0.000000	6.542946	-0.027092	NaN	0.000000	0.001658	0.001695	28.0827	0.097391	0.002055	47.3996	56.1081	-167.318	0.005376	0.541420	-0.571102	-0.572392	-0.027092	47.3996	-0.570673	-3.280447E+7	8.258729E-10	NaN
1097	1.000000	0.552713	7.37579e+06	-54989.1	1055.82	-29742.4	0.000000	0.000000	6.552949	-0.009645	NaN	0.000000	0.001645	0.001691	28.0831	0.076246	0.002060	37.0043	-156.443	15.4716	0.026778	0.551393	-0.561100	-0.562420	-0.009645	37.0043	-0.560905	-2.403759E+7	4.012342E-10	NaN
1097	1.000000	0.562764	7.37579e+06	-54989.1	1055.82	-29742.4	0.000000	0.000000	6.563002	0.035204	NaN	0.000000	0.001625	0.001638	28.0837	0.050656	0.001967	25.7577	144.264	-165.425	0.009951	0.561387	-0.551048	-0.552426	0.035204	25.7577	-0.552074	-1.814145E+7	-1.940541E-9	NaN
1097	1.000000	0.572759	7.37579e+06	-54989.1	1055.82	-29742.4	0.000000	0.000000	6.572996	0.016049	NaN	0.000000	0.001624	0.001663	28.0842	0.029703	0.002026	14.6641	48.5614	13.0131	0.041900	0.571316	-0.541054	-0.542496	0.016049	14.6641	-0.541875	-1.310265E+7	-1.224832E-9	NaN
1097	1.000000	0.582745	7.37579e+06	-54989.1	1055.82	-29742.4	0.000000	0.000000	6.582984	0.054288	NaN	0.000000	0.001612	0.001731	28.084	0.029777	0.002085	14.2806	-81.266	-164.213	0.040213	0.581375	-0.531068	-0.532438	0.054288	14.2806	-0.533919	-1.016227E+7	-5.342135E-9	NaN
1097	1.000000	0.592749	7.37579e+06	-54989.1	1055.82	-29742.4	0.000000	0.000000	6.592989	0.069534	NaN	0.000000	0.001621	0.001676	28.0843	0.010308	0.001904	5.413476	-38.5849	15.921	-0.002767	0.591373	-0.521064	-0.522440	0.069534	5.413476	-0.530697	-9.16762e+06	-7.584697E-9	NaN
1097	1.000000	0.602751	7.37579e+06	-54989.1	1055.82	-29742.4	0.000000	0.000000	6.602989	0.022582	NaN	0.000000	0.001640	0.001699	28.084	0.101899	0.001946	52.3685	-6.328783	-166.068	0.072240	0.601451	-0.511061	-0.512362	0.022582	52.3685	-0.511385	-4.93971e+06	-4.571571E-9	NaN
1097	1.000000	0.612774	7.37579e+06	-54989.1	1055.82	-29742.4	0.000000	0.000000	6.613013	0.066622	NaN	0.000000	0.001628	0.001717	28.084	0.118143	0.001873	63.0891	-34.2182	13.7668	0.015242	0.611372	-0.501039	-0.502441	0.066622	63.0891	-0.501831	-3.63548e+06	-1.832549E-8	NaN
1097	1.000000	0.622737	7.37579e+06	-54989.1	1055.82	-29742.4	0.000000	0.000000	6.622973	-0.017059	NaN	0.000000	0.001616	0.001681	28.0838	0.117154	0.002084	56.225	-145.39	-166.394	-0.026296	0.621429	-0.491076	-0.492383	-0.017059	56.225	-0.490848	-2.55414e+06	6.678996E-9	NaN
1097	1.000000	0.632730	7.37579e+06	-54989.1	1055.82	-29742.4	0.000000	0.000000	6.632965	-0.026882	NaN	0.000000	0.001626	0.001693	28.0843	0.020488	0.001975	10.3724	-160.695	16.6096	-0.072746	0.631377	-0.481083	-0.482436	-0.026882	10.3724	-0.479139	-1.75177e+06	1.534576E-8	NaN
1097	1.000000	0.642772	7.37579e+06	-54989.1	1055.82	-29742.4	0.000000	0.000000	6.643009	0.000678	NaN	0.000000	0.001622	0.001651	28.0839	0.060055	0.001878	31.9829	-154.008	-166.038	0.007409	0.641462	-0.471041	-0.472350	0.000678	31.9829	-0.471057	-1.34966e+06	-5.024465E-10	NaN
1097	1.000000	0.652771	7.37579e+06	-54989.1	1055.82	-29742.4	0.000000	0.000000	6.653010	0.078530	NaN	0.000000	0.001621	0.001701	28.0841	0.053619	0.001930	27.7875	143.048	16.7873	0.090623	0.651369	-0.461042	-0.462444	0.078530	27.7875	-0.463162	-1.04577e+06	-7.509259E-8	NaN
1097	1.000000	0.662778	7.37579e+06	-54989.1	1055.82	-29742.4	0.000000	0.000000	6.663017	0.058686	NaN	0.000000	0.001616	0.001717	28.0838	0.136102	0.001938	70.238	-108.295	-164.261	-0.021577	0.661495	-0.451035	-0.452318	0.058686	70.238	-0.451661	-720666	-8.143235E-8	NaN
1097	1.000000	0.672796	7.37579e+06	-54989.1	1055.82	-29742.4	0.000000	0.000000	6.673033	0.024323	NaN	0.000000	0.001641	0.001733	28.084	0.080081	0.002087	38.3659	-133.217	13.4215	0.029124	0.671392	-0.441017	-0.442421	0.024323	38.3659	-0.441493	-518115	-4.694436E-8	NaN
1097	1.000000	0.682776	7.37579e+06	-54989.1	1055.82	-29742.4	0.000000	0.000000	6.683011	-0.034569	NaN	0.000000	0.001620	0.001720	28.0839	0.088472	0.001933	45.7649	-37.1478	-162.842	0.022771	0.681446	-0.431037	-0.432367	-0.034569	45.7649	-0.430471	-362010	9.549082E-8	NaN
1097	1.000000	0.692768	7.37579e+06	-54989.1	1055.82	-29742.4	0.000000	0.000000	6.693003	-0.050538	NaN	0.000000	0.001631	0.001713	28.0838	0.009883	0.001868	5.290810	87.403	13.5896	-0.005876	0.691456	-0.421044	-0.422357	-0.050538	5.290810	-0.413880	-210645	2.399202E-7	NaN
1097	1.000000	0.702767	7.37579e+06	-54989.1	1055.82	-29742.4	0.000000	0.000000	6.703004	0.013237	NaN	0.000000	0.001587	0.001732	28.0829	0.074306	0.001964	37.8431	38.1841	-162.868	-0.043452	0.701471	-0.411046	-0.412342	0.013237	37.8431	-0.411308	-193643	-6.835532E-8	NaN
1097	1.000000	0.712788	7.37579e+06	-54989.1	1055.82	-29742.4	0.000000	0.000000	6.713026	0.019528	NaN	0.000000	0.001567	0.001721	28.0827	0.084848	0.001923	44.1162	-130.736	13.1166	0.008791	0.711366	-0.401024	-0.402447	0.019528	44.1162	-0.401356	-139744	-1.397442E-7	NaN
1097	1.000000	0.722791	7.37579e+06	-54989.1	1055.82	-29742.4	0.000000	0.000000	6.723027	0.000211	NaN	0.000000	0.001625	0.001710	28.0828	0.144992	0.001898	76.3906	97.1866	-165.92	0.060745	0.721492	-0.391022	-0.392321	0.000211	76.3906	-0.391024	-99498.6	-2.118266E-9	NaN
1097	1.000000	0.732825	7.37579e+06	-54989.1	1055.82	-29742.4	0.000000	0.000000	6.733063	0.032325	NaN	0.000000	0.001572	0.001688	28.0831	0.122319	0.001956	62.5224	16.0629	12.8547	0.015532	0.731481	-0.380988	-0.382331	0.032325	62.5224	-0.381376	-72382.2	-4.465832E-7	NaN
1097	1.000000	0.742808	7.37579e+06	-54989.1	1055.82	-29742.4	0.000000	0.000000	6.743043	-0.022232	NaN	0.000000	0.001576	0.001711	28.0831	0.025231	0.002114	11.9345	-137.189	-168.388	0.003901	0.741495	-0.371005	-0.372318	-0.022232	11.9345	-0.369608	-49032.2	4.534127E-7	NaN
1097	1.000000	0.752802	7.37579e+06	-54989.1	1055.82	-29742.4	0.000000	0.000000	6.753040	0.025282	NaN	0.000000	0.001576	0.001715	28.0829	0.094911	0.002036	46.6127	-150.228	16.3746	0.028183	0.751457	-0.361011	-0.362355	0.025282	46.6127	-0.361418	-37353.7	-6.768172E-7	NaN
1097	1.000000	0.762812	7.37579e+06	-54989.1	1055.82	-29742.4	0.000000	0.000000	6.763049	-0.004012	NaN	0.000000	0.001576	0.001701	28.083	0.033464	0.001947	17.1879	49.2385	-167.312	0.042600	0.761488	-0.351001	-0.352325	-0.004012	17.1879	-0.350826	-26241.2	1.529032E-7	NaN
1097	1.000000	0.772839	7.37579e+06	-54989.1	1055.82	-29742.4	0.000000	0.000000	6.773075	-0.018082	NaN	0.000000	0.001573	0.001709	28.0831	0.158890	0.002024	78.4989	2.493227	16.9824	0.046417	0.771427	-0.340973	-0.342386	-0.018082	78.4989	-0.340801	-18759.6	9.639044E-7	NaN
1097	1.000000	0.782802	7.37579e+06	-54989.1	1055.82	-29742.4	0.000000	0.000000	6.783038	-0.013731	NaN	0.000000	0.001592	0.001723	28.0831	0.019215	0.001931	9.951801	84.9118	-165.351	0.030374	0.781486	-0.331011	-0.332326	-0.013731	9.951801	-0.329976	-13034.6	1.053440E-6	NaN
1097	1.000000	0.792823	7.37579e+06	-54989.1	1055.82	-29742.4	0.000000	0.000000	6.793059	-0.014495	NaN	0.000000	0.001577	0.001754	28.0831	0.095490	0.002071	46.0987	-152.705	12.6919	0.036489	0.791464	-0.320990	-0.322349	-0.014495	46.0987	-0.320754	-9544.03	1.518764E-6	NaN
1097	1.000000	0.802815	7.37579e+06	-54989.1	1055.82	-29742.4	0.000000	0.000000	6.803051	-0.008209	NaN	0.000000	0.001551	0.001735	28.0831	0.093975	0.001830	51.3523	-145.931	-165.684	0.003003	0.801485	-0.310998	-0.312327	-0.008209	51.3523	-0.310878	-6824.19	1.202883E-6	NaN
1097	1.000000	0.812865	7.37579e+06	-54989.1	1055.82	-29742.4	0.000000	0.000000	6.813104	0.059724	NaN	0.000000	0.001586	0.001723	28.083	0.088463	0.001939	45.6194	90.0205	15.1729	0.055978	0.811481	-0.300948	-0.302331	0.059724	45.6194	-0.301930	-5027.39	-1.187971E-5	NaN
1097	1.000000	0.822835	7.37579e+06	-54989.1	1055.82	-29742.4	0.000000	0.000000	6.823074	0.045226	NaN	0.000000	0.001578	0.001734	28.0832	0.034388	0.001867	18.4229	-136.017	-166.317	0.055372	0.821509	-0.290977	-0.292303	0.045226	18.4229	-0.292819	-3676.97	-1.229982E-5	NaN
1097	1.000000	0.832804	7.37579e+06	-54989.1	1055.82	-29742.4	0.000000	0.000000	6.833042	0.021386	NaN	0.000000	0.001590	0.001729	28.083	0.059545	0.002003	29.7234	-142.925	17.0202	0.053497	0.831467	-0.281009	-0.282346	0.021386	29.7234	-0.281548	-2490.66	-8.586328E-6	NaN
1097	1.000000	0.842826	7.37579e+06	-54989.1	1055.82	-29742.4	0.000000	0.000000	6.843065	0.044269	NaN	0.000000	0.001604	0.001747	28.0845	0.079746	0.001846	43.1883	140.548	-163.068	0.000517	0.841513	-0.270986	-0.272300	0.044269	43.1883	-0.271755	-1770.95	-2.499746E-5	NaN
1097	1.000000	0.852865	7.37579e+06	-54989.1	1055.82	-29742.4	0.000000	0.000000	6.853101	-0.014835	NaN	0.000000	0.001632	0.001737	28.0843	0.081790	0.002001	40.884	-98.0184	17.0019	0.017134	0.851494	-0.260948	-0.262319	-0.014835	40.884	-0.260676	-1200.24	1.235991E-5	NaN
1097	1.000000	0.862857	7.37579e+06	-54989.1	1055.82	-29742.4	0.000000	0.000000	6.863091	-0.051731	NaN	0.000000	0.001599	0.001759	28.0844	0.054276	0.002027	26.777	-91.367	-166.025	-0.085001	0.861490	-0.250956	-0.252323	-0.051731	26.777	-0.249507	-807.876	6.403313E-5	NaN
1097	1.000000	0.872879	7.37579e+06	-54989.1	1055.82	-29742.4	0.000000	0.000000	6.873115	-0.010845	NaN	0.000000	0.001559	0.001751	28.0841	0.027939	0.001992	14.028	151.583	13.3285	-0.038353	0.871452	-0.240934	-0.242360	-0.010845	14.028	-0.240354	-582.208	1.862731E-5	NaN
1097	1.000000	0.882852	7.37579e+06	-54989.1	1055.82	-29742.4	0.000000	0.000000	6.883089	0.006143	NaN	0.000000	0.001562	0.001758	28.0845	0.085418	0.001883	45.3717	33.7062	-166.516	0.041586	0.881483	-0.230960	-0.232329	0.006143	45.3717	-0.231062	-416.176	-1.476032E-5	NaN
1097	1.000000	0.892868	7.37579e+06	-54989.1	1055.82	-29742.4	0.000000	0.000000	6.893104	-0.006187	NaN	0.000000	0.001548	0.001748	28.0841	0.019682	0.001909	10.3084	62.8696	14.6626	0.058724	0.891574	-0.220945	-0.222239	-0.006187	10.3084	-0.220495	-282.865	2.187315E-5	NaN
1097	1.000000	0.902881	7.37579e+06	-54989.1	1055.82	-29742.4	0.000000	0.000000	6.903116	-0.037375	NaN	0.000000	0.001588	0.001754	28.0844	0.107661	0.002064	52.1661	174.288	-163.025	-0.019222	0.901521	-0.210932	-0.212292	-0.037375	52.1661	-0.210395	-194.629	0.000192	NaN
1097	1.000000	0.912840	7.37579e+06	-54989.1	1055.82	-29742.4	0.000000	0.000000	6.913073	-0.097116	NaN	0.000000	0.001617	0.001717	28.0842	0.024331	0.001840	13.2246	138.257	12.6737	-0.061517	0.911477	-0.200972	-0.202336	-0.097116	13.2246	-0.195465	-110.891	0.000876	NaN
1097	1.000000	0.922910	7.37579e+06	-54989.1	1055.82	-29742.4	0.000000	0.000000	6.923147	0.011470	NaN	0.000000	0.001655	0.001726	28.0846	0.042169	0.002060	20.4702	-74.74	-167.139	0.100247	0.921556	-0.190903	-0.192257	0.011470	20.4702	-0.191323	-94.6471	-0.000121	NaN
1097	1.000000	0.932858	7.37579e+06	-54989.1	1055.82	-29742.4	0.000000	0.000000	6.933093	-0.045284	NaN	0.000000	0.001648	0.001735	28.0845	0.097491	0.002116	46.0656	112.944	11.2691	-0.053092	0.931607	-0.180955	-0.182205	-0.045284	46.0656	-0.180218	-61.5415	0.000736	NaN
1097	1.000000	0.942827	7.37579e+06	-54989.1	1055.82	-29742.4	0.000000	0.000000	6.943065	0.021067	NaN	0.000000	0.001600	0.001699	28.0843	0.069799	0.002030	34.3815	-174.836	-165.91	-0.116847	0.941592	-0.170986	-0.172220	0.021067	34.3815	-0.171445	-43.5185	-0.000484	NaN
1097	1.000000	0.952883	7.37579e+06	-54989.1	1055.82	-29742.4	0.000000	0.000000	6.953121	0.025856	NaN	0.000000	0.001616	0.001673	28.0844	0.041916	0.002008	20.8774	105.768	14.4891	0.033626	0.951533	-0.160930	-0.162280	0.025856	20.8774	-0.161858	-29.5758	-0.000874	NaN
1097	1.000000	0.962899	7.37579e+06	-54989.1	1055.82	-29742.4	0.000000	0.000000	6.963135	-0.001480	NaN	0.000000	0.001618	0.001717	28.0843	0.026515	0.002000	13.259	-69.7597	-166.513	-0.045728	0.961571	-0.150914	-0.152241	-0.001480	13.259	-0.150830	-18.7557	7.892803E-5	NaN
1097	1.000000	0.972892	7.37579e+06	-54989.1	1055.82	-29742.4	0.000000	0.000000	6.973127	-0.041267	NaN	0.000000	0.001611	0.001712	28.0831	0.083929	0.001995	42.0717	112.651	16.2945	-0.017517	0.971473	-0.140921	-0.142340	-0.041267	42.0717	-0.140186	-11.9248	0.003461	NaN
1097	1.000000	0.982914	7.37579e+06	-54989.1	1055.82	-29742.4	0.000000	0.000000	6.983150	-0.002349	NaN	0.000000	0.001605	0.001693	28.083	0.071845	0.001952	36.7996	-152.678	-167.201	-0.027012	0.981580	-0.130899	-0.132233	-0.002349	36.7996	-0.130851	-7.916216	0.000297	NaN
1097	1.000000	0.992908	7.37579e+06	-54989.1	1055.82	-29742.4	0.000000	0.000000	6.993141	-0.101893	NaN	0.000000	0.001602	0.001667	28.0833	0.157859	0.002049	77.0588	79.6724	15.9885	-0.079907	0.991530	-0.120904	-0.122283	-0.101893	77.0588	-0.119913	-4.811945	0.021175	NaN
1097	1.000000	1.002868	7.37579e+06	-54989.1	1055.82	-29742.4	0.000000	0.000000	7.003104	-0.006323	NaN	0.000000	0.001645	0.001648	28.0831	0.061885	0.001864	33.201	-39.2809	-162.329	-0.066881	1.001616	-0.110945	-0.112197	-0.006323	33.201	-0.110802	-3.124357	0.002024	NaN
1097	1.000000	1.012935	7.37579e+06	-54989.1	1055.82	-29742.4	0.000000	0.000000	7.013172	0.019089	NaN	0.000000	0.001606	0.001660	28.0831	0.078039	0.001944	40.1458	25.7499	15.5843	0.015699	1.011542	-0.100878	-0.102271	0.019089	40.1458	-0.101235	-1.945595	-0.009811	NaN
1097	1.000000	1.022919	7.37579e+06	-54989.1	1055.82	-29742.4	0.000000	0.000000	7.023154	-0.028260	NaN	0.000000	0.001623	0.001677	28.0831	0.059607	0.001832	32.5362	-113.649	-165.984	-0.004099	1.021590	-0.090894	-0.092223	-0.028260	32.5362	-0.090243	-1.095224	0.025802	NaN
1097	1.000000	1.032930	7.37579e+06	-54989.1	1055.82	-29742.4	0.000000	0.000000	7.033169	0.040513	NaN	0.000000	0.001569	0.001667	28.083	0.024848	0.002002	12.409	-169.757	14.2307	0.017357	1.031553	-0.080882	-0.082260	0.040513	12.409	-0.083331	-0.748286	-0.054141	NaN
1097	1.000000	1.042920	7.37579e+06	-54989.1	1055.82	-29742.4	0.000000	0.000000	7.043157	-0.006148	NaN	0.000000	0.001631	0.001671	28.083	0.035225	0.002051	17.176	21.7344	-167.725	-0.003122	1.041639	-0.070892	-0.072174	-0.006148	17.176	-0.070624	-0.354463	0.017344	NaN
1097	1.000000	1.052930	7.37579e+06	-54989.1	1055.82	-29742.4	0.000000	0.000000	7.053169	0.054380	NaN	0.000000	0.001625	0.001657	28.0831	0.059382	0.001918	30.9612	23.3945	15.6523	0.084200	1.051535	-0.060883	-0.062277	0.054380	30.9612	-0.062200	-0.208050	-0.261378	NaN
1097	1.000000	1.062922	7.37579e+06	-54989.1	1055.82	-29742.4	0.000000	0.000000	7.063157	-0.032404	NaN	0.000000	0.001593	0.001691	28.083	0.015417	0.002012	7.662333	-164.91	-168.259	-0.009386	1.061613	-0.050891	-0.052200	-0.032404	7.662333	-0.047719	-0.077806	0.416469	NaN
1097	1.000000	1.072925	7.37579e+06	-54989.1	1055.82	-29742.4	0.000000	0.000000	7.073162	0.016554	NaN	0.000000	0.001644	0.001677	28.0832	0.058951	0.002046	28.808	123.986	13.503	0.056764	1.071536	-0.040888	-0.042277	0.016554	28.808	-0.041319	-0.049600	-0.333754	NaN
1097	1.000000	1.082940	7.37579e+06	-54989.1	1055.82	-29742.4	0.000000	0.000000	7.083181	0.103820	NaN	0.000000	0.001627	0.001690	28.083	0.030875	0.002066	14.9456	178.756	-164.13	0.090249	1.081598	-0.030873	-0.032215	0.103820	14.9456	-0.036083	-0.034476	-3.011403	NaN
1097	1.000000	1.092919	7.37579e+06	-54989.1	1055.82	-29742.4	0.000000	0.000000	7.093157	0.047194	NaN	0.000000	0.001610	0.001727	28.0831	0.110374	0.001905	57.9301	-169.593	14.718	0.053467	1.091578	-0.020894	-0.022235	0.047194	57.9301	-0.021505	-0.013718	-3.440407	NaN
1097	1.000000	1.102987	7.37579e+06	-54989.1	1055.82	-29742.4	0.000000	0.000000	7.103225	0.049601	NaN	0.000000	0.001582	0.001704	28.0833	0.024379	0.001879	12.9765	-155.594	-161.914	-0.005336	1.101621	-0.010826	-0.012192	0.049601	12.9765	-0.013693	-0.008504	-5.832756	NaN
1097	1.000000	1.112913	7.37579e+06	-54989.1	1055.82	-29742.4	0.000000	0.000000	7.113280	3.192100	NaN	0.000000	0.001592	0.001744	28.0844	3.983019	0.002010	1981.35	12.221	11.6086	1.643808	1.111596	-0.000900	-0.002217	3.192100	1981.35	-0.002109	-0.001514	-2107.75	NaN
1097	2.000000	1.120521	7.37579e+06	-54989.1	1055.82	-29742.4	0.000000	0.000000	7.121149	9.524934	NaN	0.000000	0.001628	0.001731	28.0842	10.049	0.001662	6044.77	5.473367	-170.463	8.404461	1.120221	0.006708	0.006408	9.524934	6044.77	0.005526	0.004619	2062.34	81264.6
1097	2.000000	1.123049	7.37579e+06	-54989.1	1055.82	-29742.4	0.000000	0.000000	7.123806	12.6662	NaN	0.000000	0.001620	0.001736	28.0848	11.5097	0.001638	7027.76	10.3586	5.206972	11.9643	1.122673	0.009236	0.008861	12.6662	7027.76	0.007884	0.006923	1829.48	77166.7
1097	2.000000	1.125498	7.37579e+06	-54989.1	1055.82	-29742.4	0.000000	0.000000	7.126394	16.0301	NaN	0.000000	0.001566	0.001761	28.0845	14.1863	0.001642	8637.79	6.937244	-174.832	15.2047	1.125217	0.011685	0.011404	16.0301	8637.79	0.010293	0.009509	1685.74	80928.6
1097	2.000000	1.127972	7.37579e+06	-54989.1	1055.82	-29742.4	0.000000	0.000000	7.129007	19.3915	NaN	0.000000	0.001594	0.001713	28.0845	17.3085	0.001795	9642.54	5.111858	6.986009	17.8354	1.127604	0.014159	0.013791	19.3915	9642.54	0.012651	0.012279	1579.19	79501.5
1097	2.000000	1.130424	7.37579e+06	-54989.1	1055.82	-29742.4	0.000000	0.000000	7.131703	25.3427	NaN	0.000000	0.001613	0.001689	28.0843	20.3359	0.001851	10987.7	4.426463	-173.057	24.4811	1.130100	0.016611	0.016287	25.3427	10987.7	0.014881	0.015127	1675.34	81621.6
1097	2.000000	1.132974	7.37579e+06	-54989.1	1055.82	-29742.4	0.000000	0.000000	7.134344	27.5634	NaN	0.000000	0.001616	0.001674	28.0844	21.8834	0.001824	11995.9	2.733440	6.642061	25.7697	1.132641	0.019161	0.018828	27.5634	11995.9	0.017438	0.018675	1475.98	80201.2
1097	2.000000	1.135457	7.37579e+06	-54989.1	1055.82	-29742.4	0.000000	0.000000	7.137107	34.3401	NaN	0.000000	0.001639	0.001684	28.0844	23.4142	0.001660	14105.3	0.903124	-173.423	34.2644	1.135109	0.021645	0.021296	34.3401	14105.3	0.019819	0.022258	1542.82	86379.6
1097	2.000000	1.137939	7.37579e+06	-54989.1	1055.82	-29742.4	0.000000	0.000000	7.139836	40.3698	NaN	0.000000	0.001582	0.001703	28.0842	26.2809	0.001701	15453.5	3.135014	3.800429	39.3554	1.137650	0.024126	0.023837	40.3698	15453.5	0.022167	0.026063	1548.96	87456.2
1097	2.000000	1.140404	7.37579e+06	-54989.1	1055.82	-29742.4	0.000000	0.000000	7.142412	43.0618	NaN	0.000000	0.001651	0.001733	28.0842	29.6797	0.001727	17186.1	7.819230	177.117	40.7638	1.140151	0.026591	0.026339	43.0618	17186.1	0.024712	0.030494	1412.15	89917.6
1097	2.000000	1.142992	7.37579e+06	-54989.1	1055.82	-29742.4	0.000000	0.000000	7.145238	48.8548	NaN	0.000000	0.001586	0.001728	28.0845	31.7058	0.001866	16993.1	7.750563	-1.042730	48.2769	1.142593	0.029179	0.028780	48.8548	16993.1	0.027023	0.034798	1403.95	83227.9
1097	2.000000	1.145420	7.37579e+06	-54989.1	1055.82	-29742.4	0.000000	0.000000	7.148033	57.7652	NaN	0.000000	0.001623	0.001715	28.0847	33.5451	0.001746	19212.4	3.527256	-178.583	56.2806	1.145071	0.031608	0.031258	57.7652	19212.4	0.029353	0.039412	1465.66	88417.4
1097	2.000000	1.147918	7.37579e+06	-54989.1	1055.82	-29742.4	0.000000	0.000000	7.150759	63.3098	NaN	0.000000	0.001617	0.001717	28.0848	36.8156	0.001747	21072	6.921684	-2.008502	62.4128	1.147577	0.034105	0.033764	63.3098	21072	0.031852	0.044669	1417.31	91091
1097	2.000000	1.150439	7.37579e+06	-54989.1	1055.82	-29742.4	0.000000	0.000000	7.153664	72.6558	NaN	0.000000	0.001602	0.001740	28.084	39.7613	0.001912	20791.5	4.621418	-179.439	72.2133	1.150121	0.036626	0.036308	72.6558	20791.5	0.034005	0.049454	1469.15	85419.4
1097	2.000000	1.152970	7.37579e+06	-54989.1	1055.82	-29742.4	0.000000	0.000000	7.156620	82.9874	NaN	0.000000	0.001632	0.001721	28.0834	41.3973	0.001822	22721.6	7.867998	-3.347259	82.4264	1.152521	0.039157	0.038708	82.9874	22721.6	0.036418	0.055099	1506.16	88438.7
1097	2.000000	1.155447	7.37579e+06	-54989.1	1055.82	-29742.4	0.000000	0.000000	7.159352	89.1679	NaN	0.000000	0.001695	0.001730	28.0834	43.7199	0.001864	23457.4	7.296546	176.691	90.3171	1.155130	0.041634	0.041317	89.1679	23457.4	0.038784	0.060922	1463.63	86829
1097	2.000000	1.157912	7.37579e+06	-54989.1	1055.82	-29742.4	0.000000	0.000000	7.162263	100.021	NaN	0.000000	0.001675	0.001708	28.0836	46.1135	0.001877	24570.9	4.178717	-1.423441	97.78	1.157552	0.044099	0.043739	100.021	24570.9	0.041046	0.066761	1498.2	86882.9
1097	2.000000	1.160423	7.37579e+06	-54989.1	1055.82	-29742.4	0.000000	0.000000	7.165268	112.026	NaN	0.000000	0.001707	0.001707	28.0831	49.0224	0.001895	25867.4	4.428956	178.9	111.021	1.160007	0.046610	0.046194	112.026	25867.4	0.043362	0.073005	1534.51	87468.4
1097	2.000000	1.162910	7.37579e+06	-54989.1	1055.82	-29742.4	0.000000	0.000000	7.168046	119.107	NaN	0.000000	0.001716	0.001709	28.0837	50.4617	0.001767	28563.8	3.769334	-1.963427	117.473	1.162646	0.049097	0.048834	119.107	28563.8	0.045970	0.080364	1482.09	92057.4
1097	2.000000	1.165443	7.37579e+06	-54989.1	1055.82	-29742.4	0.000000	0.000000	7.171103	131.832	NaN	0.000000	0.001693	0.001683	28.0833	53.0758	0.001794	29578.5	6.361001	175.746	133.856	1.165027	0.051630	0.051214	131.832	29578.5	0.048288	0.087194	1511.95	91518
1097	2.000000	1.167871	7.37579e+06	-54989.1	1055.82	-29742.4	0.000000	0.000000	7.174101	145.705	NaN	0.000000	0.001672	0.001718	28.0835	54.9713	0.001748	31447	3.851702	-2.789369	141.344	1.167471	0.054058	0.053659	145.705	31447	0.050583	0.094224	1546.36	93599
1097	2.000000	1.170382	7.37579e+06	-54989.1	1055.82	-29742.4	0.000000	0.000000	7.176778	149.721	NaN	0.000000	0.001669	0.001723	28.0831	58.6349	0.001835	31948.3	6.273070	174.012	147.621	1.170096	0.056569	0.056284	149.721	31948.3	0.053055	0.102088	1466.59	91355.4
1097	2.000000	1.172890	7.37579e+06	-54989.1	1055.82	-29742.4	0.000000	0.000000	7.179929	165.358	NaN	0.000000	0.001672	0.001676	28.0834	60.418	0.001839	32855.4	4.140532	-3.460945	161.66	1.172481	0.059078	0.058668	165.358	32855.4	0.055303	0.109506	1510.04	90711.2
1097	2.000000	1.175344	7.37579e+06	-54989.1	1055.82	-29742.4	0.000000	0.000000	7.182623	171.205	NaN	0.000000	0.001682	0.001705	28.0829	62.2759	0.001753	35519.7	2.908145	177.374	169.254	1.175169	0.061531	0.061357	171.205	35519.7	0.057916	0.118442	1445.48	94295.4
1097	2.000000	1.177815	7.37579e+06	-54989.1	1055.82	-29742.4	0.000000	0.000000	7.185654	184.816	NaN	0.000000	0.001673	0.001704	28.0832	64.2398	0.001766	36373.5	1.336282	-0.927920	179.705	1.177453	0.064002	0.063640	184.816	36373.5	0.060191	0.126495	1461.05	93437.7
1097	2.000000	1.180437	7.37579e+06	-54989.1	1055.82	-29742.4	0.000000	0.000000	7.188767	196.752	NaN	0.000000	0.001642	0.001683	28.0831	68.7246	0.001895	36265.2	5.628745	174.654	200.077	1.180111	0.066624	0.066299	196.752	36265.2	0.062555	0.135128	1456.04	90134.5
1097	2.000000	1.182855	7.37579e+06	-54989.1	1055.82	-29742.4	0.000000	0.000000	7.191780	211.22	NaN	0.000000	0.001657	0.001720	28.0832	69.3865	0.001814	38258.4	3.924943	-4.045910	207.515	1.182581	0.069042	0.068768	211.22	38258.4	0.064902	0.143969	1467.12	92122.6
1097	2.000000	1.185387	7.37579e+06	-54989.1	1055.82	-29742.4	0.000000	0.000000	7.194988	227.638	NaN	0.000000	0.001672	0.001727	28.0844	70.8095	0.001830	38702.6	-0.090430	179.759	226.614	1.185091	0.071574	0.071278	227.638	38702.6	0.067163	0.152739	1490.38	90477.1
1097	2.000000	1.187832	7.37579e+06	-54989.1	1055.82	-29742.4	0.000000	0.000000	7.198104	243.955	NaN	0.000000	0.001720	0.001706	28.0844	74.4938	0.001817	40993.4	7.119186	-8.249808	239.412	1.187523	0.074019	0.073710	243.955	40993.4	0.069556	0.162285	1503.25	92971.1
1097	2.000000	1.190328	7.37579e+06	-54989.1	1055.82	-29742.4	0.000000	0.000000	7.200979	253.169	NaN	0.000000	0.001720	0.001698	28.0843	76.9364	0.001916	40158.7	3.474979	175.545	249.481	1.190067	0.076515	0.076255	253.169	40158.7	0.071787	0.171433	1476.78	88614.5
1097	2.000000	1.193028	7.37579e+06	-54989.1	1055.82	-29742.4	0.000000	0.000000	7.204164	264.962	NaN	0.000000	0.001715	0.001755	28.0841	79.5274	0.001806	44041.3	11.4837	-12.2386	270.284	1.192375	0.079215	0.078562	264.962	44041.3	0.074703	0.183743	1442.02	93870.2
1097	2.000000	1.195304	7.37579e+06	-54989.1	1055.82	-29742.4	0.000000	0.000000	7.207204	283.545	NaN	0.000000	0.001746	0.001725	28.0841	80.1097	0.001832	43734.2	5.230920	173.941	279.103	1.194918	0.081491	0.081105	283.545	43734.2	0.076629	0.192093	1476.09	91167.3
1097	2.000000	1.197898	7.37579e+06	-54989.1	1055.82	-29742.4	0.000000	0.000000	7.210172	292.62	NaN	0.000000	0.001745	0.001717	28.0841	82.1117	0.001794	45782.2	4.181868	-6.157427	290.866	1.197567	0.084085	0.083754	292.62	45782.2	0.079291	0.203923	1434.95	92626.7
1097	2.000000	1.200372	7.37579e+06	-54989.1	1055.82	-29742.4	0.000000	0.000000	7.213487	313.078	NaN	0.000000	0.001769	0.001732	28.0842	85.4895	0.001851	46183.2	5.148340	172.711	312.893	1.200030	0.086559	0.086217	313.078	46183.2	0.081475	0.213873	1463.85	91238.8
1097	2.000000	1.202907	7.37579e+06	-54989.1	1055.82	-29742.4	0.000000	0.000000	7.216576	326.523	NaN	0.000000	0.001729	0.001706	28.084	86.7759	0.001779	48770.3	3.876332	-6.369003	325.573	1.202700	0.089094	0.088887	326.523	48770.3	0.084073	0.225999	1444.8	93729.3
1097	2.000000	1.205337	7.37579e+06	-54989.1	1055.82	-29742.4	0.000000	0.000000	7.220147	354.277	NaN	0.000000	0.001691	0.001687	28.0839	88.0593	0.001835	47979	5.346870	173.3	350.436	1.204922	0.091524	0.091109	354.277	47979	0.085986	0.235127	1506.74	90400.9
1097	2.000000	1.207814	7.37579e+06	-54989.1	1055.82	-29742.4	0.000000	0.000000	7.223231	369.016	NaN	0.000000	0.001670	0.001702	28.084	90.7156	0.001730	52424.1	3.947172	-6.783469	366.139	1.207544	0.094002	0.093732	369.016	52424.1	0.088722	0.248477	1485.11	96086.1
1097	2.000000	1.210417	7.37579e+06	-54989.1	1055.82	-29742.4	0.000000	0.000000	7.225868	369.851	NaN	0.000000	0.001704	0.001694	28.0841	93.9547	0.001831	51320	0.745000	176.444	369.967	1.210333	0.096604	0.096520	369.851	51320	0.091199	0.260858	1417.83	91803.3
1097	2.000000	1.212858	7.37579e+06	-54989.1	1055.82	-29742.4	0.000000	0.000000	7.229736	404.531	NaN	0.000000	0.001708	0.001716	28.0839	94.9925	0.001816	52310.4	1.409091	-3.568266	402.159	1.212466	0.099045	0.098653	404.531	52310.4	0.093245	0.271299	1491.09	91756.6
1097	2.000000	1.215378	7.37579e+06	-54989.1	1055.82	-29742.4	0.000000	0.000000	7.232885	419.848	NaN	0.000000	0.001680	0.001697	28.0841	98.3122	0.001744	56382.9	6.166763	170.617	422.593	1.215079	0.101565	0.101266	419.848	56382.9	0.095980	0.285552	1470.31	96400.3
1097	2.000000	1.217692	7.37579e+06	-54989.1	1055.82	-29742.4	0.000000	0.000000	7.236156	443.084	NaN	0.000000	0.001731	0.001721	28.0842	101.843	0.001858	54805.7	7.428476	-10.6252	432.958	1.217299	0.103880	0.103486	443.084	54805.7	0.097816	0.295311	1500.4	92142.3
1097	2.000000	1.218267	7.37579e+06	-54989.1	1055.82	-29742.4	0.000000	0.000000	7.237147	453.211	NaN	0.000000	0.001722	0.001687	28.0841	100.857	0.001791	56317.2	4.919844	172.162	447.717	1.217894	0.104454	0.104081	453.211	56317.2	0.098418	0.298546	1518.06	94169.1