File: remote_trans/data/nanoindenter/0828-1/data/Data_2025-08-06,11h17m57s/2025-07-22_16-23-58_1_1060.txt
2025-07-22, 16:23:58, 1
Index	Phase	Displacement	Time	Pos X	Pos Y	Pos Z	Rot A	Rot B	Piezo Z	Force A	Force B	Gripper	Voltage A	Voltage B	Temperature	Amplitude force	Amplitude pos	Stiffness	Phase shift	Phase excitation	Force A raw	Displacement raw	HMax	HMax raw	Real Force	Real Stiffness	Contact Depth	Area	Hardness	Reduced Mod.
[#]	[#]	[um]	[s]	[um]	[um]	[um]	[m°]	[m°]	[um]	[uN]	[uN]	[V]	[V]	[V]	[°C]	[uN]	[um]	[N/m]	[°]	[°]	[uN]	[um]	[um]	[um]	[uN]	[N/m]	[um]	[um^2]	[MPa]	[MPa]
1060	1.000000	0.002961	7.37541e+06	-53139.1	1055.82	-29747	0.000000	0.000000	6.002796	0.006330	NaN	0.000000	0.001698	0.001744	28.0844	0.104149	0.001037	100.429	148.073	-162.2	-0.019615	0.001745	-1.148658	-1.149873	0.006330	100.429	-1.148705	-2.256615E+15	-2.805251E-18	NaN
1060	1.000000	0.013002	7.37541e+06	-53139.1	1055.82	-29747	0.000000	0.000000	6.012836	-0.022035	NaN	0.000000	0.001665	0.001712	28.0833	0.097900	0.001208	81.0552	-11.7944	13.6716	-0.040566	0.011581	-1.138616	-1.140037	-0.022035	81.0552	-1.138413	-1.642291E+15	1.341724E-17	NaN
1060	1.000000	0.022902	7.37541e+06	-53139.1	1055.82	-29747	0.000000	0.000000	6.022737	-0.000528	NaN	0.000000	0.001691	0.001714	28.0832	0.114238	0.001632	69.9837	147.274	-167.051	-0.008121	0.021582	-1.128717	-1.130036	-0.000528	69.9837	-1.128711	-1.217113E+15	4.341841E-19	NaN
1060	1.000000	0.032903	7.37541e+06	-53139.1	1055.82	-29747	0.000000	0.000000	6.032738	-0.017445	NaN	0.000000	0.001691	0.001725	28.0833	0.069907	0.001918	36.4521	-104.797	18.3645	-0.007516	0.031535	-1.118715	-1.120084	-0.017445	36.4521	-1.118357	-8.839375E+14	1.973541E-17	NaN
1060	1.000000	0.042921	7.37541e+06	-53139.1	1055.82	-29747	0.000000	0.000000	6.042758	0.049233	NaN	0.000000	0.001668	0.001690	28.0832	0.042543	0.001956	21.7466	-101.958	-166.23	0.121979	0.041621	-1.108698	-1.109998	0.049233	21.7466	-1.110396	-6.911954E+14	-7.122891E-17	NaN
1060	1.000000	0.052928	7.37541e+06	-53139.1	1055.82	-29747	0.000000	0.000000	6.052766	0.048426	NaN	0.000000	0.001657	0.001724	28.0833	0.050582	0.001941	26.0569	-160.057	13.6077	-0.073039	0.051570	-1.098690	-1.100048	0.048426	26.0569	-1.100084	-5.025687E+14	-9.635662E-17	NaN
1060	1.000000	0.062963	7.37541e+06	-53139.1	1055.82	-29747	0.000000	0.000000	6.062797	-0.029825	NaN	0.000000	0.001675	0.001743	28.0831	0.075166	0.002029	37.0514	100.006	-165.645	0.031118	0.061632	-1.088655	-1.089987	-0.029825	37.0514	-1.088052	-3.464569E+14	8.608691E-17	NaN
1060	1.000000	0.072932	7.37541e+06	-53139.1	1055.82	-29747	0.000000	0.000000	6.072768	0.013077	NaN	0.000000	0.001674	0.001742	28.0834	0.022131	0.002020	10.9557	-114.895	12.3887	-0.030729	0.071558	-1.078686	-1.080060	0.013077	10.9557	-1.079581	-2.666224E+14	-4.904597E-17	NaN
1060	1.000000	0.082930	7.37541e+06	-53139.1	1055.82	-29747	0.000000	0.000000	6.082764	-0.042461	NaN	0.000000	0.001664	0.001729	28.0833	0.046764	0.002129	21.9615	-37.5926	-167.795	-0.001937	0.081662	-1.068688	-1.069957	-0.042461	21.9615	-1.067238	-1.820052E+14	2.332935E-16	NaN
1060	1.000000	0.092919	7.37542e+06	-53139.1	1055.82	-29747	0.000000	0.000000	6.092752	-0.039281	NaN	0.000000	0.001658	0.001768	28.0835	0.106031	0.002022	52.444	-1.854067	13.3432	-0.018293	0.091581	-1.058700	-1.060037	-0.039281	52.444	-1.058138	-1.373407E+14	2.860146E-16	NaN
1060	1.000000	0.102941	7.37542e+06	-53139.1	1055.82	-29747	0.000000	0.000000	6.102775	-0.047111	NaN	0.000000	0.001640	0.001789	28.0833	0.091634	0.001924	47.6241	-170.525	-165.445	0.013768	0.101674	-1.048677	-1.049945	-0.047111	47.6241	-1.047935	-1.001518E+14	4.703951E-16	NaN
1060	1.000000	0.112923	7.37542e+06	-53139.1	1055.82	-29747	0.000000	0.000000	6.112756	-0.034744	NaN	0.000000	0.001636	0.001753	28.0836	0.058522	0.002013	29.0662	-49.9003	16.2145	-0.056383	0.111577	-1.038696	-1.040041	-0.034744	29.0662	-1.037799	-7.317719E+13	4.747893E-16	NaN
1060	1.000000	0.122930	7.37542e+06	-53139.1	1055.82	-29747	0.000000	0.000000	6.122763	-0.055581	NaN	0.000000	0.001592	0.001754	28.0832	0.036991	0.002031	18.214	57.6278	-164.527	-0.072286	0.121587	-1.028688	-1.030032	-0.055581	18.214	-1.026400	-5.141025E+13	1.081128E-15	NaN
1060	1.000000	0.132969	7.37542e+06	-53139.1	1055.82	-29747	0.000000	0.000000	6.132803	-0.036064	NaN	0.000000	0.001617	0.001740	28.0836	0.048473	0.002173	22.302	-178.514	12.4957	-0.030724	0.131608	-1.018649	-1.020011	-0.036064	22.302	-1.017436	-3.894557E+13	9.260028E-16	NaN
1060	1.000000	0.142954	7.37542e+06	-53139.1	1055.82	-29747	0.000000	0.000000	6.142791	0.049215	NaN	0.000000	0.001624	0.001788	28.0834	0.124791	0.002032	61.4263	128.087	-166.529	0.003885	0.141596	-1.008665	-1.010022	0.049215	61.4263	-1.009266	-3.023415E+13	-1.627801E-15	NaN
1060	1.000000	0.152932	7.37542e+06	-53139.1	1055.82	-29747	0.000000	0.000000	6.152768	0.037317	NaN	0.000000	0.001608	0.001734	28.0847	0.091587	0.001798	50.9406	135.505	9.982442	0.013693	0.151540	-0.998687	-1.000078	0.037317	50.9406	-0.999236	-2.215587E+13	-1.684300E-15	NaN
1060	1.000000	0.162987	7.37542e+06	-53139.1	1055.82	-29747	0.000000	0.000000	6.162820	-0.040335	NaN	0.000000	0.001583	0.001725	28.0841	0.059656	0.002047	29.1444	73.046	-170.377	0.013102	0.161632	-0.988632	-0.989987	-0.040335	29.1444	-0.987594	-1.544201E+13	2.612050E-15	NaN
1060	1.000000	0.172972	7.37542e+06	-53139.1	1055.82	-29747	0.000000	0.000000	6.172808	0.012839	NaN	0.000000	0.001629	0.001739	28.0842	0.033325	0.002140	15.5738	-153.943	13.7394	0.049270	0.171540	-0.978646	-0.980078	0.012839	15.5738	-0.979264	-1.192614E+13	-1.076522E-15	NaN
1060	1.000000	0.182976	7.37542e+06	-53139.1	1055.82	-29747	0.000000	0.000000	6.182813	0.031641	NaN	0.000000	0.001628	0.001724	28.0844	0.045200	0.002166	20.8644	-171.788	-168.166	0.070287	0.181637	-0.968642	-0.969981	0.031641	20.8644	-0.969780	-8.885721E+12	-3.560850E-15	NaN
1060	1.000000	0.192958	7.37542e+06	-53139.1	1055.82	-29747	0.000000	0.000000	6.192793	-0.009561	NaN	0.000000	0.001659	0.001686	28.0839	0.052780	0.002075	25.4307	-125.084	14.3419	0.015607	0.191639	-0.958660	-0.959980	-0.009561	25.4307	-0.958379	-6.237464E+12	1.532901E-15	NaN
1060	1.000000	0.202979	7.37542e+06	-53139.1	1055.82	-29747	0.000000	0.000000	6.202814	-0.008859	NaN	0.000000	0.001667	0.001716	28.0844	0.041716	0.002110	19.7673	-66.1715	-165.567	0.019912	0.201700	-0.948640	-0.949919	-0.008859	19.7673	-0.948303	-4.561900E+12	1.941951E-15	NaN
1060	1.000000	0.212976	7.37542e+06	-53139.1	1055.82	-29747	0.000000	0.000000	6.212808	-0.080285	NaN	0.000000	0.001677	0.001761	28.0841	0.126669	0.002010	63.0194	35.5344	15.6992	-0.046218	0.211627	-0.938643	-0.939991	-0.080285	63.0194	-0.937687	-3.280447E+12	2.447366E-14	NaN
1060	1.000000	0.222957	7.37542e+06	-53139.1	1055.82	-29747	0.000000	0.000000	6.222793	0.032495	NaN	0.000000	0.001680	0.001752	28.0846	0.046584	0.001926	24.192	-119.574	-164.309	-0.000951	0.221705	-0.928662	-0.929914	0.032495	24.192	-0.929669	-2.557007E+12	-1.270821E-14	NaN
1060	1.000000	0.232987	7.37542e+06	-53139.1	1055.82	-29747	0.000000	0.000000	6.232821	-0.009877	NaN	0.000000	0.001647	0.001719	28.0843	0.049078	0.002021	24.2794	-20.5637	12.8929	0.054363	0.231601	-0.918632	-0.920017	-0.009877	24.2794	-0.918327	-1.797282E+12	5.495320E-15	NaN
1060	1.000000	0.243013	7.37542e+06	-53139.1	1055.82	-29747	0.000000	0.000000	6.242850	0.041047	NaN	0.000000	0.001652	0.001727	28.0844	0.076879	0.001964	39.1457	154.98	-167.567	0.042975	0.241694	-0.908605	-0.909925	0.041047	39.1457	-0.909392	-1.361272E+12	-3.015324E-14	NaN
1060	1.000000	0.252984	7.37542e+06	-53139.1	1055.82	-29747	0.000000	0.000000	6.252818	-0.017063	NaN	0.000000	0.001647	0.001719	28.0844	0.041534	0.002037	20.3943	-119.633	10.8344	-0.042789	0.251629	-0.898635	-0.899990	-0.017063	20.3943	-0.898007	-9.552984E+11	1.786093E-14	NaN
1060	1.000000	0.262986	7.37542e+06	-53139.1	1055.82	-29747	0.000000	0.000000	6.262820	-0.037730	NaN	0.000000	0.001621	0.001727	28.0843	0.045063	0.002037	22.1171	-51.8237	-169.332	0.015361	0.261657	-0.888632	-0.889962	-0.037730	22.1171	-0.887353	-6.856920E+11	5.502429E-14	NaN
1060	1.000000	0.273013	7.37542e+06	-53139.1	1055.82	-29747	0.000000	0.000000	6.272851	0.058466	NaN	0.000000	0.001632	0.001736	28.0844	0.078298	0.001895	41.3135	-1.523492	12.3221	-0.032508	0.271711	-0.878606	-0.879907	0.058466	41.3135	-0.879667	-5.397635E+11	-1.083186E-13	NaN
1060	1.000000	0.283025	7.37542e+06	-53139.1	1055.82	-29747	0.000000	0.000000	6.282859	-0.025308	NaN	0.000000	0.001630	0.001742	28.0847	0.069336	0.002057	33.7083	82.1463	-168.571	-0.039995	0.281682	-0.868593	-0.869936	-0.025308	33.7083	-0.868030	-3.756596E+11	6.736848E-14	NaN
1060	1.000000	0.293007	7.37542e+06	-53139.1	1055.82	-29747	0.000000	0.000000	6.292843	0.010396	NaN	0.000000	0.001662	0.001733	28.0833	0.100928	0.002029	49.741	-1.896893	12.5043	-0.042958	0.291624	-0.858611	-0.859995	0.010396	49.741	-0.858768	-2.814797E+11	-3.693357E-14	NaN
1060	1.000000	0.303021	7.37542e+06	-53139.1	1055.82	-29747	0.000000	0.000000	6.302856	-0.002367	NaN	0.000000	0.001643	0.001732	28.0831	0.079101	0.002203	35.9101	-157.754	-169.089	-0.059132	0.301697	-0.848597	-0.849921	-0.002367	35.9101	-0.848548	-2.046801E+11	1.156436E-14	NaN
1060	1.000000	0.313008	7.37542e+06	-53139.1	1055.82	-29747	0.000000	0.000000	6.312846	0.057277	NaN	0.000000	0.001651	0.001753	28.0831	0.047913	0.002060	23.2581	-142.167	14.9031	0.042063	0.311641	-0.838611	-0.839978	0.057277	23.2581	-0.840458	-1.590345E+11	-3.601563E-13	NaN
1060	1.000000	0.323021	7.37542e+06	-53139.1	1055.82	-29747	0.000000	0.000000	6.322854	-0.062089	NaN	0.000000	0.001635	0.001719	28.0835	0.033231	0.001940	17.1269	162.09	-167.045	-0.113821	0.321746	-0.828597	-0.829872	-0.062089	17.1269	-0.825878	-1.009052E+11	6.153231E-13	NaN
1060	1.000000	0.333041	7.37542e+06	-53139.1	1055.82	-29747	0.000000	0.000000	6.332875	-0.021632	NaN	0.000000	0.001678	0.001708	28.0832	0.178192	0.001944	91.6517	-79.282	13.2623	-0.059243	0.331677	-0.818578	-0.819942	-0.021632	91.6517	-0.818401	-7.989617E+10	2.707495E-13	NaN
1060	1.000000	0.343028	7.37542e+06	-53139.1	1055.82	-29747	0.000000	0.000000	6.342861	-0.041384	NaN	0.000000	0.001662	0.001716	28.0833	0.020469	0.001999	10.2413	168.033	-167.531	-0.039193	0.341770	-0.808591	-0.809848	-0.041384	10.2413	-0.805560	-5.349699E+10	7.735758E-13	NaN
1060	1.000000	0.353013	7.37542e+06	-53139.1	1055.82	-29747	0.000000	0.000000	6.352846	-0.052019	NaN	0.000000	0.001640	0.001721	28.0831	0.103288	0.002085	49.5276	114.853	16.349	0.006543	0.351676	-0.798606	-0.799942	-0.052019	49.5276	-0.797818	-4.199897E+10	1.238578E-12	NaN
1060	1.000000	0.363029	7.37542e+06	-53139.1	1055.82	-29747	0.000000	0.000000	6.362858	-0.142602	NaN	0.000000	0.001646	0.001748	28.0835	0.089456	0.001885	47.4552	-122.699	-168.478	-0.091202	0.361764	-0.788590	-0.789854	-0.142602	47.4552	-0.786336	-2.933019E+10	4.861946E-12	NaN
1060	1.000000	0.373065	7.37542e+06	-53139.1	1055.82	-29747	0.000000	0.000000	6.372901	0.029003	NaN	0.000000	0.001640	0.001712	28.0831	0.124040	0.001963	63.1992	12.4473	16.0943	0.092999	0.371693	-0.778554	-0.779926	0.029003	63.1992	-0.778898	-2.324109E+10	-1.247923E-12	NaN
1060	1.000000	0.383040	7.37542e+06	-53139.1	1055.82	-29747.1	0.000000	0.000000	6.382874	-0.026581	NaN	0.000000	0.001624	0.001716	28.0832	0.048720	0.002011	24.2317	27.2898	-163.726	0.005459	0.381684	-0.768579	-0.769935	-0.026581	24.2317	-0.767756	-1.639824E+10	1.620977E-12	NaN
1060	1.000000	0.393055	7.37542e+06	-53139.1	1055.82	-29747.1	0.000000	0.000000	6.392889	-0.029830	NaN	0.000000	0.001639	0.001726	28.0833	0.051304	0.002160	23.755	49.2273	11.8292	-0.036378	0.391693	-0.758563	-0.759925	-0.029830	23.755	-0.757622	-1.193833E+10	2.498638E-12	NaN
1060	1.000000	0.403082	7.37542e+06	-53139.1	1055.82	-29747	0.000000	0.000000	6.402916	-0.020613	NaN	0.000000	0.001641	0.001724	28.0834	0.081142	0.002032	39.9359	158.858	-164.569	-0.024933	0.401726	-0.748537	-0.749892	-0.020613	39.9359	-0.748150	-8.872179E+9	2.323364E-12	NaN
1060	1.000000	0.413075	7.37542e+06	-53139.1	1055.82	-29747.1	0.000000	0.000000	6.412914	0.085581	NaN	0.000000	0.001657	0.001706	28.0831	0.101554	0.001934	52.5005	108.101	17.2333	0.039481	0.411693	-0.738544	-0.739925	0.085581	52.5005	-0.739766	-6.821355E+9	-1.254600E-11	NaN
1060	1.000000	0.423095	7.37542e+06	-53139.1	1055.82	-29747.1	0.000000	0.000000	6.422929	-0.035334	NaN	0.000000	0.001673	0.001718	28.0843	0.015997	0.001996	8.013820	145.066	-168.635	-0.092896	0.421736	-0.728524	-0.729883	-0.035334	8.013820	-0.725217	-4.321224E+9	8.176763E-12	NaN
1060	1.000000	0.433071	7.37542e+06	-53139.1	1055.82	-29747.1	0.000000	0.000000	6.432905	-0.049509	NaN	0.000000	0.001653	0.001762	28.0846	0.124739	0.001953	63.8581	-173.904	11.6412	-0.139311	0.431705	-0.718547	-0.719914	-0.049509	63.8581	-0.717966	-3.441332E+9	1.438655E-11	NaN
1060	1.000000	0.443077	7.37542e+06	-53139.1	1055.82	-29747.1	0.000000	0.000000	6.442911	-0.046932	NaN	0.000000	0.001665	0.001741	28.0845	0.005595	0.002062	2.712548	-150.281	-167.429	-0.074579	0.441797	-0.708541	-0.709821	-0.046932	2.712548	-0.695565	-1.701966E+9	2.757525E-11	NaN
1060	1.000000	0.453089	7.37542e+06	-53139.1	1055.82	-29747.1	0.000000	0.000000	6.452922	-0.047683	NaN	0.000000	0.001667	0.001768	28.0844	0.082792	0.001865	44.3818	-12.9919	14.2813	-0.048078	0.451708	-0.698529	-0.699911	-0.047683	44.3818	-0.697724	-1.821545E+9	2.617712E-11	NaN
1060	1.000000	0.463068	7.37542e+06	-53139.1	1055.82	-29747.1	0.000000	0.000000	6.462903	0.008907	NaN	0.000000	0.001699	0.001737	28.0843	0.051359	0.001922	26.7209	-120.279	-168.515	0.012421	0.461784	-0.688551	-0.689834	0.008907	26.7209	-0.688801	-1.375715E+9	-6.474646E-12	NaN
1060	1.000000	0.473103	7.37542e+06	-53139.1	1055.82	-29747.1	0.000000	0.000000	6.472936	-0.062670	NaN	0.000000	0.001695	0.001733	28.0845	0.067088	0.001897	35.361	120.454	12.3409	-0.121365	0.471714	-0.678515	-0.679905	-0.062670	35.361	-0.677186	-9.543661E+8	6.566669E-11	NaN
1060	1.000000	0.483115	7.37542e+06	-53139.1	1055.82	-29747.1	0.000000	0.000000	6.482951	0.040505	NaN	0.000000	0.001683	0.001718	28.0843	0.061189	0.002115	28.9322	28.0285	-164.461	-0.007310	0.481771	-0.668504	-0.669848	0.040505	28.9322	-0.669554	-7.503857E+8	-5.397916E-11	NaN
1060	1.000000	0.493088	7.37542e+06	-53139.1	1055.82	-29747.1	0.000000	0.000000	6.492925	0.049900	NaN	0.000000	0.001677	0.001744	28.0842	0.129459	0.001991	65.035	24.6814	13.2825	0.028978	0.491750	-0.658531	-0.659869	0.049900	65.035	-0.659106	-5.397925E+8	-9.244224E-11	NaN
1060	1.000000	0.503103	7.37542e+06	-53139.1	1055.82	-29747.1	0.000000	0.000000	6.502937	-0.014021	NaN	0.000000	0.001699	0.001755	28.0844	0.082519	0.002051	40.233	11.0926	-164.626	0.028184	0.501780	-0.648516	-0.649838	-0.014021	40.233	-0.648254	-3.832687E+8	3.658328E-11	NaN
1060	1.000000	0.513097	7.37542e+06	-53139.1	1055.82	-29747.1	0.000000	0.000000	6.512933	0.005582	NaN	0.000000	0.001742	0.001734	28.0844	0.060715	0.001955	31.0569	69.2119	15.2945	-0.017477	0.511763	-0.638521	-0.639855	0.005582	31.0569	-0.638656	-2.830392E+8	-1.971997E-11	NaN
1060	1.000000	0.523082	7.37542e+06	-53139.1	1055.82	-29747.1	0.000000	0.000000	6.522917	0.005141	NaN	0.000000	0.001722	0.001756	28.0842	0.035723	0.001950	18.3186	149.839	-166.059	-0.006207	0.521816	-0.628536	-0.629803	0.005141	18.3186	-0.628747	-2.069256E+8	-2.484374E-11	NaN
1060	1.000000	0.533111	7.37542e+06	-53139.1	1055.82	-29747.1	0.000000	0.000000	6.532948	0.042647	NaN	0.000000	0.001756	0.001743	28.0846	0.045320	0.002091	21.6695	-40.7667	15.9194	-0.034106	0.531827	-0.618507	-0.619792	0.042647	21.6695	-0.619983	-1.568200E+8	-2.719502E-10	NaN
1060	1.000000	0.543111	7.37542e+06	-53139.1	1055.82	-29747.1	0.000000	0.000000	6.542945	-0.036615	NaN	0.000000	0.001665	0.001753	28.0844	0.049208	0.001938	25.3877	28.5088	-167.136	-0.007413	0.541806	-0.608507	-0.609813	-0.036615	25.3877	-0.607426	-1.053632E+8	3.475106E-10	NaN
1060	1.000000	0.553122	7.37542e+06	-53139.1	1055.82	-29747.1	0.000000	0.000000	6.552956	-0.036671	NaN	0.000000	0.001689	0.001709	28.0843	0.072009	0.002096	34.359	103.128	17.0815	0.024884	0.551774	-0.598496	-0.599845	-0.036671	34.359	-0.597696	-7.739719E+7	4.738070E-10	NaN
1060	1.000000	0.563136	7.37542e+06	-53139.1	1055.82	-29747.1	0.000000	0.000000	6.562969	-0.050866	NaN	0.000000	0.001693	0.001749	28.0833	0.092100	0.001989	46.299	-147.681	-167.439	-0.133586	0.561905	-0.588482	-0.589714	-0.050866	46.299	-0.587658	-5.628302E+7	9.037493E-10	NaN
1060	1.000000	0.573133	7.37542e+06	-53139.1	1055.82	-29747.1	0.000000	0.000000	6.572968	-0.014398	NaN	0.000000	0.001659	0.001756	28.0835	0.085717	0.002057	41.6648	157.079	11.5879	-0.056779	0.571774	-0.578485	-0.579845	-0.014398	41.6648	-0.578226	-4.170978E+7	3.451999E-10	NaN
1060	1.000000	0.583112	7.37542e+06	-53139.1	1055.82	-29747.1	0.000000	0.000000	6.582949	0.035592	NaN	0.000000	0.001692	0.001720	28.0832	0.038002	0.002147	17.7006	-14.2042	-165.438	0.015640	0.581802	-0.568506	-0.569816	0.035592	17.7006	-0.570015	-3.212422E+7	-1.107951E-9	NaN
1060	1.000000	0.593163	7.37542e+06	-53139.1	1055.82	-29747.1	0.000000	0.000000	6.592998	-0.006124	NaN	0.000000	0.001723	0.001722	28.0832	0.093866	0.002093	44.8413	150.694	11.3884	-0.070419	0.591766	-0.558456	-0.559852	-0.006124	44.8413	-0.558353	-2.216146E+7	2.763530E-10	NaN
1060	1.000000	0.603104	7.37542e+06	-53139.1	1055.82	-29747.1	0.000000	0.000000	6.602942	0.053472	NaN	0.000000	0.001677	0.001746	28.0831	0.083534	0.001968	42.4484	-46.6681	-169.764	0.021505	0.601846	-0.548514	-0.549772	0.053472	42.4484	-0.549459	-1.669024E+7	-3.203787E-9	NaN
1060	1.000000	0.613141	7.37542e+06	-53139.1	1055.82	-29747.1	0.000000	0.000000	6.612978	0.031523	NaN	0.000000	0.001659	0.001749	28.0833	0.069060	0.002101	32.8748	-174.309	11.5372	0.024669	0.611825	-0.538477	-0.539794	0.031523	32.8748	-0.539196	-1.202847E+7	-2.620705E-9	NaN
1060	1.000000	0.623139	7.37542e+06	-53139.1	1055.82	-29747.1	0.000000	0.000000	6.622970	-0.088960	NaN	0.000000	0.001688	0.001762	28.083	0.023786	0.002035	11.6881	60.9323	-162.801	-0.058257	0.621864	-0.528480	-0.529754	-0.088960	11.6881	-0.522771	-7.11431e+06	1.250433E-8	NaN
1060	1.000000	0.633155	7.37542e+06	-53139.1	1055.82	-29747.1	0.000000	0.000000	6.632987	-0.080474	NaN	0.000000	0.001705	0.001753	28.0833	0.097199	0.002066	47.0367	77.649	13.4994	-0.055571	0.631831	-0.518463	-0.519787	-0.080474	47.0367	-0.517180	-5.94804e+06	1.352956E-8	NaN
1060	1.000000	0.643160	7.37542e+06	-53139.1	1055.82	-29747.1	0.000000	0.000000	6.642995	0.001170	NaN	0.000000	0.001710	0.001727	28.0831	0.132273	0.002033	65.067	-76.6197	-166.395	0.071366	0.641832	-0.508459	-0.509786	0.001170	65.067	-0.508472	-4.49915e+06	-2.599914E-10	NaN
1060	1.000000	0.653170	7.37542e+06	-53139.1	1055.82	-29747.1	0.000000	0.000000	6.653007	0.036768	NaN	0.000000	0.001671	0.001736	28.0836	0.063685	0.001987	32.0585	-30.797	11.689	0.093516	0.651794	-0.498448	-0.499824	0.036768	32.0585	-0.499309	-3.35251e+06	-1.096735E-8	NaN
1060	1.000000	0.663170	7.37542e+06	-53139.1	1055.82	-29747.1	0.000000	0.000000	6.663004	-0.033732	NaN	0.000000	0.001678	0.001784	28.0834	0.088729	0.002023	43.8495	-33.7193	-164.993	-0.042267	0.661882	-0.488448	-0.489737	-0.033732	43.8495	-0.487871	-2.3208e+06	1.453455E-8	NaN
1060	1.000000	0.673193	7.37542e+06	-53139.1	1055.82	-29747.1	0.000000	0.000000	6.673026	-0.052252	NaN	0.000000	0.001705	0.001764	28.0837	0.068231	0.002074	32.9005	7.789720	13.1068	-0.029281	0.671744	-0.478425	-0.479875	-0.052252	32.9005	-0.477234	-1.64738e+06	3.171822E-8	NaN
1060	1.000000	0.683188	7.37542e+06	-53139.1	1055.82	-29747.1	0.000000	0.000000	6.683021	-0.037931	NaN	0.000000	0.001647	0.001763	28.0837	0.055505	0.002084	26.63	11.8757	-166.507	-0.004679	0.681839	-0.468431	-0.469780	-0.037931	26.63	-0.467363	-1.19787e+06	3.166547E-8	NaN
1060	1.000000	0.693186	7.37542e+06	-53139.1	1055.82	-29747.1	0.000000	0.000000	6.693019	-0.061606	NaN	0.000000	0.001709	0.001747	28.0837	0.007480	0.001924	3.886728	-157.099	14.8895	-0.014374	0.691810	-0.458432	-0.459808	-0.061606	3.886728	-0.446544	-610466	1.009159E-7	NaN
1060	1.000000	0.703203	7.37542e+06	-53139.1	1055.82	-29747.1	0.000000	0.000000	6.703038	0.000817	NaN	0.000000	0.001667	0.001752	28.0854	0.047667	0.002002	23.8141	130.214	-163.474	0.002182	0.701854	-0.448416	-0.449764	0.000817	23.8141	-0.448441	-649219	-1.258278E-9	NaN
1060	1.000000	0.713191	7.37542e+06	-53139.1	1055.82	-29747.1	0.000000	0.000000	6.713026	0.005650	NaN	0.000000	0.001613	0.001737	28.0849	0.095607	0.001812	52.7587	133.605	16.2749	0.025702	0.711855	-0.438428	-0.439763	0.005650	52.7587	-0.438508	-470224	-1.201638E-8	NaN
1060	1.000000	0.723175	7.37542e+06	-53139.1	1055.82	-29747.1	0.000000	0.000000	6.723011	0.030195	NaN	0.000000	0.001629	0.001741	28.0845	0.169626	0.001912	88.728	145.291	-168.956	0.077877	0.721894	-0.428443	-0.429725	0.030195	88.728	-0.428699	-341703	-8.836617E-8	NaN
1060	1.000000	0.733193	7.37542e+06	-53139.1	1055.82	-29747.1	0.000000	0.000000	6.733028	0.000403	NaN	0.000000	0.001627	0.001760	28.0845	0.085373	0.002018	42.312	58.221	14.4395	-0.054512	0.731843	-0.418426	-0.419776	0.000403	42.312	-0.418433	-244449	-1.648064E-9	NaN
1060	1.000000	0.743180	7.37542e+06	-53139.1	1055.82	-29747.1	0.000000	0.000000	6.743015	-0.006847	NaN	0.000000	0.001614	0.001748	28.0845	0.057695	0.002088	27.6358	-50.9201	-166.744	-0.084715	0.741911	-0.408439	-0.409708	-0.006847	27.6358	-0.408253	-175207	3.908029E-8	NaN
1060	1.000000	0.753201	7.37542e+06	-53139.1	1055.82	-29747.1	0.000000	0.000000	6.753037	0.030640	NaN	0.000000	0.001641	0.001749	28.0847	0.042510	0.001994	21.3157	-105.944	11.4808	-0.070450	0.751853	-0.398417	-0.399766	0.030640	21.3157	-0.399496	-131462	-2.330719E-7	NaN
1060	1.000000	0.763214	7.37542e+06	-53139.1	1055.82	-29747.1	0.000000	0.000000	6.763047	-0.053853	NaN	0.000000	0.001671	0.001763	28.0845	0.048976	0.002110	23.2066	-19.8076	-166.128	-0.083055	0.761893	-0.388405	-0.389726	-0.053853	23.2066	-0.386664	-86184.2	6.248622E-7	NaN
1060	1.000000	0.773216	7.37542e+06	-53139.1	1055.82	-29747.1	0.000000	0.000000	6.773051	0.004483	NaN	0.000000	0.001646	0.001766	28.0844	0.092237	0.002001	46.0977	-165.88	13.6614	0.079849	0.771846	-0.378403	-0.379772	0.004483	46.0977	-0.378476	-65766.8	-6.816383E-8	NaN
1060	1.000000	0.783233	7.37542e+06	-53139.1	1055.82	-29747.1	0.000000	0.000000	6.783069	0.016953	NaN	0.000000	0.001674	0.001744	28.0846	0.127030	0.001911	66.4884	63.6859	-165.847	-0.005069	0.781907	-0.368385	-0.369712	0.016953	66.4884	-0.368576	-47382.7	-3.577798E-7	NaN
1060	1.000000	0.793232	7.37542e+06	-53139.1	1055.82	-29747.1	0.000000	0.000000	6.793067	0.009752	NaN	0.000000	0.001654	0.001715	28.0845	0.030107	0.001940	15.5214	108.966	13.3553	-0.084536	0.791847	-0.358387	-0.359772	0.009752	15.5214	-0.358858	-34303.4	-2.842941E-7	NaN
1060	1.000000	0.803245	7.37542e+06	-53139.1	1055.82	-29747.1	0.000000	0.000000	6.803078	-0.031271	NaN	0.000000	0.001670	0.001721	28.0844	0.011137	0.001920	5.800518	176.907	-165.367	-0.087097	0.801928	-0.348374	-0.349690	-0.031271	5.800518	-0.344331	-21116.5	1.480880E-6	NaN
1060	1.000000	0.813238	7.37542e+06	-53139.1	1055.82	-29747.1	0.000000	0.000000	6.813073	-0.011720	NaN	0.000000	0.001685	0.001716	28.0843	0.060310	0.001899	31.7669	-145.925	15.4179	-0.026953	0.811895	-0.338381	-0.339724	-0.011720	31.7669	-0.338104	-17135.8	6.839620E-7	NaN
1060	1.000000	0.823234	7.37542e+06	-53139.1	1055.82	-29747.1	0.000000	0.000000	6.823071	0.054921	NaN	0.000000	0.001693	0.001748	28.0846	0.101033	0.001957	51.6173	-28.4066	-168.93	-0.037444	0.821941	-0.328385	-0.329677	0.054921	51.6173	-0.329183	-12690.6	-4.327663E-6	NaN
1060	1.000000	0.833278	7.37542e+06	-53139.1	1055.82	-29747.1	0.000000	0.000000	6.833112	-0.019959	NaN	0.000000	0.001722	0.001725	28.0831	0.092091	0.002033	45.2935	-124.379	14.7419	0.072734	0.831934	-0.318340	-0.319685	-0.019959	45.2935	-0.318010	-8696.27	2.295173E-6	NaN
1060	1.000000	0.843239	7.37542e+06	-53139.1	1055.82	-29747.1	0.000000	0.000000	6.843077	0.072494	NaN	0.000000	0.001711	0.001692	28.083	0.109865	0.002013	54.567	-36.9831	-166.258	0.081326	0.841925	-0.308380	-0.309693	0.072494	54.567	-0.309376	-6483.73	-1.118089E-5	NaN
1060	1.000000	0.853257	7.37542e+06	-53139.1	1055.82	-29747.1	0.000000	0.000000	6.853090	-0.048857	NaN	0.000000	0.001696	0.001710	28.0832	0.011612	0.002013	5.769107	160.555	13.1704	-0.080492	0.851908	-0.298362	-0.299710	-0.048857	5.769107	-0.292010	-3576.01	1.366258E-5	NaN
1060	1.000000	0.863255	7.37542e+06	-53139.1	1055.82	-29747.1	0.000000	0.000000	6.863091	0.013321	NaN	0.000000	0.001703	0.001716	28.0835	0.097686	0.002009	48.6313	165.481	-166.576	-0.001012	0.861933	-0.288363	-0.289686	0.013321	48.6313	-0.288569	-3175.78	-4.194606E-6	NaN
1060	1.000000	0.873243	7.37542e+06	-53139.1	1055.82	-29747.1	0.000000	0.000000	6.873077	-0.015995	NaN	0.000000	0.001699	0.001690	28.0832	0.017612	0.002064	8.534812	148.876	11.2466	0.007884	0.871981	-0.278376	-0.279638	-0.015995	8.534812	-0.276970	-2124.27	7.529433E-6	NaN
1060	1.000000	0.883269	7.37542e+06	-53139.1	1055.82	-29747.1	0.000000	0.000000	6.883101	-0.059914	NaN	0.000000	0.001761	0.001694	28.083	0.069321	0.001997	34.7124	58.1847	-167.235	-0.072203	0.881899	-0.268350	-0.269720	-0.059914	34.7124	-0.267055	-1502.22	3.988383E-5	NaN
1060	1.000000	0.893270	7.37542e+06	-53139.1	1055.82	-29747.1	0.000000	0.000000	6.893102	-0.085861	NaN	0.000000	0.001764	0.001670	28.0833	0.057803	0.001920	30.1073	119.15	13.2542	-0.133834	0.891967	-0.258348	-0.259651	-0.085861	30.1073	-0.256209	-1025	8.376671E-5	NaN
1060	1.000000	0.903287	7.37542e+06	-53139.1	1055.82	-29747.1	0.000000	0.000000	6.903120	-0.064337	NaN	0.000000	0.001687	0.001698	28.0833	0.078320	0.001969	39.7681	135.993	-169.4	-0.066208	0.901908	-0.248331	-0.249711	-0.064337	39.7681	-0.247118	-741.873	8.672238E-5	NaN
1060	1.000000	0.913274	7.37542e+06	-53139.1	1055.82	-29747.1	0.000000	0.000000	6.913108	-0.025581	NaN	0.000000	0.001748	0.001692	28.0832	0.045178	0.001920	23.5281	-169.552	10.0186	-0.004459	0.911916	-0.238344	-0.239702	-0.025581	23.5281	-0.237529	-525.905	4.864231E-5	NaN
1060	1.000000	0.923272	7.37542e+06	-53139.1	1055.82	-29747.1	0.000000	0.000000	6.923106	-0.015467	NaN	0.000000	0.001755	0.001717	28.0832	0.060580	0.002059	29.4186	32.014	-166.691	0.017269	0.921973	-0.228347	-0.229646	-0.015467	29.4186	-0.227952	-371.659	4.161562E-5	NaN
1060	1.000000	0.933268	7.37542e+06	-53139.1	1055.82	-29747.1	0.000000	0.000000	6.933104	0.019317	NaN	0.000000	0.001683	0.001795	28.0834	0.072317	0.002027	35.6685	-81.1525	9.563718	0.035491	0.931874	-0.218350	-0.219745	0.019317	35.6685	-0.218757	-265.332	-7.280430E-5	NaN
1060	1.000000	0.943269	7.37542e+06	-53139.1	1055.82	-29747.1	0.000000	0.000000	6.943102	-0.038524	NaN	0.000000	0.001717	0.001750	28.0832	0.057214	0.002031	28.1686	-157.253	-168.757	-0.031335	0.941954	-0.208350	-0.209664	-0.038524	28.1686	-0.207324	-173.541	0.000222	NaN
1060	1.000000	0.953301	7.37542e+06	-53139.1	1055.82	-29747.1	0.000000	0.000000	6.953135	-0.032640	NaN	0.000000	0.001674	0.001763	28.0832	0.146015	0.001930	75.6717	94.5447	15.0589	-0.038239	0.951915	-0.198317	-0.199703	-0.032640	75.6717	-0.197994	-122.088	0.000267	NaN
1060	1.000000	0.963310	7.37542e+06	-53139.1	1055.82	-29747.1	0.000000	0.000000	6.963147	0.027383	NaN	0.000000	0.001653	0.001764	28.0833	0.096974	0.002151	45.0851	137.542	-168.399	-0.092155	0.961957	-0.188308	-0.189662	0.027383	45.0851	-0.188764	-85.7739	-0.000319	NaN
1060	1.000000	0.973296	7.37542e+06	-53139.1	1055.82	-29747.1	0.000000	0.000000	6.973130	-0.035267	NaN	0.000000	0.001654	0.001765	28.0847	0.009341	0.002044	4.569225	-159.064	13.1693	-0.044829	0.971979	-0.178322	-0.179640	-0.035267	4.569225	-0.172533	-45.4451	0.000776	NaN
1060	1.000000	0.983266	7.37542e+06	-53139.1	1055.82	-29747.1	0.000000	0.000000	6.983101	-0.018650	NaN	0.000000	0.001683	0.001731	28.0846	0.024445	0.002044	11.9619	74.9518	-166.906	-0.025755	0.981979	-0.168352	-0.169640	-0.018650	11.9619	-0.167183	-36.6894	0.000508	NaN
1060	1.000000	0.993263	7.37542e+06	-53139.1	1055.82	-29747.1	0.000000	0.000000	6.993098	-0.024403	NaN	0.000000	0.001664	0.001764	28.0845	0.060860	0.001980	30.7368	103.628	14.0079	-0.010177	0.991925	-0.158355	-0.159693	-0.024403	30.7368	-0.157760	-25.0072	0.000976	NaN
1060	1.000000	1.003293	7.37542e+06	-53139.1	1055.82	-29747.1	0.000000	0.000000	7.003130	0.033721	NaN	0.000000	0.001632	0.001751	28.0847	0.049437	0.001921	25.7351	-85.4788	-170.537	0.106453	1.001949	-0.148325	-0.149670	0.033721	25.7351	-0.149308	-17.5941	-0.001917	NaN
1060	1.000000	1.013307	7.37542e+06	-53139.1	1055.82	-29747.1	0.000000	0.000000	7.013141	-0.039661	NaN	0.000000	0.001669	0.001689	28.0847	0.101897	0.002051	49.686	72.2532	13.7871	0.006837	1.011963	-0.138312	-0.139656	-0.039661	49.686	-0.137713	-10.7115	0.003703	NaN
1060	1.000000	1.023288	7.37542e+06	-53139.1	1055.82	-29747.1	0.000000	0.000000	7.023123	-0.000264	NaN	0.000000	0.001729	0.001707	28.0847	0.094077	0.001988	47.3106	178.35	-166.845	-0.085067	1.021984	-0.128330	-0.129635	-0.000264	47.3106	-0.128326	-7.069721	3.728055E-5	NaN
1060	1.000000	1.033338	7.37542e+06	-53139.1	1055.82	-29747.1	0.000000	0.000000	7.033173	-0.001948	NaN	0.000000	0.001729	0.001704	28.0847	0.050250	0.002042	24.602	168.927	14.6437	0.029019	1.031993	-0.118281	-0.119626	-0.001948	24.602	-0.118221	-4.446842	0.000438	NaN
1060	1.000000	1.043351	7.37542e+06	-53139.1	1055.82	-29747.1	0.000000	0.000000	7.043185	-0.012615	NaN	0.000000	0.001736	0.001722	28.0849	0.039538	0.002029	19.4906	123.635	-168.272	-0.003702	1.042043	-0.108268	-0.109576	-0.012615	19.4906	-0.107782	-2.696922	0.004678	NaN
1060	1.000000	1.053325	7.37542e+06	-53139.1	1055.82	-29747.1	0.000000	0.000000	7.053158	-0.041530	NaN	0.000000	0.001741	0.001735	28.0846	0.091825	0.001989	46.1616	-42.9106	13.8409	-0.006127	1.051986	-0.098294	-0.099633	-0.041530	46.1616	-0.097619	-1.616790	0.025687	NaN
1060	1.000000	1.063355	7.37542e+06	-53139.1	1055.82	-29747.1	0.000000	0.000000	7.063189	-0.035864	NaN	0.000000	0.001740	0.001740	28.0845	0.026828	0.001925	13.934	131.156	-167.039	-0.041572	1.061990	-0.088263	-0.089629	-0.035864	13.934	-0.086333	-0.884724	0.040537	NaN
1060	1.000000	1.073316	7.37542e+06	-53139.1	1055.82	-29747.1	0.000000	0.000000	7.073153	0.039503	NaN	0.000000	0.001666	0.001740	28.0846	0.051994	0.002007	25.9058	170.344	11.3297	-5.827045E-5	1.071946	-0.078303	-0.079672	0.039503	25.9058	-0.079446	-0.599536	-0.065889	NaN
1060	1.000000	1.083324	7.37542e+06	-53139.1	1055.82	-29747.1	0.000000	0.000000	7.083160	0.011468	NaN	0.000000	0.001703	0.001725	28.0847	0.149995	0.002046	73.3193	178.777	-164.809	-0.112646	1.082031	-0.068295	-0.069588	0.011468	73.3193	-0.068412	-0.309108	-0.037100	NaN
1060	1.000000	1.093332	7.37542e+06	-53139.1	1055.82	-29747.1	0.000000	0.000000	7.093166	-0.035701	NaN	0.000000	0.001656	0.001711	28.0845	0.110233	0.001837	60.0092	1.433144	14.56	-0.034008	1.091958	-0.058286	-0.059661	-0.035701	60.0092	-0.057840	-0.155998	0.228853	NaN
1060	1.000000	1.103328	7.37542e+06	-53139.1	1055.82	-29747.1	0.000000	0.000000	7.103180	0.391322	NaN	0.000000	0.001679	0.001739	28.0844	0.503202	0.001862	270.256	19.8023	-167.693	0.275838	1.102005	-0.048290	-0.049613	0.391322	270.256	-0.049376	-0.087368	-4.479012	NaN
1060	1.000000	1.113347	7.37542e+06	-53139.1	1055.82	-29747.1	0.000000	0.000000	7.113303	2.935137	NaN	0.000000	0.001702	0.001706	28.0832	1.500163	0.001851	810.633	8.183204	15.0702	2.458285	1.111971	-0.038271	-0.039647	2.935137	810.633	-0.040987	-0.048458	-60.5707	NaN
1060	1.000000	1.123345	7.37542e+06	-53139.1	1055.82	-29747.1	0.000000	0.000000	7.123436	6.208748	NaN	0.000000	0.001677	0.001662	28.0834	2.358021	0.001914	1232.02	15.8895	-168.418	5.741197	1.122058	-0.028273	-0.029561	6.208748	1232.02	-0.032053	-0.026297	-236.098	NaN
1060	2.000000	1.133083	7.37542e+06	-53139.1	1055.82	-29747.1	0.000000	0.000000	7.133299	9.249991	NaN	0.000000	0.001665	0.001719	28.0833	2.817661	0.001927	1462.09	14.3944	9.246497	8.955976	1.132024	-0.018536	-0.019594	9.249991	1462.09	-0.023280	-0.015227	-607.487	NaN
1060	2.000000	1.135973	7.37542e+06	-53139.1	1055.82	-29747.1	0.000000	0.000000	7.136192	9.334934	NaN	0.000000	0.001659	0.001716	28.0833	3.069573	0.001990	1542.74	10.8367	-169.384	9.367253	1.135593	-0.015646	-0.016026	9.334934	1542.74	-0.020184	-0.012697	-735.207	NaN
1060	2.000000	1.138392	7.37542e+06	-53139.1	1055.82	-29747.1	0.000000	0.000000	7.138635	9.918148	NaN	0.000000	0.001660	0.001707	28.0835	3.125682	0.001913	1634.27	10.0422	11.5025	9.612490	1.138038	-0.013226	-0.013580	9.918148	1634.27	-0.017778	-0.011015	-900.384	NaN
1060	2.000000	1.140946	7.37542e+06	-53139.1	1055.82	-29747.1	0.000000	0.000000	7.141099	7.722309	NaN	0.000000	0.001683	0.001734	28.0833	3.040476	0.002102	1446.22	14.1381	-168.039	8.218128	1.140570	-0.010672	-0.011049	7.722309	1446.22	-0.014677	-0.009083	-850.216	NaN
1060	2.000000	1.143403	7.37542e+06	-53139.1	1055.82	-29747.1	0.000000	0.000000	7.143528	7.045079	NaN	0.000000	0.001658	0.001764	28.0833	3.076688	0.001961	1568.76	10.5526	10.7134	7.123444	1.143042	-0.008215	-0.008577	7.045079	1568.76	-0.011583	-0.007291	-966.327	NaN
1060	2.000000	1.145885	7.37542e+06	-53139.1	1055.82	-29747.1	0.000000	0.000000	7.146001	6.834124	NaN	0.000000	0.001647	0.001758	28.0832	2.879959	0.002056	1400.48	9.202525	-165.09	6.810443	1.145592	-0.005734	-0.006026	6.834124	1400.48	-0.009394	-0.006040	-1131.5	NaN
1060	2.000000	1.148390	7.37542e+06	-53139.1	1055.82	-29747.1	0.000000	0.000000	7.148480	6.190094	NaN	0.000000	0.001678	0.001759	28.0833	2.981903	0.001833	1626.37	10.5966	9.554953	6.252370	1.148037	-0.003228	-0.003582	6.190094	1626.37	-0.006083	-0.004087	-1514.64	NaN
1060	2.000000	1.150879	7.37542e+06	-53139.1	1055.82	-29747.1	0.000000	0.000000	7.150929	5.232964	NaN	0.000000	0.001638	0.001737	28.0831	3.029554	0.002035	1488.42	11.7816	-166.5	5.398365	1.150591	-0.000739	-0.001027	5.232964	1488.42	-0.003376	-0.002371	-2207.27	NaN
1060	2.000000	1.153355	7.37542e+06	-53139.1	1055.82	-29747.1	0.000000	0.000000	7.153402	5.128565	NaN	0.000000	0.001689	0.001747	28.0831	3.222836	0.002051	1571.24	12.9204	9.121913	5.111527	1.153015	0.001737	0.001396	5.128565	1571.24	-0.000711	-0.000524	-9783.1	NaN
1060	2.000000	1.155841	7.37542e+06	-53139.1	1055.82	-29747.1	0.000000	0.000000	7.155908	5.642910	NaN	0.000000	0.001670	0.001738	28.0831	3.707340	0.001964	1888.12	14.2266	-171.015	5.594544	1.155532	0.004222	0.003914	5.642910	1888.12	0.001981	0.001539	3666.41	43971.7
1060	2.000000	1.158332	7.37542e+06	-53139.1	1055.82	-29747.1	0.000000	0.000000	7.158453	6.942952	NaN	0.000000	0.001625	0.001747	28.0832	5.532810	0.001930	2867.34	12.5837	7.606724	6.748957	1.157983	0.006713	0.006364	6.942952	2867.34	0.004897	0.004040	1718.57	41215.9
1060	2.000000	1.160852	7.37542e+06	-53139.1	1055.82	-29747.1	0.000000	0.000000	7.161108	10.2398	NaN	0.000000	0.001616	0.001747	28.0841	8.780201	0.001911	4595.21	10.6525	-174.376	9.657940	1.160524	0.009234	0.008905	10.2398	4595.21	0.007562	0.006596	1552.42	51693.6
1060	2.000000	1.163364	7.37542e+06	-53139.1	1055.82	-29747.1	0.000000	0.000000	7.163719	12.617	NaN	0.000000	0.001657	0.001723	28.0844	11.1874	0.001866	5995.88	10.3307	4.218688	12.143	1.162984	0.011746	0.011365	12.617	5995.88	0.010168	0.009368	1346.75	56596.8
1060	2.000000	1.165818	7.37542e+06	-53139.1	1055.82	-29747.1	0.000000	0.000000	7.166296	15.6295	NaN	0.000000	0.001678	0.001751	28.0844	13.5238	0.001645	8219.63	5.856838	-174.405	15.8941	1.165566	0.014200	0.013947	15.6295	8219.63	0.012774	0.012430	1257.4	67358
1060	2.000000	1.168301	7.37542e+06	-53139.1	1055.82	-29747.1	0.000000	0.000000	7.168990	20.7736	NaN	0.000000	0.001661	0.001740	28.0844	16.2668	0.001819	8944.26	5.653755	5.207668	19.4766	1.167969	0.016682	0.016350	20.7736	8944.26	0.014940	0.015206	1366.14	66268.8
1060	2.000000	1.170825	7.37542e+06	-53139.1	1055.82	-29747.1	0.000000	0.000000	7.171705	25.4207	NaN	0.000000	0.001659	0.001773	28.0843	19.3265	0.001803	10721.6	7.695104	-178.56	25.0713	1.170524	0.019206	0.018905	25.4207	10721.6	0.017428	0.018661	1362.26	71708.2
1060	2.000000	1.173356	7.37542e+06	-53139.1	1055.82	-29747.1	0.000000	0.000000	7.174531	32.5734	NaN	0.000000	0.001642	0.001790	28.0845	20.8431	0.001693	12310.4	3.194605	5.702338	31.5596	1.172956	0.021738	0.021337	32.5734	12310.4	0.019753	0.022156	1470.2	75561.8
1060	2.000000	1.175779	7.37542e+06	-53139.1	1055.82	-29747.1	0.000000	0.000000	7.177137	37.0221	NaN	0.000000	0.001609	0.001755	28.0845	24.025	0.001871	12839.9	7.220948	-179.359	35.0963	1.175478	0.024160	0.023860	37.0221	12839.9	0.021998	0.025780	1436.1	73063.1
1060	2.000000	1.178306	7.37542e+06	-53139.1	1055.82	-29747.1	0.000000	0.000000	7.180018	45.6248	NaN	0.000000	0.001597	0.001756	28.0844	26.6383	0.001738	15324.7	5.754325	-0.037212	43.6998	1.177902	0.026687	0.026283	45.6248	15324.7	0.024454	0.030031	1519.28	80794.6
1060	2.000000	1.180810	7.37542e+06	-53139.1	1055.82	-29747.1	0.000000	0.000000	7.182709	50.1967	NaN	0.000000	0.001632	0.001752	28.0842	29.9394	0.001903	15730.1	5.976397	179.935	49.5293	1.180508	0.029191	0.028890	50.1967	15730.1	0.026798	0.034368	1460.58	77522.9
1060	2.000000	1.183325	7.37542e+06	-53139.1	1055.82	-29747.1	0.000000	0.000000	7.185559	58.3175	NaN	0.000000	0.001665	0.001758	28.0843	32.6655	0.001972	16560.6	10.3099	-5.118181	57.592	1.183000	0.031707	0.031381	58.3175	16560.6	0.029066	0.038829	1501.9	76783.6
1060	2.000000	1.185816	7.37542e+06	-53139.1	1055.82	-29747.1	0.000000	0.000000	7.188353	65.704	NaN	0.000000	0.001628	0.001772	28.0844	33.6846	0.001870	18017.4	5.397083	179.065	65.3095	1.185490	0.034197	0.033871	65.704	18017.4	0.031462	0.043829	1499.09	78629.3
1060	2.000000	1.188332	7.37542e+06	-53139.1	1055.82	-29747.1	0.000000	0.000000	7.191143	72.349	NaN	0.000000	0.001607	0.001739	28.0846	35.604	0.001761	20220.9	5.663713	-2.643087	71.3297	1.188026	0.036714	0.036408	72.349	20220.9	0.034030	0.049512	1461.25	83027.1
1060	2.000000	1.190721	7.37542e+06	-53139.1	1055.82	-29747.1	0.000000	0.000000	7.193880	80.8289	NaN	0.000000	0.001654	0.001742	28.0845	37.8776	0.001742	21738.4	4.958284	177.529	77.7298	1.190447	0.039102	0.038828	80.8289	21738.4	0.036313	0.054848	1473.69	84804.6
1060	2.000000	1.193306	7.37542e+06	-53139.1	1055.82	-29747.1	0.000000	0.000000	7.196866	90.5479	NaN	0.000000	0.001660	0.001742	28.0848	39.819	0.001845	21577.1	6.968875	-3.266543	88.6566	1.192939	0.041688	0.041321	90.5479	21577.1	0.038540	0.060310	1501.36	80273.1
1060	2.000000	1.195769	7.37542e+06	-53139.1	1055.82	-29747.1	0.000000	0.000000	7.199739	100.548	NaN	0.000000	0.001624	0.001753	28.0835	41.6834	0.001708	24398.3	4.554845	177.654	98.824	1.195436	0.044150	0.043818	100.548	24398.3	0.041059	0.066795	1505.33	86250.5
1060	2.000000	1.198311	7.37542e+06	-53139.1	1055.82	-29747.1	0.000000	0.000000	7.202639	109.234	NaN	0.000000	0.001663	0.001757	28.0834	44.5122	0.001765	25223.2	4.623448	-3.259389	107.406	1.197889	0.046692	0.046271	109.234	25223.2	0.043444	0.073232	1491.61	85157.3
1060	2.000000	1.200796	7.37542e+06	-53139.1	1055.82	-29747.1	0.000000	0.000000	7.205520	118.848	NaN	0.000000	0.001662	0.001769	28.0834	47.4276	0.001820	26053.2	4.085571	177.084	117.073	1.200472	0.049178	0.048853	118.848	26053.2	0.045756	0.079749	1490.28	84289.1
1060	2.000000	1.203265	7.37542e+06	-53139.1	1055.82	-29747.1	0.000000	0.000000	7.208438	129.777	NaN	0.000000	0.001629	0.001770	28.0836	48.7953	0.001709	28557.2	8.305520	-7.253225	126.666	1.203009	0.051647	0.051391	129.777	28557.2	0.048238	0.087045	1490.92	88433.4
1060	2.000000	1.205714	7.37542e+06	-53139.1	1055.82	-29747.1	0.000000	0.000000	7.211357	141.185	NaN	0.000000	0.001670	0.001777	28.0834	51.3171	0.001733	29609.9	4.601118	174.804	137.179	1.205459	0.054096	0.053840	141.185	29609.9	0.050520	0.094027	1501.55	88223.7
1060	2.000000	1.208255	7.37542e+06	-53139.1	1055.82	-29747.1	0.000000	0.000000	7.214477	155.289	NaN	0.000000	0.001628	0.001810	28.0834	55.0279	0.001796	30646.3	7.931644	-7.890201	151.752	1.207856	0.056636	0.056238	155.289	30646.3	0.052836	0.101380	1531.75	87937.7
1060	2.000000	1.210753	7.37542e+06	-53139.1	1055.82	-29747.1	0.000000	0.000000	7.217245	161.843	NaN	0.000000	0.001634	0.001795	28.0835	58.2817	0.001849	31527.9	8.425555	170.845	160.186	1.210515	0.059135	0.058896	161.843	31527.9	0.055285	0.109446	1478.75	87070.1
1060	2.000000	1.213255	7.37542e+06	-53139.1	1055.82	-29747.1	0.000000	0.000000	7.220488	179.88	NaN	0.000000	0.001640	0.001794	28.0836	59.3827	0.001747	33985	5.654517	-5.825212	176.792	1.212877	0.061636	0.061258	179.88	33985	0.057666	0.117574	1529.93	90553.6
1060	2.000000	1.215760	7.37542e+06	-53139.1	1055.82	-29747.1	0.000000	0.000000	7.223482	191.748	NaN	0.000000	0.001654	0.001815	28.0832	61.7689	0.001780	34704.1	5.824119	173.239	190.726	1.215442	0.064142	0.063824	191.748	34704.1	0.059998	0.125801	1524.22	89394.9
1060	2.000000	1.218137	7.37542e+06	-53139.1	1055.82	-29747.1	0.000000	0.000000	7.226321	202.986	NaN	0.000000	0.001687	0.001750	28.0832	64.3074	0.001812	35491.4	3.664825	-4.727222	195.407	1.217836	0.066518	0.066217	202.986	35491.4	0.062229	0.133921	1515.71	88607.8
1060	2.000000	1.220769	7.37542e+06	-53139.1	1055.82	-29747.1	0.000000	0.000000	7.229514	216.637	NaN	0.000000	0.001699	0.001763	28.0836	67.6986	0.001859	36422.8	5.032661	173.121	216.751	1.220542	0.069150	0.068923	216.637	36422.8	0.064689	0.143159	1513.26	87950.5
1060	2.000000	1.223256	7.37542e+06	-53139.1	1055.82	-29747.1	0.000000	0.000000	7.232645	232.287	NaN	0.000000	0.001655	0.001786	28.0835	68.3512	0.001721	39704.4	1.672753	-3.504013	228.804	1.222899	0.071638	0.071280	232.287	39704.4	0.067250	0.153081	1517.41	92715.3
1060	2.000000	1.225723	7.37542e+06	-53139.1	1055.82	-29747.1	0.000000	0.000000	7.236010	254.116	NaN	0.000000	0.001668	0.001756	28.0835	70.4528	0.001743	40428.1	1.360884	176.462	251.116	1.225408	0.074105	0.073790	254.116	40428.1	0.069391	0.161617	1572.33	91878.2
1060	2.000000	1.228210	7.37542e+06	-53139.1	1055.82	-29747.1	0.000000	0.000000	7.238973	265.709	NaN	0.000000	0.001659	0.001780	28.0836	75.2232	0.001895	39695.3	5.248905	-7.323024	259.155	1.227835	0.076591	0.076216	265.709	39695.3	0.071571	0.170536	1558.08	87822.2
1060	2.000000	1.230714	7.37542e+06	-53139.1	1055.82	-29747.1	0.000000	0.000000	7.242212	283.547	NaN	0.000000	0.001673	0.001786	28.085	77.2322	0.001829	42215.4	6.147951	171.29	280.745	1.230420	0.079096	0.078802	283.547	42215.4	0.074058	0.180988	1566.66	90660.8
1060	2.000000	1.231837	7.37542e+06	-53139.1	1055.82	-29747.1	0.000000	0.000000	7.243343	283.766	NaN	0.000000	0.001664	0.001760	28.0846	78.0895	0.001722	45360.2	6.515884	170.023	287.513	1.231464	0.080218	0.079846	283.766	45360.2	0.075526	0.187292	1515.1	95761