File: remote_trans/data/nanoindenter/0828-1/data/Data_2025-08-06,11h17m57s/2025-07-22_16-23-58_1_36.txt
2025-07-22, 16:23:58, 1
Index	Phase	Displacement	Time	Pos X	Pos Y	Pos Z	Rot A	Rot B	Piezo Z	Force A	Force B	Gripper	Voltage A	Voltage B	Temperature	Amplitude force	Amplitude pos	Stiffness	Phase shift	Phase excitation	Force A raw	Displacement raw	HMax	HMax raw	Real Force	Real Stiffness	Contact Depth	Area	Hardness	Reduced Mod.
[#]	[#]	[um]	[s]	[um]	[um]	[um]	[m°]	[m°]	[um]	[uN]	[uN]	[V]	[V]	[V]	[°C]	[uN]	[um]	[N/m]	[°]	[°]	[uN]	[um]	[um]	[um]	[uN]	[N/m]	[um]	[um^2]	[MPa]	[MPa]
36	1.000000	0.002197	7.36539e+06	-40439.1	955.819	-29790.7	0.000000	0.000000	6.002767	-0.037851	NaN	0.000000	0.001593	0.001571	28.1294	0.014772	0.001008	14.6515	123.98	-168.521	-0.029856	0.000998	-1.078578	-1.079778	-0.037851	14.6515	-1.076641	-2.434446E+14	1.554816E-16	NaN
36	1.000000	0.010209	7.36539e+06	-40439.1	955.819	-29790.7	0.000000	0.000000	6.010779	-0.047191	NaN	0.000000	0.001579	0.001551	28.1291	0.173104	0.001029	168.304	4.247480	-163.503	-0.078678	0.008852	-1.070566	-1.071924	-0.047191	168.304	-1.070356	-2.004331E+14	2.354466E-16	NaN
36	1.000000	0.018185	7.36539e+06	-40439.1	955.818	-29790.7	0.000000	0.000000	6.018754	-0.066412	NaN	0.000000	0.001549	0.001543	28.1294	0.027373	0.001752	15.6202	113.102	-163.741	-0.017580	0.016921	-1.062590	-1.063855	-0.066412	15.6202	-1.059402	-1.428171E+14	4.650164E-16	NaN
36	1.000000	0.026177	7.36539e+06	-40439.1	955.818	-29790.7	0.000000	0.000000	6.026750	0.031849	NaN	0.000000	0.001563	0.001594	28.1298	0.147000	0.001878	78.2552	-38.2517	-165.65	0.049622	0.024850	-1.054598	-1.055925	0.031849	78.2552	-1.054904	-1.242591E+14	-2.563140E-16	NaN
36	1.000000	0.034188	7.36539e+06	-40439.1	955.818	-29790.7	0.000000	0.000000	6.034755	-0.095384	NaN	0.000000	0.001592	0.001598	28.1296	0.135423	0.001826	74.1532	-7.206775	-164.884	-0.026743	0.032906	-1.046588	-1.047869	-0.095384	74.1532	-1.045623	-9.323346E+13	1.023065E-15	NaN
36	1.000000	0.042211	7.36539e+06	-40439.1	955.818	-29790.7	0.000000	0.000000	6.042783	0.001665	NaN	0.000000	0.001613	0.001566	28.1282	0.103484	0.002009	51.5149	-152.69	-166.615	0.057094	0.040917	-1.038564	-1.039859	0.001665	51.5149	-1.038588	-7.498717E+13	-2.220554E-17	NaN
36	1.000000	0.050180	7.36539e+06	-40439.1	955.819	-29790.7	0.000000	0.000000	6.050750	-0.029554	NaN	0.000000	0.001604	0.001577	28.1285	0.137420	0.002000	68.6978	137.709	-161.069	-0.020224	0.048884	-1.030595	-1.031891	-0.029554	68.6978	-1.030272	-5.796217E+13	5.098770E-16	NaN
36	1.000000	0.058203	7.36539e+06	-40439.1	955.819	-29790.7	0.000000	0.000000	6.058773	-0.037006	NaN	0.000000	0.001589	0.001609	28.1287	0.049106	0.001930	25.4384	-168.99	-162.103	-0.105487	0.056929	-1.022572	-1.023846	-0.037006	25.4384	-1.021481	-4.414524E+13	8.382790E-16	NaN
36	1.000000	0.066176	7.36539e+06	-40439.1	955.819	-29790.7	0.000000	0.000000	6.066749	0.053286	NaN	0.000000	0.001592	0.001589	28.1285	0.034427	0.002025	17.005	139.111	-164.884	0.068435	0.064856	-1.014600	-1.015920	0.053286	17.005	-1.016950	-3.836309E+13	-1.388996E-15	NaN
36	1.000000	0.074198	7.36539e+06	-40439.1	955.818	-29790.7	0.000000	0.000000	6.074767	-0.045165	NaN	0.000000	0.001631	0.001606	28.1279	0.006730	0.002004	3.357780	-49.6365	-165.893	-0.014885	0.072832	-1.006578	-1.007944	-0.045165	3.357780	-0.996489	-2.034708E+13	2.219751E-15	NaN
36	1.000000	0.082202	7.36539e+06	-40439.1	955.819	-29790.7	0.000000	0.000000	6.082774	0.020774	NaN	0.000000	0.001625	0.001575	28.1294	0.015662	0.002107	7.433483	-145.677	-166.533	0.048787	0.080859	-0.998574	-0.999916	0.020774	7.433483	-1.000670	-2.316240E+13	-8.968683E-16	NaN
36	1.000000	0.090207	7.36539e+06	-40439.1	955.818	-29790.7	0.000000	0.000000	6.090777	-0.025755	NaN	0.000000	0.001627	0.001606	28.1306	0.066588	0.002167	30.7259	-34.3881	-166.916	-0.024030	0.088955	-0.990569	-0.991821	-0.025755	30.7259	-0.989940	-1.660753E+13	1.550820E-15	NaN
36	1.000000	0.098178	7.36539e+06	-40439.1	955.818	-29790.7	0.000000	0.000000	6.098750	0.023289	NaN	0.000000	0.001617	0.001619	28.1304	0.013928	0.002003	6.954729	152.505	-166.544	-0.028165	0.096928	-0.982598	-0.983847	0.023289	6.954729	-0.985109	-1.429670E+13	-1.628984E-15	NaN
36	1.000000	0.106206	7.36539e+06	-40439.1	955.818	-29790.7	0.000000	0.000000	6.106776	-0.050580	NaN	0.000000	0.001610	0.001633	28.1304	0.012460	0.001937	6.432038	106.857	-162.796	-0.010096	0.104877	-0.974569	-0.975899	-0.050580	6.432038	-0.968671	-8.585288E+12	5.891507E-15	NaN
36	1.000000	0.114203	7.36539e+06	-40439.1	955.817	-29790.7	0.000000	0.000000	6.114774	-0.005114	NaN	0.000000	0.001608	0.001629	28.13	0.151175	0.002050	73.7339	-98.6158	-166.241	-0.035115	0.112963	-0.966573	-0.967812	-0.005114	73.7339	-0.966521	-8.031020E+12	6.367569E-16	NaN
36	1.000000	0.122200	7.36539e+06	-40439.1	955.819	-29790.7	0.000000	0.000000	6.122771	-0.018123	NaN	0.000000	0.001659	0.001588	28.1293	0.106917	0.001979	54.013	2.962511	-167.952	0.080440	0.120839	-0.958575	-0.959937	-0.018123	54.013	-0.958324	-6.226835E+12	2.910488E-15	NaN
36	1.000000	0.130204	7.36539e+06	-40439.1	955.818	-29790.7	0.000000	0.000000	6.130774	-0.023179	NaN	0.000000	0.001646	0.001601	28.1297	0.051429	0.002047	25.124	-150.701	-164.052	0.024661	0.128923	-0.950571	-0.951852	-0.023179	25.124	-0.949880	-4.790746E+12	4.838203E-15	NaN
36	1.000000	0.138208	7.36539e+06	-40439.1	955.819	-29790.7	0.000000	0.000000	6.138780	0.033907	NaN	0.000000	0.001609	0.001602	28.1293	0.055772	0.002006	27.8041	167.58	-163.452	0.047172	0.136909	-0.942568	-0.943867	0.033907	27.8041	-0.943482	-3.927496E+12	-8.633237E-15	NaN
36	1.000000	0.146210	7.36539e+06	-40439.1	955.819	-29790.7	0.000000	0.000000	6.146782	0.005335	NaN	0.000000	0.001646	0.001637	28.1294	0.043461	0.001978	21.9745	-34.9433	-166.147	0.019374	0.144908	-0.934565	-0.935867	0.005335	21.9745	-0.934747	-2.994066E+12	-1.781915E-15	NaN
36	1.000000	0.154205	7.36539e+06	-40439.1	955.818	-29790.7	0.000000	0.000000	6.154774	-0.050562	NaN	0.000000	0.001639	0.001650	28.1293	0.016932	0.001910	8.862938	-21.5347	-163.555	-0.044849	0.152905	-0.926571	-0.927870	-0.050562	8.862938	-0.922292	-2.033054E+12	2.487001E-14	NaN
36	1.000000	0.162223	7.36539e+06	-40439.1	955.819	-29790.7	0.000000	0.000000	6.162793	-0.009709	NaN	0.000000	0.001618	0.001635	28.1302	0.040859	0.002066	19.7779	-160.202	-166.137	0.024677	0.160895	-0.918553	-0.919881	-0.009709	19.7779	-0.918185	-1.789351E+12	5.425767E-15	NaN
36	1.000000	0.170262	7.36539e+06	-40439.1	955.818	-29790.7	0.000000	0.000000	6.170832	-0.013961	NaN	0.000000	0.001616	0.001577	28.1307	0.081235	0.001946	41.7472	127.324	-165.401	0.028260	0.168905	-0.910514	-0.911871	-0.013961	41.7472	-0.910263	-1.398670E+12	9.981866E-15	NaN
36	1.000000	0.178258	7.36539e+06	-40439.1	955.818	-29790.7	0.000000	0.000000	6.178830	0.017031	NaN	0.000000	0.001608	0.001620	28.13	0.089299	0.001961	45.5354	-79.3897	-162.386	-0.004612	0.176883	-0.902517	-0.903893	0.017031	45.5354	-0.902798	-1.108842E+12	-1.535941E-14	NaN
36	1.000000	0.186244	7.36539e+06	-40439.1	955.819	-29790.7	0.000000	0.000000	6.186812	-0.072465	NaN	0.000000	0.001589	0.001605	28.13	0.016642	0.001989	8.367476	104.287	-165.508	-0.127581	0.184903	-0.894532	-0.895872	-0.072465	8.367476	-0.888037	-7.004446E+11	1.034556E-13	NaN
36	1.000000	0.194247	7.36539e+06	-40439.1	955.817	-29790.7	0.000000	0.000000	6.194820	0.032066	NaN	0.000000	0.001610	0.001614	28.1302	0.084940	0.002090	40.6328	134.054	-166.187	-0.024702	0.192958	-0.886529	-0.887817	0.032066	40.6328	-0.887120	-6.807481E+11	-4.710343E-14	NaN
36	1.000000	0.202263	7.36539e+06	-40439.1	955.818	-29790.7	0.000000	0.000000	6.202832	-0.056693	NaN	0.000000	0.001587	0.001625	28.129	0.051412	0.001833	28.0471	113.43	-169.426	-0.114079	0.200882	-0.878512	-0.879894	-0.056693	28.0471	-0.876996	-4.966874E+11	1.141425E-13	NaN
36	1.000000	0.210259	7.36539e+06	-40439.1	955.818	-29790.7	0.000000	0.000000	6.210831	0.015833	NaN	0.000000	0.001612	0.001627	28.1287	0.107555	0.001868	57.5904	-122.544	-167.993	-0.030507	0.208895	-0.870517	-0.871881	0.015833	57.5904	-0.870723	-4.085316E+11	-3.875481E-14	NaN
36	1.000000	0.218252	7.36539e+06	-40439.1	955.819	-29790.7	0.000000	0.000000	6.218819	-0.098628	NaN	0.000000	0.001604	0.001603	28.1287	0.044742	0.002031	22.033	-116.454	-164.771	-0.062186	0.216946	-0.862523	-0.863830	-0.098628	22.033	-0.859166	-2.849937E+11	3.460692E-13	NaN
36	1.000000	0.226247	7.36539e+06	-40439.1	955.818	-29790.7	0.000000	0.000000	6.226819	0.020423	NaN	0.000000	0.001648	0.001616	28.128	0.140579	0.002096	67.0745	-41.3742	-167.089	-0.059777	0.224955	-0.854528	-0.855821	0.020423	67.0745	-0.854757	-2.483936E+11	-8.221904E-14	NaN
36	1.000000	0.234275	7.36539e+06	-40439.1	955.819	-29790.7	0.000000	0.000000	6.234844	-0.048139	NaN	0.000000	0.001663	0.001596	28.1278	0.033033	0.002087	15.8258	130.124	-165.627	-0.030876	0.232993	-0.846500	-0.847783	-0.048139	15.8258	-0.844219	-1.788325E+11	2.691825E-13	NaN
36	1.000000	0.242252	7.36539e+06	-40439.1	955.819	-29790.7	0.000000	0.000000	6.242819	-0.100644	NaN	0.000000	0.001687	0.001599	28.1289	0.024420	0.001944	12.563	104.402	-165.413	-0.091894	0.240987	-0.838524	-0.839789	-0.100644	12.563	-0.832515	-1.241293E+11	8.107963E-13	NaN
36	1.000000	0.250286	7.36539e+06	-40439.1	955.819	-29790.7	0.000000	0.000000	6.250855	-0.031163	NaN	0.000000	0.001700	0.001582	28.1289	0.018852	0.002105	8.957432	122.682	-164.437	-0.073952	0.248930	-0.830490	-0.831846	-0.031163	8.957432	-0.827881	-1.074134E+11	2.901208E-13	NaN
36	1.000000	0.258262	7.36539e+06	-40439.1	955.818	-29790.7	0.000000	0.000000	6.258834	-0.002721	NaN	0.000000	0.001709	0.001580	28.1289	0.031845	0.002041	15.6024	-142.821	-167.833	-0.015606	0.256960	-0.822513	-0.823816	-0.002721	15.6024	-0.822382	-9.047200E+10	3.007157E-14	NaN
36	1.000000	0.266275	7.36539e+06	-40439.1	955.818	-29790.7	0.000000	0.000000	6.266847	0.009858	NaN	0.000000	0.001686	0.001625	28.1285	0.046697	0.002029	23.0096	-100.106	-165.15	-0.009787	0.265044	-0.814500	-0.815732	0.009858	23.0096	-0.814822	-7.144652E+10	-1.379813E-13	NaN
36	1.000000	0.274269	7.36539e+06	-40439.1	955.819	-29790.7	0.000000	0.000000	6.274841	0.013956	NaN	0.000000	0.001663	0.001588	28.129	0.032752	0.002026	16.1698	77.2466	-165.241	0.079039	0.272971	-0.806506	-0.807804	0.013956	16.1698	-0.807154	-5.622778E+10	-2.482116E-13	NaN
36	1.000000	0.282256	7.36539e+06	-40439.1	955.818	-29790.7	0.000000	0.000000	6.282825	-0.053631	NaN	0.000000	0.001652	0.001583	28.1284	0.089693	0.001871	47.9442	139.243	-161.961	0.039970	0.280957	-0.798519	-0.799819	-0.053631	47.9442	-0.797680	-4.181911E+10	1.282450E-12	NaN
36	1.000000	0.290292	7.36539e+06	-40439.1	955.818	-29790.7	0.000000	0.000000	6.290862	-0.035140	NaN	0.000000	0.001639	0.001583	28.1274	0.063665	0.001947	32.6977	144.055	-162.412	-0.043459	0.288980	-0.790483	-0.791796	-0.035140	32.6977	-0.789677	-3.256125E+10	1.079207E-12	NaN
36	1.000000	0.298270	7.36539e+06	-40439.1	955.818	-29790.7	0.000000	0.000000	6.298839	-0.047365	NaN	0.000000	0.001670	0.001618	28.1276	0.052578	0.002074	25.3532	144.387	-165.478	-0.025948	0.296979	-0.782506	-0.783797	-0.047365	25.3532	-0.781105	-2.490241E+10	1.902034E-12	NaN
36	1.000000	0.306305	7.36539e+06	-40439.1	955.819	-29790.7	0.000000	0.000000	6.306877	0.003130	NaN	0.000000	0.001608	0.001595	28.1274	0.044486	0.002108	21.1044	-140.326	-166.281	-0.005795	0.304950	-0.774470	-0.775825	0.003130	21.1044	-0.774581	-2.030429E+10	-1.541355E-13	NaN
36	1.000000	0.314288	7.36539e+06	-40439.1	955.818	-29790.7	0.000000	0.000000	6.314858	-0.033652	NaN	0.000000	0.001637	0.001570	28.1275	0.070507	0.001906	36.999	161.539	-166.451	0.031545	0.313012	-0.766488	-0.767764	-0.033652	36.999	-0.765805	-1.542646E+10	2.181468E-12	NaN
36	1.000000	0.322311	7.36539e+06	-40439.1	955.819	-29790.7	0.000000	0.000000	6.322880	-0.063652	NaN	0.000000	0.001625	0.001602	28.1286	0.097697	0.002075	47.0898	-77.5827	-162.695	-0.063068	0.320960	-0.758465	-0.759815	-0.063652	47.0898	-0.757451	-1.187459E+10	5.360390E-12	NaN
36	1.000000	0.330331	7.36539e+06	-40439.1	955.818	-29790.7	0.000000	0.000000	6.330903	0.009214	NaN	0.000000	0.001685	0.001602	28.1286	0.089669	0.001854	48.3536	165.649	-165.753	-0.014300	0.328961	-0.750444	-0.751814	0.009214	48.3536	-0.750587	-9.576632E+9	-9.621182E-13	NaN
36	1.000000	0.338288	7.36539e+06	-40439.1	955.819	-29790.7	0.000000	0.000000	6.338859	-0.002423	NaN	0.000000	0.001642	0.001600	28.129	0.119222	0.001897	62.8317	170.475	-167.092	-0.083310	0.336925	-0.742487	-0.743851	-0.002423	62.8317	-0.742458	-7.422285E+9	3.264634E-13	NaN
36	1.000000	0.346299	7.36539e+06	-40439.1	955.818	-29790.7	0.000000	0.000000	6.346869	-0.006839	NaN	0.000000	0.001632	0.001625	28.1285	0.080089	0.001984	40.3682	-111.83	-167.871	0.020508	0.344981	-0.734477	-0.735794	-0.006839	40.3682	-0.734350	-5.755534E+9	1.188330E-12	NaN
36	1.000000	0.354269	7.36539e+06	-40439.1	955.818	-29790.7	0.000000	0.000000	6.354841	0.017652	NaN	0.000000	0.001653	0.001672	28.129	0.019570	0.001946	10.0588	153.892	-167.604	0.071466	0.352996	-0.726506	-0.727780	0.017652	10.0588	-0.727822	-4.689503E+9	-3.764056E-12	NaN
36	1.000000	0.362298	7.36539e+06	-40439.1	955.819	-29790.7	0.000000	0.000000	6.362869	0.014283	NaN	0.000000	0.001650	0.001600	28.1287	0.105275	0.002019	52.1482	165.525	-163.612	0.062196	0.360977	-0.718478	-0.719798	0.014283	52.1482	-0.718683	-3.519781E+9	-4.058018E-12	NaN
36	1.000000	0.370318	7.36539e+06	-40439.1	955.818	-29790.7	0.000000	0.000000	6.370889	-0.006633	NaN	0.000000	0.001649	0.001613	28.1287	0.058511	0.002089	28.0083	63.8218	-164.119	-0.008736	0.369014	-0.710458	-0.711762	-0.006633	28.0083	-0.710280	-2.703153E+9	2.453822E-12	NaN
36	1.000000	0.378308	7.36539e+06	-40439.1	955.819	-29790.7	0.000000	0.000000	6.378880	0.007115	NaN	0.000000	0.001628	0.001613	28.1288	0.037725	0.002195	17.1839	-111.93	-164.528	-0.101345	0.377016	-0.702467	-0.703759	0.007115	17.1839	-0.702778	-2.135308E+9	-3.332086E-12	NaN
36	1.000000	0.386318	7.36539e+06	-40439.1	955.82	-29790.7	0.000000	0.000000	6.386890	0.009901	NaN	0.000000	0.001635	0.001617	28.1287	0.114296	0.001976	57.8422	-22.0891	-162.725	-0.007545	0.385023	-0.694457	-0.695752	0.009901	57.8422	-0.694586	-1.650343E+9	-5.999429E-12	NaN
36	1.000000	0.394307	7.36539e+06	-40439.1	955.819	-29790.7	0.000000	0.000000	6.394881	0.063108	NaN	0.000000	0.001651	0.001616	28.1284	0.094418	0.002012	46.9342	-170.771	-167.124	0.032982	0.393053	-0.686468	-0.687722	0.063108	46.9342	-0.687477	-1.319574E+9	-4.782424E-11	NaN
36	1.000000	0.402323	7.36539e+06	-40439.1	955.819	-29790.7	0.000000	0.000000	6.402894	0.004102	NaN	0.000000	0.001635	0.001653	28.1295	0.074076	0.001848	40.086	-142.843	-165.594	-0.022777	0.401009	-0.678452	-0.679766	0.004102	40.086	-0.678529	-9.956101E+8	-4.120365E-12	NaN
36	1.000000	0.410328	7.36539e+06	-40439.1	955.818	-29790.7	0.000000	0.000000	6.410896	-0.079659	NaN	0.000000	0.001635	0.001613	28.1296	0.104530	0.001932	54.1146	-130.424	-169.122	-0.016958	0.408999	-0.670448	-0.671777	-0.079659	54.1146	-0.669344	-7.454299E+8	1.068628E-10	NaN
36	1.000000	0.418359	7.36539e+06	-40439.1	955.819	-29790.7	0.000000	0.000000	6.418928	-0.053876	NaN	0.000000	0.001661	0.001632	28.1299	0.062799	0.001940	32.3749	5.544910	-167.262	-0.008481	0.417045	-0.662416	-0.663731	-0.053876	32.3749	-0.661168	-5.760608E+8	9.352565E-11	NaN
36	1.000000	0.426355	7.36539e+06	-40439.1	955.818	-29790.7	0.000000	0.000000	6.426923	-0.058395	NaN	0.000000	0.001621	0.001596	28.1295	0.047353	0.002011	23.5414	-31.2459	-165.962	-0.051223	0.425008	-0.654421	-0.655767	-0.058395	23.5414	-0.652561	-4.390724E+8	1.329952E-10	NaN
36	1.000000	0.434334	7.36539e+06	-40439.1	955.818	-29790.7	0.000000	0.000000	6.434907	0.038888	NaN	0.000000	0.001635	0.001596	28.1293	0.073800	0.002075	35.5732	-127.718	-166.343	-0.010336	0.433037	-0.646442	-0.647738	0.038888	35.5732	-0.647261	-3.714403E+8	-1.046939E-10	NaN
36	1.000000	0.442341	7.36539e+06	-40439.1	955.818	-29790.7	0.000000	0.000000	6.442911	-0.042567	NaN	0.000000	0.001634	0.001603	28.1289	0.100242	0.001982	50.5762	-136.237	-165.174	-0.018255	0.441035	-0.638434	-0.639741	-0.042567	50.5762	-0.637803	-2.755139E+8	1.545003E-10	NaN
36	1.000000	0.450353	7.36539e+06	-40439.1	955.817	-29790.7	0.000000	0.000000	6.450923	-0.018675	NaN	0.000000	0.001633	0.001609	28.1283	0.041482	0.001954	21.2335	125.218	-167.596	-0.004958	0.449056	-0.630423	-0.631719	-0.018675	21.2335	-0.629763	-2.136828E+8	8.739606E-11	NaN
36	1.000000	0.458356	7.36539e+06	-40439.1	955.818	-29790.7	0.000000	0.000000	6.458929	0.042497	NaN	0.000000	0.001631	0.001601	28.1292	0.088097	0.001936	45.5094	-60.3653	-167.586	0.121650	0.457057	-0.622419	-0.623719	0.042497	45.5094	-0.623119	-1.731832E+8	-2.453849E-10	NaN
36	1.000000	0.466398	7.36539e+06	-40439.1	955.819	-29790.7	0.000000	0.000000	6.466970	0.017274	NaN	0.000000	0.001650	0.001588	28.1282	0.102488	0.002024	50.6351	23.202	-163.252	0.000643	0.465039	-0.614377	-0.615736	0.017274	50.6351	-0.614633	-1.323872E+8	-1.304807E-10	NaN
36	1.000000	0.474389	7.36539e+06	-40439.1	955.818	-29790.7	0.000000	0.000000	6.474959	-0.025016	NaN	0.000000	0.001646	0.001594	28.128	0.106390	0.002001	53.1668	90.3915	-166.106	-0.062452	0.473064	-0.606386	-0.607711	-0.025016	53.1668	-0.606033	-1.008155E+8	2.481388E-10	NaN
36	1.000000	0.482366	7.36539e+06	-40439.1	955.818	-29790.7	0.000000	0.000000	6.482935	-0.045610	NaN	0.000000	0.001657	0.001557	28.1301	0.053243	0.001932	27.5519	-93.0419	-165.38	-0.054408	0.481050	-0.598410	-0.599726	-0.045610	27.5519	-0.597168	-7.611213E+7	5.992485E-10	NaN
36	1.000000	0.490354	7.36539e+06	-40439.1	955.819	-29790.7	0.000000	0.000000	6.490923	-0.055670	NaN	0.000000	0.001641	0.001608	28.1292	0.157244	0.001879	83.6794	63.439	-169.267	-0.073250	0.489093	-0.590421	-0.591682	-0.055670	83.6794	-0.589922	-6.047790E+7	9.205075E-10	NaN
36	1.000000	0.498391	7.36539e+06	-40439.1	955.818	-29790.7	0.000000	0.000000	6.498965	0.055652	NaN	0.000000	0.001607	0.001621	28.128	0.037047	0.002052	18.0554	134.185	-165.676	0.030256	0.497022	-0.582384	-0.583753	0.055652	18.0554	-0.584696	-5.122948E+7	-1.086326E-9	NaN
36	1.000000	0.506377	7.36539e+06	-40439.1	955.819	-29790.7	0.000000	0.000000	6.506952	0.079899	NaN	0.000000	0.001569	0.001579	28.128	0.058298	0.002020	28.8571	90.2125	-165.266	0.088070	0.505025	-0.574398	-0.575751	0.079899	28.8571	-0.576475	-3.945175E+7	-2.025232E-9	NaN
36	1.000000	0.514370	7.36539e+06	-40439.1	955.819	-29790.7	0.000000	0.000000	6.514942	0.029883	NaN	0.000000	0.001599	0.001614	28.1278	0.086730	0.002007	43.2126	49.6966	-166.722	-0.023694	0.513017	-0.566405	-0.567759	0.029883	43.2126	-0.566924	-2.911549E+7	-1.026361E-9	NaN
36	1.000000	0.522401	7.36539e+06	-40439.1	955.817	-29790.7	0.000000	0.000000	6.522974	0.046531	NaN	0.000000	0.001569	0.001585	28.1271	0.064711	0.001900	34.0658	110.384	-164.602	0.079318	0.521041	-0.558374	-0.559735	0.046531	34.0658	-0.559399	-2.291187E+7	-2.030871E-9	NaN
36	1.000000	0.530361	7.36539e+06	-40439.1	955.818	-29790.7	0.000000	0.000000	6.530933	-0.001247	NaN	0.000000	0.001597	0.001574	28.1267	0.076361	0.001892	40.3703	99.4596	-168.593	-0.015341	0.529102	-0.550414	-0.551674	-0.001247	40.3703	-0.550391	-1.719377E+7	7.251243E-11	NaN
36	1.000000	0.538375	7.36539e+06	-40439.1	955.819	-29790.7	0.000000	0.000000	6.538945	-0.026652	NaN	0.000000	0.001609	0.001579	28.127	0.065061	0.002185	29.7789	136.014	-167.509	0.016098	0.537071	-0.542400	-0.543705	-0.026652	29.7789	-0.541729	-1.304181E+7	2.043583E-9	NaN
36	1.000000	0.546393	7.36539e+06	-40439.1	955.819	-29790.7	0.000000	0.000000	6.546964	-0.017329	NaN	0.000000	0.001609	0.001649	28.1268	0.100111	0.002047	48.9007	143.99	-168.018	-0.081272	0.545112	-0.534382	-0.535663	-0.017329	48.9007	-0.534117	-1.022655E+7	1.694501E-9	NaN
36	1.000000	0.554422	7.36539e+06	-40439.1	955.819	-29790.7	0.000000	0.000000	6.554994	0.022222	NaN	0.000000	0.001615	0.001609	28.1266	0.031060	0.001872	16.5926	62.7134	-164.444	0.063515	0.553096	-0.526354	-0.527679	0.022222	16.5926	-0.527358	-8.23902e+06	-2.697108E-9	NaN
36	1.000000	0.562390	7.36539e+06	-40439.1	955.818	-29790.7	0.000000	0.000000	6.562960	-0.010530	NaN	0.000000	0.001601	0.001627	28.128	0.033594	0.002054	16.3571	-99.1311	-165.794	0.008674	0.561109	-0.518386	-0.519666	-0.010530	16.3571	-0.517903	-6.08736e+06	1.729844E-9	NaN
36	1.000000	0.570391	7.36539e+06	-40439.1	955.818	-29790.7	0.000000	0.000000	6.570962	-0.016802	NaN	0.000000	0.001586	0.001592	28.1276	0.057438	0.002001	28.7082	150.207	-166.785	-0.066341	0.569090	-0.510384	-0.511686	-0.016802	28.7082	-0.509945	-4.71686e+06	3.562102E-9	NaN
36	1.000000	0.578386	7.36539e+06	-40439.1	955.818	-29790.7	0.000000	0.000000	6.578958	0.019559	NaN	0.000000	0.001578	0.001617	28.1277	0.094924	0.002141	44.3384	-121.008	-163.218	0.040859	0.577047	-0.502389	-0.503728	0.019559	44.3384	-0.502720	-3.74074e+06	-5.228642E-9	NaN
36	1.000000	0.586409	7.36539e+06	-40439.1	955.818	-29790.7	0.000000	0.000000	6.586979	-0.025553	NaN	0.000000	0.001558	0.001583	28.1278	0.062231	0.002070	30.0562	161.946	-166.015	-0.112148	0.585146	-0.494367	-0.495629	-0.025553	30.0562	-0.493729	-2.80212e+06	9.119128E-9	NaN
36	1.000000	0.594387	7.36539e+06	-40439.1	955.818	-29790.7	0.000000	0.000000	6.594958	-0.006064	NaN	0.000000	0.001553	0.001604	28.1278	0.096160	0.001914	50.2508	84.1157	-165.464	-0.043073	0.593078	-0.486388	-0.487697	-0.006064	50.2508	-0.486298	-2.20618e+06	2.748416E-9	NaN
36	1.000000	0.602428	7.36539e+06	-40439.1	955.818	-29790.7	0.000000	0.000000	6.602997	-0.056360	NaN	0.000000	0.001580	0.001604	28.1269	0.125400	0.002052	61.108	27.316	-168.02	-0.044247	0.601154	-0.478348	-0.479621	-0.056360	61.108	-0.477656	-1.66996e+06	3.374921E-8	NaN
36	1.000000	0.610429	7.3654e+06	-40439.1	955.817	-29790.7	0.000000	0.000000	6.610998	-0.037416	NaN	0.000000	0.001611	0.001642	28.1271	0.067919	0.001890	35.9417	-94.0486	-163.172	-0.048387	0.609093	-0.470347	-0.471683	-0.037416	35.9417	-0.469566	-1.28624e+06	2.908932E-8	NaN
36	1.000000	0.618417	7.3654e+06	-40439.1	955.818	-29790.7	0.000000	0.000000	6.618988	0.000639	NaN	0.000000	0.001610	0.001646	28.127	0.023777	0.001981	12.001	-86.5603	-168.435	0.032903	0.617128	-0.462359	-0.463647	0.000639	12.001	-0.462398	-1.02027e+06	-6.262604E-10	NaN
36	1.000000	0.626435	7.3654e+06	-40439.1	955.818	-29790.7	0.000000	0.000000	6.627009	0.064029	NaN	0.000000	0.001605	0.001633	28.1268	0.039889	0.001961	20.3425	-174.843	-165.762	0.015303	0.625121	-0.454341	-0.455655	0.064029	20.3425	-0.456701	-848490	-7.546244E-8	NaN
36	1.000000	0.634449	7.3654e+06	-40439.1	955.818	-29790.7	0.000000	0.000000	6.635018	-0.041373	NaN	0.000000	0.001609	0.001623	28.128	0.012058	0.002069	5.829433	-103.929	-167.519	0.021068	0.633107	-0.446327	-0.447668	-0.041373	5.829433	-0.441004	-509955	8.113093E-8	NaN
36	1.000000	0.642422	7.3654e+06	-40439.1	955.819	-29790.7	0.000000	0.000000	6.642992	-0.012957	NaN	0.000000	0.001604	0.001622	28.129	0.088565	0.002042	43.3723	3.629267	-167.892	-0.100597	0.641086	-0.438354	-0.439690	-0.012957	43.3723	-0.438130	-464473	2.789537E-8	NaN
36	1.000000	0.650444	7.3654e+06	-40439.1	955.818	-29790.7	0.000000	0.000000	6.651013	-0.047077	NaN	0.000000	0.001573	0.001646	28.1288	0.056458	0.001930	29.2486	-37.5947	-167.182	-0.099058	0.649142	-0.430331	-0.431634	-0.047077	29.2486	-0.429124	-346473	1.358750E-7	NaN
36	1.000000	0.658423	7.3654e+06	-40439.1	955.818	-29790.7	0.000000	0.000000	6.658995	0.037014	NaN	0.000000	0.001566	0.001647	28.129	0.042516	0.001949	21.8139	-54.7058	-166.018	0.037435	0.657136	-0.422353	-0.423640	0.037014	21.8139	-0.423626	-289608	-1.278065E-7	NaN
36	1.000000	0.666446	7.3654e+06	-40439.1	955.82	-29790.7	0.000000	0.000000	6.667018	0.024123	NaN	0.000000	0.001580	0.001639	28.1294	0.039175	0.002020	19.3931	-8.621645	-165.635	0.012162	0.665176	-0.414330	-0.415599	0.024123	19.3931	-0.415263	-220388	-1.094556E-7	NaN
36	1.000000	0.674434	7.3654e+06	-40439.1	955.818	-29790.7	0.000000	0.000000	6.675003	-0.056683	NaN	0.000000	0.001600	0.001589	28.1287	0.083936	0.002009	41.7705	112.801	-165.312	-0.018826	0.673174	-0.406341	-0.407602	-0.056683	41.7705	-0.405324	-159168	3.561212E-7	NaN
36	1.000000	0.682463	7.3654e+06	-40439.1	955.819	-29790.7	0.000000	0.000000	6.683034	-0.011954	NaN	0.000000	0.001601	0.001601	28.128	0.059358	0.001942	30.5689	-154.338	-163.388	-0.060844	0.681146	-0.398312	-0.399630	-0.011954	30.5689	-0.398019	-125238	9.544914E-8	NaN
36	1.000000	0.690465	7.3654e+06	-40439.1	955.819	-29790.7	0.000000	0.000000	6.691037	0.020515	NaN	0.000000	0.001581	0.001621	28.1278	0.119027	0.002045	58.2063	-10.0815	-166.808	0.046914	0.689184	-0.390311	-0.391592	0.020515	58.2063	-0.390575	-98037.5	-2.092525E-7	NaN
36	1.000000	0.698461	7.3654e+06	-40439.1	955.819	-29790.7	0.000000	0.000000	6.699033	0.021909	NaN	0.000000	0.001579	0.001647	28.1275	0.154979	0.001963	78.9457	-132.28	-168.174	-0.007261	0.697141	-0.382315	-0.383635	0.021909	78.9457	-0.382523	-75175.7	-2.914315E-7	NaN
36	1.000000	0.706481	7.3654e+06	-40439.1	955.819	-29790.7	0.000000	0.000000	6.707053	0.009717	NaN	0.000000	0.001576	0.001615	28.1275	0.094607	0.002188	43.2302	98.429	-165.414	-0.024334	0.705162	-0.374294	-0.375614	0.009717	43.2302	-0.374463	-57589.7	-1.687212E-7	NaN
36	1.000000	0.714459	7.3654e+06	-40439.1	955.819	-29790.7	0.000000	0.000000	6.715029	-0.044752	NaN	0.000000	0.001573	0.001655	28.1271	0.052229	0.002188	23.8739	-124.479	-166.061	0.006697	0.713186	-0.366316	-0.367589	-0.044752	23.8739	-0.364910	-41952.7	1.066721E-6	NaN
36	1.000000	0.722470	7.3654e+06	-40439.1	955.818	-29790.7	0.000000	0.000000	6.723040	-0.023755	NaN	0.000000	0.001606	0.001547	28.1287	0.033070	0.001982	16.6886	-68.9096	-163.013	-0.005350	0.721145	-0.358305	-0.359630	-0.023755	16.6886	-0.357238	-32500.8	7.309194E-7	NaN
36	1.000000	0.730502	7.3654e+06	-40439.1	955.818	-29790.7	0.000000	0.000000	6.731073	-0.006827	NaN	0.000000	0.001553	0.001626	28.1291	0.098488	0.002028	48.5674	87.3597	-167.734	-0.043811	0.729132	-0.350274	-0.351643	-0.006827	48.5674	-0.350168	-25671	2.659403E-7	NaN
36	1.000000	0.738472	7.3654e+06	-40439.1	955.82	-29790.7	0.000000	0.000000	6.739044	0.007032	NaN	0.000000	0.001598	0.001601	28.1285	0.117300	0.001947	60.2402	89.9097	-167.145	-0.010062	0.737150	-0.342303	-0.343625	0.007032	60.2402	-0.342391	-19787.3	-3.553763E-7	NaN
36	1.000000	0.746477	7.3654e+06	-40439.1	955.818	-29790.7	0.000000	0.000000	6.747047	-0.026555	NaN	0.000000	0.001601	0.001594	28.1286	0.068679	0.002043	33.6164	-5.833520	-164.872	-0.006339	0.745172	-0.334298	-0.335603	-0.026555	33.6164	-0.333706	-14780	1.796658E-6	NaN
36	1.000000	0.754490	7.3654e+06	-40439.1	955.818	-29790.7	0.000000	0.000000	6.755059	-0.052219	NaN	0.000000	0.001617	0.001581	28.1285	0.089195	0.001944	45.8734	127.328	-167.681	-0.031131	0.753200	-0.326285	-0.327576	-0.052219	45.8734	-0.325432	-11180.8	4.670435E-6	NaN
36	1.000000	0.762449	7.3654e+06	-40439.1	955.818	-29790.7	0.000000	0.000000	6.763019	-0.036578	NaN	0.000000	0.001620	0.001559	28.1274	0.005247	0.001908	2.749367	75.5364	-164.446	-0.057830	0.761121	-0.318326	-0.319655	-0.036578	2.749367	-0.308348	-6260.36	5.842829E-6	NaN
36	1.000000	0.770481	7.3654e+06	-40439.1	955.818	-29790.7	0.000000	0.000000	6.771054	0.037732	NaN	0.000000	0.001613	0.001600	28.1262	0.077517	0.002110	36.7385	-100.147	-166.057	0.007110	0.769168	-0.310294	-0.311608	0.037732	36.7385	-0.311065	-6867.64	-5.494237E-6	NaN
36	1.000000	0.778478	7.3654e+06	-40439.1	955.818	-29790.7	0.000000	0.000000	6.779049	-0.020282	NaN	0.000000	0.001577	0.001583	28.1261	0.020116	0.002055	9.790129	-140.97	-168.438	-0.049145	0.777177	-0.302297	-0.303599	-0.020282	9.790129	-0.300743	-4827.23	4.201653E-6	NaN
36	1.000000	0.786480	7.3654e+06	-40439.1	955.819	-29790.7	0.000000	0.000000	6.787047	-0.097347	NaN	0.000000	0.001608	0.001603	28.1264	0.062450	0.001968	31.7382	-62.7591	-165.398	-0.035646	0.785201	-0.294296	-0.295575	-0.097347	31.7382	-0.291996	-3574.2	2.723605E-5	NaN
36	1.000000	0.794494	7.3654e+06	-40439.1	955.818	-29790.7	0.000000	0.000000	6.795065	-0.012437	NaN	0.000000	0.001553	0.001612	28.1258	0.120154	0.002024	59.3617	-85.5393	-166.71	-0.012038	0.793189	-0.286281	-0.287587	-0.012437	59.3617	-0.286124	-2918.49	4.261284E-6	NaN
36	1.000000	0.802527	7.3654e+06	-40439.1	955.818	-29790.7	0.000000	0.000000	6.803098	-0.000553	NaN	0.000000	0.001592	0.001616	28.1273	0.092540	0.002023	45.7383	-150.578	-167.165	-0.018452	0.801161	-0.278249	-0.279615	-0.000553	45.7383	-0.278239	-2220.2	2.491958E-7	NaN
36	1.000000	0.810514	7.3654e+06	-40439.1	955.818	-29790.7	0.000000	0.000000	6.811085	-0.000267	NaN	0.000000	0.001570	0.001588	28.1281	0.057212	0.001952	29.3141	129.503	-164.083	-0.011283	0.809200	-0.270261	-0.271576	-0.000267	29.3141	-0.270255	-1680.41	1.587205E-7	NaN
36	1.000000	0.818499	7.3654e+06	-40439.1	955.819	-29790.7	0.000000	0.000000	6.819069	-0.030626	NaN	0.000000	0.001625	0.001540	28.1271	0.084392	0.001887	44.7258	-140.631	-164.481	0.021045	0.817168	-0.262276	-0.263607	-0.030626	44.7258	-0.261763	-1247.14	2.455694E-5	NaN
36	1.000000	0.826534	7.3654e+06	-40439.1	955.819	-29790.7	0.000000	0.000000	6.827103	-0.066519	NaN	0.000000	0.001621	0.001602	28.1273	0.003851	0.002016	1.909934	-170.839	-164.519	0.022848	0.825160	-0.254241	-0.255615	-0.066519	1.909934	-0.228120	-373.939	0.000178	NaN
36	1.000000	0.834499	7.3654e+06	-40439.1	955.819	-29790.7	0.000000	0.000000	6.835069	-0.043887	NaN	0.000000	0.001564	0.001598	28.1278	0.036935	0.001909	19.3518	6.829302	-165.372	-0.049689	0.833194	-0.246276	-0.247581	-0.043887	19.3518	-0.244575	-677.404	6.478762E-5	NaN
36	1.000000	0.842532	7.3654e+06	-40439.1	955.819	-29790.7	0.000000	0.000000	6.843105	0.026177	NaN	0.000000	0.001598	0.001575	28.1263	0.123368	0.002057	59.9636	-13.4413	-167.042	-0.050850	0.841205	-0.238243	-0.239571	0.026177	59.9636	-0.238571	-546.02	-4.794168E-5	NaN
36	1.000000	0.850493	7.3654e+06	-40439.1	955.819	-29790.7	0.000000	0.000000	6.851061	-0.082628	NaN	0.000000	0.001613	0.001588	28.1265	0.015084	0.001967	7.668400	42.2817	-169.96	-0.085003	0.849231	-0.230283	-0.231544	-0.082628	7.668400	-0.222201	-301.167	0.000274	NaN
36	1.000000	0.858508	7.3654e+06	-40439.1	955.818	-29790.7	0.000000	0.000000	6.859080	0.025606	NaN	0.000000	0.001620	0.001646	28.1257	0.101696	0.001974	51.5297	0.709743	-162.891	0.002267	0.857245	-0.222268	-0.223531	0.025606	51.5297	-0.222641	-306.06	-8.366206E-5	NaN
36	1.000000	0.866530	7.3654e+06	-40439.1	955.819	-29790.7	0.000000	0.000000	6.867102	0.028441	NaN	0.000000	0.001652	0.001628	28.1259	0.033731	0.002119	15.9202	-137.376	-163.213	0.009574	0.865231	-0.214246	-0.215544	0.028441	15.9202	-0.215586	-236.009	-0.000121	NaN
36	1.000000	0.874512	7.3654e+06	-40439.1	955.82	-29790.7	0.000000	0.000000	6.875083	-0.024660	NaN	0.000000	0.001683	0.001627	28.1268	0.098970	0.002002	49.4439	126.298	-170.286	-0.056735	0.873193	-0.206263	-0.207583	-0.024660	49.4439	-0.205889	-164.456	0.000150	NaN
36	1.000000	0.882540	7.3654e+06	-40439.1	955.818	-29790.7	0.000000	0.000000	6.883108	-0.058222	NaN	0.000000	0.001689	0.001634	28.1275	0.037304	0.001884	19.8045	-46.0877	-166.172	-0.062740	0.881217	-0.198236	-0.199558	-0.058222	19.8045	-0.196031	-113.31	0.000514	NaN
36	1.000000	0.890521	7.3654e+06	-40439.1	955.819	-29790.7	0.000000	0.000000	6.891092	0.001665	NaN	0.000000	0.001682	0.001604	28.1276	0.065357	0.002022	32.3148	-110.415	-162.292	-0.051063	0.889255	-0.190255	-0.191521	0.001665	32.3148	-0.190293	-90.9761	-1.830667E-5	NaN
36	1.000000	0.898516	7.3654e+06	-40439.1	955.819	-29790.7	0.000000	0.000000	6.899088	0.015793	NaN	0.000000	0.001665	0.001640	28.1271	0.063319	0.001878	33.713	-119.011	-163.586	-0.002675	0.897210	-0.182259	-0.183565	0.015793	33.713	-0.182611	-67.5725	-0.000234	NaN
36	1.000000	0.906543	7.3654e+06	-40439.1	955.819	-29790.7	0.000000	0.000000	6.907118	0.096006	NaN	0.000000	0.001672	0.001609	28.128	0.110329	0.002021	54.5936	-121.774	-163.923	0.119867	0.905232	-0.174233	-0.175543	0.096006	54.5936	-0.175552	-51.2214	-0.001874	NaN
36	1.000000	0.914586	7.3654e+06	-40439.1	955.819	-29790.7	0.000000	0.000000	6.915156	-0.026964	NaN	0.000000	0.001615	0.001612	28.1284	0.040206	0.002051	19.6014	-111.166	-167.629	-0.023238	0.913234	-0.166190	-0.167541	-0.026964	19.6014	-0.165158	-33.8128	0.000797	NaN
36	1.000000	0.922572	7.3654e+06	-40439.1	955.819	-29790.7	0.000000	0.000000	6.923141	-0.060806	NaN	0.000000	0.001569	0.001623	28.1273	0.077924	0.002030	38.3809	-171.046	-168.782	-0.030086	0.921298	-0.158203	-0.159478	-0.060806	38.3809	-0.157015	-24.2522	0.002507	NaN
36	1.000000	0.930549	7.3654e+06	-40439.1	955.818	-29790.7	0.000000	0.000000	6.931121	0.007500	NaN	0.000000	0.001554	0.001672	28.1271	0.073832	0.002091	35.3075	-178.37	-168.184	-0.025655	0.929217	-0.150226	-0.151558	0.007500	35.3075	-0.150386	-18.4093	-0.000407	NaN
36	1.000000	0.938543	7.3654e+06	-40439.1	955.819	-29790.7	0.000000	0.000000	6.939114	0.009111	NaN	0.000000	0.001673	0.001675	28.1273	0.032539	0.002136	15.237	177.802	-164.354	-0.012949	0.937199	-0.142233	-0.143577	0.009111	15.237	-0.142681	-13.2778	-0.000686	NaN
36	1.000000	0.946512	7.3654e+06	-40439.1	955.819	-29790.7	0.000000	0.000000	6.947081	-0.032532	NaN	0.000000	0.001696	0.001635	28.1271	0.062214	0.002059	30.2214	-16.9363	-169.083	-0.101057	0.945242	-0.134264	-0.135534	-0.032532	30.2214	-0.133457	-8.886868	0.003661	NaN
36	1.000000	0.954581	7.3654e+06	-40439.1	955.819	-29790.7	0.000000	0.000000	6.955152	-0.002811	NaN	0.000000	0.001713	0.001631	28.1274	0.062505	0.001952	32.0271	87.9596	-164.139	-0.009798	0.953170	-0.126195	-0.127605	-0.002811	32.0271	-0.126129	-6.401502	0.000439	NaN
36	1.000000	0.962553	7.3654e+06	-40439.1	955.819	-29790.7	0.000000	0.000000	6.963125	0.021582	NaN	0.000000	0.001683	0.001658	28.128	0.030043	0.002018	14.8855	150.751	-163.445	0.000847	0.961233	-0.118222	-0.119543	0.021582	14.8855	-0.119310	-4.678741	-0.004613	NaN
36	1.000000	0.970580	7.3654e+06	-40439.1	955.819	-29790.7	0.000000	0.000000	6.971150	-0.010456	NaN	0.000000	0.001675	0.001638	28.1289	0.099238	0.001997	49.7042	174.904	-166.348	-0.032528	0.969234	-0.110196	-0.111541	-0.010456	49.7042	-0.110038	-3.010756	0.003473	NaN
36	1.000000	0.978573	7.3654e+06	-40439.1	955.819	-29790.7	0.000000	0.000000	6.979144	0.008121	NaN	0.000000	0.001689	0.001633	28.1282	0.032168	0.001940	16.5773	-152.493	-166.529	0.027523	0.977266	-0.102203	-0.103509	0.008121	16.5773	-0.102570	-2.081449	-0.003902	NaN
36	1.000000	0.986577	7.3654e+06	-40439.1	955.819	-29790.7	0.000000	0.000000	6.987148	-0.004636	NaN	0.000000	0.001664	0.001658	28.128	0.099430	0.001999	49.7517	150.077	-164.875	-0.045392	0.985278	-0.094199	-0.095498	-0.004636	49.7517	-0.094129	-1.347441	0.003441	NaN
36	1.000000	0.994592	7.3654e+06	-40439.1	955.818	-29790.7	0.000000	0.000000	6.995162	-0.034689	NaN	0.000000	0.001679	0.001669	28.1289	0.113545	0.001971	57.6208	100.911	-166.012	-0.127879	0.993256	-0.086183	-0.087519	-0.034689	57.6208	-0.085732	-0.855752	0.040536	NaN
36	1.000000	1.002570	7.3654e+06	-40439.1	955.819	-29790.7	0.000000	0.000000	7.003141	-0.008158	NaN	0.000000	0.001669	0.001634	28.1267	0.041538	0.002092	19.8567	177.965	-162.88	-0.058712	1.001290	-0.078206	-0.079486	-0.008158	19.8567	-0.077897	-0.547943	0.014888	NaN
36	1.000000	1.010583	7.3654e+06	-40439.1	955.819	-29790.7	0.000000	0.000000	7.011152	-0.039602	NaN	0.000000	0.001669	0.001660	28.127	0.073225	0.002039	35.9064	-60.6965	-164.929	-0.026312	1.009282	-0.070193	-0.071494	-0.039602	35.9064	-0.069366	-0.327990	0.120741	NaN
36	1.000000	1.018608	7.3654e+06	-40439.1	955.819	-29790.7	0.000000	0.000000	7.019176	-0.092924	NaN	0.000000	0.001690	0.001663	28.1273	0.107556	0.002059	52.2486	175.686	-166.205	-0.093439	1.017285	-0.062167	-0.063490	-0.092924	52.2486	-0.060833	-0.190258	0.488408	NaN
36	1.000000	1.026558	7.3654e+06	-40439.1	955.818	-29790.7	0.000000	0.000000	7.027125	-0.089277	NaN	0.000000	0.001656	0.001618	28.1269	0.027944	0.002068	13.5144	89.1465	-165.316	-0.111952	1.025305	-0.054218	-0.055471	-0.089277	13.5144	-0.049263	-0.086681	1.029947	NaN
36	1.000000	1.034601	7.3654e+06	-40439.1	955.818	-29790.7	0.000000	0.000000	7.035206	0.805478	NaN	0.000000	0.001658	0.001636	28.1272	0.866682	0.001917	452.001	11.5668	-165.853	0.545154	1.033309	-0.046174	-0.047466	0.805478	452.001	-0.047511	-0.076675	-10.5052	NaN
36	1.000000	1.042604	7.3654e+06	-40439.1	955.818	-29790.7	0.000000	0.000000	7.043339	3.996893	NaN	0.000000	0.001690	0.001686	28.1273	2.180169	0.002038	1069.6	14.1462	-170.673	3.542736	1.041287	-0.038172	-0.039489	3.996893	1069.6	-0.040974	-0.048416	-82.5533	NaN
36	1.000000	1.050578	7.3654e+06	-40439.1	955.819	-29790.7	0.000000	0.000000	7.051427	6.773436	NaN	0.000000	0.001588	0.001675	28.1273	2.500300	0.001931	1294.52	14.8394	-172.648	6.583977	1.049300	-0.030198	-0.031475	6.773436	1294.52	-0.034122	-0.030181	-224.43	NaN
36	1.000000	1.058598	7.3654e+06	-40439.1	955.818	-29790.7	0.000000	0.000000	7.059517	8.467044	NaN	0.000000	0.001577	0.001661	28.1271	2.824958	0.001898	1488.63	10.2251	-168.159	8.252668	1.057254	-0.022178	-0.023522	8.467044	1488.63	-0.026444	-0.018415	-459.8	NaN
36	2.000000	1.063264	7.3654e+06	-40439.1	955.819	-29790.7	0.000000	0.000000	7.064172	8.212849	NaN	0.000000	0.001561	0.001637	28.1268	2.925953	0.001907	1534.22	7.604846	-167.775	8.238973	1.063002	-0.017512	-0.017774	8.212849	1534.22	-0.021527	-0.013735	-597.961	NaN
36	2.000000	1.065223	7.3654e+06	-40439.1	955.819	-29790.7	0.000000	0.000000	7.066128	8.116381	NaN	0.000000	0.001539	0.001672	28.1267	3.093432	0.001926	1605.87	7.608684	-171.145	8.142781	1.064899	-0.015553	-0.015876	8.116381	1605.87	-0.019343	-0.012086	-671.546	NaN
36	2.000000	1.067219	7.3654e+06	-40439.1	955.819	-29790.7	0.000000	0.000000	7.068118	7.964222	NaN	0.000000	0.001566	0.001647	28.1261	3.077174	0.002028	1517.55	8.848339	-169.679	8.030504	1.066898	-0.013556	-0.013877	7.964222	1517.55	-0.017492	-0.010828	-735.503	NaN
36	2.000000	1.069178	7.3654e+06	-40439.1	955.818	-29790.7	0.000000	0.000000	7.070050	7.312500	NaN	0.000000	0.001529	0.001679	28.1254	3.023648	0.002186	1382.97	10.679	-167.605	7.486258	1.068859	-0.011597	-0.011916	7.312500	1382.97	-0.015563	-0.009615	-760.512	NaN
36	2.000000	1.071229	7.3654e+06	-40439.1	955.819	-29790.7	0.000000	0.000000	7.071918	2.864371	NaN	0.000000	0.001544	0.001697	28.1256	1.899677	0.002150	883.556	29.1526	-170.403	4.714034	1.070896	-0.009546	-0.009880	2.864371	883.556	-0.011978	-0.007516	-381.111	NaN
36	2.000000	1.073176	7.3654e+06	-40439.1	955.819	-29790.7	0.000000	0.000000	7.073802	1.318524	NaN	0.000000	0.001545	0.001675	28.1256	1.526361	0.001962	778.057	7.461007	-167.136	1.262628	1.072881	-0.007599	-0.007894	1.318524	778.057	-0.008870	-0.005738	-229.788	NaN
36	2.000000	1.075154	7.3654e+06	-40439.1	955.82	-29790.7	0.000000	0.000000	7.075795	1.695226	NaN	0.000000	0.001558	0.001656	28.1256	1.563872	0.002040	766.534	10.3043	-167.508	1.642680	1.074892	-0.005622	-0.005883	1.695226	766.534	-0.007280	-0.004807	-352.627	NaN
36	2.000000	1.077166	7.3654e+06	-40439.1	955.82	-29790.7	0.000000	0.000000	7.077817	1.936820	NaN	0.000000	0.001635	0.001700	28.1266	1.747162	0.002020	865.123	10.659	-168.496	2.054971	1.076874	-0.003610	-0.003902	1.936820	865.123	-0.005289	-0.003597	-538.417	NaN
36	2.000000	1.079160	7.3654e+06	-40439.1	955.819	-29790.7	0.000000	0.000000	7.079818	2.108483	NaN	0.000000	0.001644	0.001683	28.1265	1.754733	0.001935	907.033	9.839229	-167.22	2.136784	1.078868	-0.001615	-0.001908	2.108483	907.033	-0.003359	-0.002359	-893.774	NaN
36	2.000000	1.081171	7.3654e+06	-40439.1	955.819	-29790.7	0.000000	0.000000	7.081810	1.659233	NaN	0.000000	0.001628	0.001687	28.1265	1.882503	0.001932	974.433	12.2001	-166.81	1.654226	1.080910	0.000395	0.000134	1.659233	974.433	-0.000882	-0.000648	-2560.86	NaN
36	2.000000	1.083143	7.3654e+06	-40439.1	955.819	-29790.7	0.000000	0.000000	7.083801	2.100507	NaN	0.000000	0.001655	0.001684	28.1267	2.242905	0.001939	1156.91	11.1203	-168.433	2.083177	1.082812	0.002368	0.002037	2.100507	1156.91	0.001006	0.000767	2739.73	38173.8
36	2.000000	1.085160	7.3654e+06	-40439.1	955.818	-29790.7	0.000000	0.000000	7.085841	2.674457	NaN	0.000000	0.001578	0.001707	28.1268	2.732719	0.002124	1286.74	16.88	-169.209	2.573305	1.084861	0.004384	0.004086	2.674457	1286.74	0.002825	0.002233	1197.56	24876.7
36	2.000000	1.087134	7.3654e+06	-40439.1	955.819	-29790.7	0.000000	0.000000	7.087854	3.617407	NaN	0.000000	0.001599	0.001697	28.1259	3.194768	0.001808	1767.43	6.380615	-168.825	3.635517	1.086821	0.006359	0.006046	3.617407	1767.43	0.004824	0.003973	910.466	25618.2
36	2.000000	1.089137	7.3654e+06	-40439.1	955.819	-29790.7	0.000000	0.000000	7.089895	4.531904	NaN	0.000000	0.001582	0.001650	28.1251	3.722490	0.001921	1937.31	9.725432	-171.154	4.448336	1.088879	0.008362	0.008103	4.531904	1937.31	0.006607	0.005649	802.307	23550.6
36	2.000000	1.091149	7.3654e+06	-40439.1	955.819	-29790.7	0.000000	0.000000	7.091959	5.796188	NaN	0.000000	0.001596	0.001660	28.1258	4.388926	0.001895	2316.06	13.6541	-172.17	5.663057	1.090792	0.010374	0.010017	5.796188	2316.06	0.008497	0.007559	766.844	24339.1
36	2.000000	1.093132	7.3654e+06	-40439.1	955.819	-29790.7	0.000000	0.000000	7.093988	6.923489	NaN	0.000000	0.001571	0.001685	28.1264	4.981196	0.001961	2540.09	10.465	-169.831	6.862540	1.092836	0.012356	0.012060	6.923489	2540.09	0.010312	0.009530	726.463	23772.1
36	2.000000	1.095133	7.3654e+06	-40439.1	955.82	-29790.7	0.000000	0.000000	7.096054	8.520666	NaN	0.000000	0.001567	0.001690	28.1262	6.513324	0.001918	3395.44	10.4355	-169.593	8.144664	1.094824	0.014357	0.014048	8.520666	3395.44	0.012475	0.012064	706.259	28243.3
36	2.000000	1.097136	7.3654e+06	-40439.1	955.82	-29790.7	0.000000	0.000000	7.098140	10.5341	NaN	0.000000	0.001567	0.001631	28.1279	8.512205	0.001851	4598.77	11.2495	-174.196	10.194	1.096816	0.016360	0.016041	10.5341	4598.77	0.014642	0.014811	711.235	34524.1
36	2.000000	1.099104	7.3654e+06	-40439.1	955.82	-29790.7	0.000000	0.000000	7.100175	12.1542	NaN	0.000000	0.001567	0.001650	28.1273	10.5739	0.001762	5999.4	11.8125	-174.896	11.9159	1.098806	0.018328	0.018031	12.1542	5999.4	0.016809	0.017774	683.826	41114
36	2.000000	1.101107	7.3654e+06	-40439.1	955.82	-29790.7	0.000000	0.000000	7.102320	15.618	NaN	0.000000	0.001598	0.001670	28.1272	13.4147	0.001832	7324.06	9.054809	-177.15	15.1324	1.100766	0.020331	0.019990	15.618	7324.06	0.018732	0.020589	758.564	46634.7
36	2.000000	1.103137	7.3654e+06	-40439.1	955.82	-29790.7	0.000000	0.000000	7.104581	21.2511	NaN	0.000000	0.001595	0.001667	28.1272	16.4332	0.001825	9004.12	9.051478	-178.28	20.3638	1.102749	0.022361	0.021973	21.2511	9004.12	0.020591	0.023480	905.084	53686.9
36	2.000000	1.105088	7.3654e+06	-40439.1	955.82	-29790.7	0.000000	0.000000	7.106927	30.8437	NaN	0.000000	0.001606	0.001657	28.1273	18.1102	0.001641	11036.7	5.161050	-177.243	29.7161	1.104766	0.024313	0.023991	30.8437	11036.7	0.022217	0.026146	1179.67	62360.3
36	2.000000	1.107101	7.3654e+06	-40439.1	955.82	-29790.7	0.000000	0.000000	7.109335	40.4749	NaN	0.000000	0.001583	0.001642	28.1263	20.9777	0.001787	11741.7	3.062347	-175.13	39.0916	1.106736	0.026325	0.025960	40.4749	11741.7	0.023740	0.028763	1407.19	63254.2
36	2.000000	1.109071	7.3654e+06	-40439.1	955.82	-29790.7	0.000000	0.000000	7.111653	48.9199	NaN	0.000000	0.001600	0.001624	28.1257	22.5932	0.001869	12085.8	7.306590	-179.028	46.8944	1.108760	0.028296	0.027984	48.9199	12085.8	0.025260	0.031490	1553.51	62224.8
36	2.000000	1.111051	7.3654e+06	-40439.1	955.818	-29790.7	0.000000	0.000000	7.113854	54.3265	NaN	0.000000	0.001556	0.001664	28.1264	24.4391	0.001838	13295.1	4.384504	-176.448	52.6612	1.110790	0.030275	0.030014	54.3265	13295.1	0.027211	0.035160	1545.11	64779.8
36	2.000000	1.113087	7.3654e+06	-40439.1	955.819	-29790.7	0.000000	0.000000	7.116317	64.7063	NaN	0.000000	0.001533	0.001694	28.1259	26.7063	0.001760	15176.4	3.236751	-177.75	62.2704	1.112817	0.032311	0.032041	64.7063	15176.4	0.029113	0.038926	1662.29	70278.4
36	2.000000	1.115038	7.3654e+06	-40439.1	955.82	-29790.7	0.000000	0.000000	7.119023	83.0825	NaN	0.000000	0.001559	0.001674	28.1254	28.6643	0.001692	16944.2	4.590101	-179.089	80.726	1.114711	0.034262	0.033935	83.0825	16944.2	0.030585	0.041964	1979.85	75571.3
36	2.000000	1.117117	7.3654e+06	-40439.1	955.821	-29790.7	0.000000	0.000000	7.121278	87.3607	NaN	0.000000	0.001547	0.001666	28.1269	31.2694	0.001834	17045.3	4.805643	179.936	88.1466	1.116777	0.036342	0.036002	87.3607	17045.3	0.032498	0.046080	1895.85	72547.5
36	2.000000	1.119111	7.3654e+06	-40439.1	955.819	-29790.7	0.000000	0.000000	7.123730	98.5152	NaN	0.000000	0.001584	0.001655	28.1265	32.3717	0.001705	18988.9	2.806019	-178.398	97.4011	1.118751	0.038335	0.037975	98.5152	18988.9	0.034444	0.050459	1952.37	77233.1
36	2.000000	1.121072	7.3654e+06	-40439.1	955.819	-29790.7	0.000000	0.000000	7.125808	101.341	NaN	0.000000	0.001624	0.001669	28.1281	34.5487	0.001770	19524.4	4.735443	178.229	100.814	1.120773	0.040296	0.039997	101.341	19524.4	0.036403	0.055064	1840.41	76017.9
36	2.000000	1.123071	7.3654e+06	-40439.1	955.819	-29790.7	0.000000	0.000000	7.128513	118.532	NaN	0.000000	0.001658	0.001676	28.1269	36.6662	0.001847	19855.1	5.235201	178.666	115.607	1.122735	0.042295	0.041959	118.532	19855.1	0.037818	0.058510	2025.83	74994.4
36	2.000000	1.125090	7.3654e+06	-40439.1	955.819	-29790.7	0.000000	0.000000	7.130793	124.857	NaN	0.000000	0.001632	0.001696	28.1262	38.328	0.001816	21105.2	3.159874	179.382	123.105	1.124812	0.044315	0.044036	124.857	21105.2	0.039878	0.063713	1959.68	76392
36	2.000000	1.127104	7.3654e+06	-40439.1	955.82	-29790.7	0.000000	0.000000	7.133523	142.282	NaN	0.000000	0.001664	0.001672	28.1244	40.3124	0.001808	22301.5	1.115869	-178.973	142.723	1.126797	0.046329	0.046021	142.282	22301.5	0.041544	0.068079	2089.95	78090.9
36	2.000000	1.129036	7.3654e+06	-40439.1	955.819	-29790.7	0.000000	0.000000	7.136199	160.403	NaN	0.000000	0.001660	0.001631	28.1246	42.3647	0.001857	22816.4	7.293245	174.816	158.867	1.128847	0.048260	0.048072	160.403	22816.4	0.042988	0.071977	2228.52	77700.3
36	2.000000	1.131019	7.3654e+06	-40439.1	955.82	-29790.7	0.000000	0.000000	7.138812	175.718	NaN	0.000000	0.001637	0.001651	28.1245	43.8494	0.001713	25592.1	2.638866	178.044	171.058	1.130639	0.050244	0.049863	175.718	25592.1	0.045094	0.077855	2257	83798.4
36	2.000000	1.133017	7.3654e+06	-40439.1	955.82	-29790.7	0.000000	0.000000	7.141624	195.545	NaN	0.000000	0.001622	0.001641	28.1247	46.571	0.001913	24344.9	7.333028	173.999	190.731	1.132711	0.052241	0.051936	195.545	24344.9	0.046217	0.081080	2411.76	78113.1
36	2.000000	1.135051	7.3654e+06	-40439.1	955.82	-29790.7	0.000000	0.000000	7.144294	211.019	NaN	0.000000	0.001633	0.001694	28.1244	48.4922	0.001762	27518.5	8.613987	171.272	209.561	1.134780	0.054276	0.054004	211.019	27518.5	0.048524	0.087907	2400.48	84798.2
36	2.000000	1.137084	7.3654e+06	-40439.1	955.82	-29790.7	0.000000	0.000000	7.146997	227.321	NaN	0.000000	0.001634	0.001686	28.1252	51.6906	0.001929	26797.5	7.274429	175.297	228.042	1.136661	0.056309	0.055886	227.321	26797.5	0.049946	0.092247	2464.26	80610.2
36	2.000000	1.139018	7.3654e+06	-40439.1	955.82	-29790.7	0.000000	0.000000	7.148914	226.902	NaN	0.000000	0.001633	0.001763	28.1251	51.7302	0.001701	30417.1	5.387586	173.454	224.268	1.138683	0.058243	0.057908	226.902	30417.1	0.052648	0.100773	2251.6	87542.3
36	2.000000	1.141002	7.3654e+06	-40439.1	955.82	-29790.7	0.000000	0.000000	7.151814	249.196	NaN	0.000000	0.001635	0.001688	28.1247	54.1003	0.001860	29086.1	3.373228	176.449	245.743	1.140776	0.060227	0.060001	249.196	29086.1	0.053801	0.104523	2384.12	82196.2
36	2.000000	1.143069	7.3654e+06	-40439.1	955.82	-29790.7	0.000000	0.000000	7.154799	271.541	NaN	0.000000	0.001609	0.001631	28.1253	56.0237	0.001719	32594.2	4.941560	173.608	270.148	1.142723	0.062293	0.061948	271.541	32594.2	0.056045	0.112009	2424.28	88978.7
36	2.000000	1.144956	7.3654e+06	-40439.1	955.82	-29790.7	0.000000	0.000000	7.157334	287.3	NaN	0.000000	0.001616	0.001679	28.1251	56.1184	0.001847	30377.8	0.862300	178.789	280.726	1.144715	0.064181	0.063940	287.3	30377.8	0.057088	0.115573	2485.87	81639.6
36	2.000000	1.146934	7.3654e+06	-40439.1	955.819	-29790.7	0.000000	0.000000	7.160195	308.784	NaN	0.000000	0.001615	0.001725	28.1238	60.4075	0.001910	31632.7	5.312264	173.936	301.357	1.146672	0.066159	0.065897	308.784	31632.7	0.058837	0.121673	2537.83	82853.8
36	2.000000	1.149014	7.3654e+06	-40439.1	955.82	-29790.7	0.000000	0.000000	7.163230	332.024	NaN	0.000000	0.001624	0.001785	28.1244	60.5014	0.001734	34887.4	6.558366	171.856	329.205	1.148636	0.068238	0.067861	332.024	34887.4	0.061100	0.129784	2558.29	88477.1
36	2.000000	1.151009	7.3654e+06	-40439.1	955.82	-29790.7	0.000000	0.000000	7.166175	355.141	NaN	0.000000	0.001644	0.001750	28.124	62.9803	0.001723	36549.2	4.252003	174.841	352.325	1.150577	0.070233	0.069801	355.141	36549.2	0.062946	0.136583	2600.19	90355.1
36	2.000000	1.153140	7.3654e+06	-40439.1	955.82	-29790.7	0.000000	0.000000	7.169040	372.984	NaN	0.000000	0.001641	0.001807	28.1245	66.2076	0.001760	37627.5	8.115972	170.069	376.79	1.152730	0.072365	0.071955	372.984	37627.5	0.064931	0.144080	2588.74	90568.5
36	2.000000	1.154972	7.3654e+06	-40439.1	955.82	-29790.7	0.000000	0.000000	7.172058	401.866	NaN	0.000000	0.001609	0.001772	28.1239	66.8559	0.001880	35552.7	4.198370	174.211	395.837	1.154541	0.074197	0.073766	401.866	35552.7	0.065719	0.147112	2731.71	84688
36	2.000000	1.156978	7.3654e+06	-40439.1	955.82	-29790.7	0.000000	0.000000	7.174866	421.393	NaN	0.000000	0.001601	0.001778	28.1255	69.2915	0.001821	38042.5	6.224917	171.781	418.207	1.156665	0.076202	0.075890	421.393	38042.5	0.067895	0.155629	2707.68	88104.4
36	2.000000	1.158904	7.3654e+06	-40439.1	955.82	-29790.7	0.000000	0.000000	7.177638	441.973	NaN	0.000000	0.001595	0.001759	28.1255	69.4975	0.001878	37000	2.699445	174.983	434.534	1.158671	0.078129	0.077895	441.973	37000	0.069170	0.160726	2749.85	84320
36	2.000000	1.160492	7.3654e+06	-40439.1	955.819	-29790.7	0.000000	0.000000	7.179871	457.678	NaN	0.000000	0.001578	0.001751	28.0859	71.6419	0.001734	41323.9	4.312773	-7.394131	451.016	1.160214	0.079716	0.079438	457.678	41323.9	0.071410	0.169869	2694.29	91604.5