File: remote_trans/data/nanoindenter/0828-1/data/Data_2025-08-06,11h17m57s/2025-07-22_16-23-58_1_284.txt
2025-07-22, 16:23:58, 1
Index	Phase	Displacement	Time	Pos X	Pos Y	Pos Z	Rot A	Rot B	Piezo Z	Force A	Force B	Gripper	Voltage A	Voltage B	Temperature	Amplitude force	Amplitude pos	Stiffness	Phase shift	Phase excitation	Force A raw	Displacement raw	HMax	HMax raw	Real Force	Real Stiffness	Contact Depth	Area	Hardness	Reduced Mod.
[#]	[#]	[um]	[s]	[um]	[um]	[um]	[m°]	[m°]	[um]	[uN]	[uN]	[V]	[V]	[V]	[°C]	[uN]	[um]	[N/m]	[°]	[°]	[uN]	[um]	[um]	[um]	[uN]	[N/m]	[um]	[um^2]	[MPa]	[MPa]
284	1.000000	0.002669	7.36783e+06	-52839.1	955.818	-29748.4	0.000000	0.000000	6.002814	-0.067673	NaN	0.000000	0.001524	0.001733	28.0809	0.095505	0.001062	89.9188	73.2144	-164.098	-0.070916	0.001388	-1.101415	-1.102696	-0.067673	89.9188	-1.100850	-5.146145E+14	1.315023E-16	NaN
284	1.000000	0.012703	7.36783e+06	-52839.1	955.819	-29748.4	0.000000	0.000000	6.012850	-0.011179	NaN	0.000000	0.001570	0.001735	28.0805	0.054548	0.001260	43.3018	107.871	16.4572	0.074865	0.011254	-1.091380	-1.092830	-0.011179	43.3018	-1.091187	-3.817218E+14	2.928621E-17	NaN
284	1.000000	0.022607	7.36783e+06	-52839.1	955.818	-29748.4	0.000000	0.000000	6.022752	-0.060449	NaN	0.000000	0.001594	0.001738	28.0806	0.054340	0.001630	33.3311	126.126	-173.578	-0.018719	0.021311	-1.081477	-1.082773	-0.060449	33.3311	-1.080117	-2.710741E+14	2.229968E-16	NaN
284	1.000000	0.032622	7.36783e+06	-52839.1	955.819	-29748.4	0.000000	0.000000	6.032766	-0.084720	NaN	0.000000	0.001544	0.001719	28.0808	0.095818	0.001924	49.795	-162.571	17.7499	-0.022551	0.031229	-1.071462	-1.072855	-0.084720	49.795	-1.070186	-1.993823E+14	4.249144E-16	NaN
284	1.000000	0.042601	7.36783e+06	-52839.1	955.818	-29748.4	0.000000	0.000000	6.042746	-0.045054	NaN	0.000000	0.001592	0.001665	28.0805	0.087605	0.002010	43.5744	62.914	-163.184	-0.071443	0.041286	-1.061483	-1.062798	-0.045054	43.5744	-1.060708	-1.487069E+14	3.029725E-16	NaN
284	1.000000	0.052624	7.36783e+06	-52839.1	955.819	-29748.4	0.000000	0.000000	6.052771	-0.012719	NaN	0.000000	0.001575	0.001688	28.0809	0.091640	0.001989	46.085	-144.325	14.5402	0.050164	0.051257	-1.051460	-1.052827	-0.012719	46.085	-1.051253	-1.109833E+14	1.146008E-16	NaN
284	1.000000	0.062587	7.36783e+06	-52839.1	955.818	-29748.4	0.000000	0.000000	6.062733	-0.050667	NaN	0.000000	0.001555	0.001701	28.081	0.125322	0.001893	66.2136	-127.931	-168.478	-0.017673	0.061316	-1.041496	-1.042768	-0.050667	66.2136	-1.040922	-8.060682E+13	6.285748E-16	NaN
284	1.000000	0.072614	7.36783e+06	-52839.1	955.82	-29748.4	0.000000	0.000000	6.072764	0.052531	NaN	0.000000	0.001547	0.001692	28.0811	0.057453	0.002058	27.9122	122.519	14.9163	-0.028122	0.071322	-1.031470	-1.032761	0.052531	27.9122	-1.032881	-6.283979E+13	-8.359534E-16	NaN
284	1.000000	0.082610	7.36783e+06	-52839.1	955.818	-29748.4	0.000000	0.000000	6.082757	-0.007796	NaN	0.000000	0.001586	0.001692	28.0808	0.077821	0.002024	38.4519	-74.7875	-167.027	-0.060795	0.081329	-1.021474	-1.022754	-0.007796	38.4519	-1.021322	-4.392824E+13	1.774739E-16	NaN
284	1.000000	0.092635	7.36783e+06	-52839.1	955.819	-29748.4	0.000000	0.000000	6.092782	-0.022505	NaN	0.000000	0.001591	0.001673	28.081	0.041447	0.001989	20.8376	65.8692	17.3425	0.037866	0.091274	-1.011449	-1.012809	-0.022505	20.8376	-1.010639	-3.154858E+13	7.133456E-16	NaN
284	1.000000	0.102618	7.36783e+06	-52839.1	955.818	-29748.4	0.000000	0.000000	6.102765	-0.027397	NaN	0.000000	0.001582	0.001662	28.0811	0.097694	0.002036	47.9761	-0.871083	-166.409	-0.040157	0.101279	-1.001466	-1.002805	-0.027397	47.9761	-1.001037	-2.342794E+13	1.169406E-15	NaN
284	1.000000	0.112636	7.36783e+06	-52839.1	955.818	-29748.4	0.000000	0.000000	6.112782	-0.032487	NaN	0.000000	0.001607	0.001694	28.0809	0.023556	0.002115	11.1384	-49.5387	17.4179	-0.090748	0.111272	-0.991448	-0.992812	-0.032487	11.1384	-0.989260	-1.626111E+13	1.997843E-15	NaN
284	1.000000	0.122640	7.36783e+06	-52839.1	955.818	-29748.4	0.000000	0.000000	6.122785	-0.046827	NaN	0.000000	0.001588	0.001691	28.0808	0.144790	0.001993	72.6315	-162.012	-165.477	-0.008674	0.121331	-0.981444	-0.982753	-0.046827	72.6315	-0.980960	-1.257041E+13	3.725183E-15	NaN
284	1.000000	0.132619	7.36783e+06	-52839.1	955.818	-29748.4	0.000000	0.000000	6.132767	0.021224	NaN	0.000000	0.001596	0.001723	28.0795	0.103386	0.001940	53.2821	-27.6911	13.8381	-0.006357	0.131292	-0.971465	-0.972791	0.021224	53.2821	-0.971764	-9.450083E+12	-2.245869E-15	NaN
284	1.000000	0.142622	7.36783e+06	-52839.1	955.817	-29748.4	0.000000	0.000000	6.142769	-0.020321	NaN	0.000000	0.001625	0.001674	28.0796	0.067131	0.002022	33.1995	58.3762	-169.139	0.001486	0.141371	-0.961461	-0.962713	-0.020321	33.1995	-0.961002	-6.766782E+12	3.003117E-15	NaN
284	1.000000	0.152632	7.36783e+06	-52839.1	955.818	-29748.4	0.000000	0.000000	6.152779	-0.000409	NaN	0.000000	0.001597	0.001673	28.0793	0.058617	0.002036	28.7855	-172.053	16.4228	-0.006515	0.151293	-0.951452	-0.952791	-0.000409	28.7855	-0.951441	-5.028804E+12	8.128456E-17	NaN
284	1.000000	0.162671	7.36783e+06	-52839.1	955.819	-29748.4	0.000000	0.000000	6.162820	0.035978	NaN	0.000000	0.001583	0.001732	28.0795	0.050674	0.002065	24.539	3.391252	-167.341	0.007450	0.161282	-0.941413	-0.942802	0.035978	24.539	-0.942513	-3.810978E+12	-9.440644E-15	NaN
284	1.000000	0.172679	7.36783e+06	-52839.1	955.818	-29748.4	0.000000	0.000000	6.172826	-0.028895	NaN	0.000000	0.001621	0.001727	28.0797	0.074728	0.002042	36.5888	-168.086	12.6976	0.072057	0.171327	-0.931404	-0.932756	-0.028895	36.5888	-0.930812	-2.649461E+12	1.090593E-14	NaN
284	1.000000	0.182652	7.36783e+06	-52839.1	955.819	-29748.4	0.000000	0.000000	6.182796	-0.088394	NaN	0.000000	0.001558	0.001713	28.0796	0.079258	0.002016	39.3142	36.3121	-160.458	-0.028823	0.181316	-0.921432	-0.922768	-0.088394	39.3142	-0.919746	-1.878323E+12	4.706000E-14	NaN
284	1.000000	0.192662	7.36783e+06	-52839.1	955.818	-29748.4	0.000000	0.000000	6.192809	-0.022679	NaN	0.000000	0.001582	0.001716	28.0797	0.101108	0.002004	50.4456	42.0907	14.8917	-0.022216	0.191266	-0.911422	-0.912818	-0.022679	50.4456	-0.911084	-1.434857E+12	1.580566E-14	NaN
284	1.000000	0.202677	7.36783e+06	-52839.1	955.819	-29748.4	0.000000	0.000000	6.202824	-0.019960	NaN	0.000000	0.001577	0.001714	28.0797	0.099174	0.002011	49.3041	-83.2489	-163.625	-0.018974	0.201343	-0.901407	-0.902741	-0.019960	49.3041	-0.901103	-1.051894E+12	1.897544E-14	NaN
284	1.000000	0.212653	7.36783e+06	-52839.1	955.818	-29748.4	0.000000	0.000000	6.212799	-0.044347	NaN	0.000000	0.001598	0.001742	28.08	0.008154	0.001892	4.310554	66.981	11.7944	0.055241	0.211362	-0.891431	-0.892722	-0.044347	4.310554	-0.883715	-6.122636E+11	7.243103E-14	NaN
284	1.000000	0.222692	7.36783e+06	-52839.1	955.818	-29748.4	0.000000	0.000000	6.222838	-0.022537	NaN	0.000000	0.001583	0.001700	28.0796	0.128336	0.001947	65.912	176.693	-167.636	0.069692	0.221352	-0.881392	-0.882731	-0.022537	65.912	-0.881136	-5.650205E+11	3.988651E-14	NaN
284	1.000000	0.232654	7.36783e+06	-52839.1	955.818	-29748.4	0.000000	0.000000	6.232797	-0.102053	NaN	0.000000	0.001687	0.001683	28.0797	0.087065	0.002122	41.0378	57.1121	12.4176	-0.067983	0.231285	-0.871430	-0.872799	-0.102053	41.0378	-0.869565	-3.940575E+11	2.589796E-13	NaN
284	1.000000	0.242680	7.36783e+06	-52839.1	955.818	-29748.4	0.000000	0.000000	6.242826	-0.024298	NaN	0.000000	0.001646	0.001710	28.0796	0.087402	0.001960	44.5831	-110.737	-165.9	-0.027864	0.241365	-0.861404	-0.862719	-0.024298	44.5831	-0.860995	-3.017110E+11	8.053347E-14	NaN
284	1.000000	0.252726	7.36783e+06	-52839.1	955.818	-29748.4	0.000000	0.000000	6.252875	0.027974	NaN	0.000000	0.001666	0.001701	28.0799	0.046763	0.002027	23.0663	132.921	10.9968	-0.038554	0.251284	-0.851357	-0.852800	0.027974	23.0663	-0.852267	-2.298448E+11	-1.217062E-13	NaN
284	1.000000	0.262709	7.36783e+06	-52839.1	955.818	-29748.4	0.000000	0.000000	6.262856	-0.014381	NaN	0.000000	0.001664	0.001711	28.0796	0.032593	0.001989	16.3879	93.4463	-165.535	-0.011533	0.261352	-0.841375	-0.842732	-0.014381	16.3879	-0.840717	-1.603263E+11	8.969819E-14	NaN
284	1.000000	0.272680	7.36783e+06	-52839.1	955.818	-29748.4	0.000000	0.000000	6.272828	0.003897	NaN	0.000000	0.001629	0.001707	28.081	0.013795	0.002105	6.552133	64.2733	15.558	0.013946	0.271354	-0.831404	-0.832730	0.003897	6.552133	-0.831850	-1.215782E+11	-3.205605E-14	NaN
284	1.000000	0.282683	7.36783e+06	-52839.1	955.818	-29748.4	0.000000	0.000000	6.282830	-0.011259	NaN	0.000000	0.001668	0.001668	28.0809	0.058748	0.001984	29.6098	-70.5098	-165.055	-0.075321	0.281409	-0.821401	-0.822675	-0.011259	29.6098	-0.821116	-8.696440E+10	1.294723E-13	NaN
284	1.000000	0.292701	7.36783e+06	-52839.1	955.817	-29748.4	0.000000	0.000000	6.292848	-0.015902	NaN	0.000000	0.001670	0.001681	28.081	0.081511	0.002107	38.6769	-83.4491	8.271157	0.015878	0.291361	-0.811383	-0.812723	-0.015902	38.6769	-0.811074	-6.355450E+10	2.502094E-13	NaN
284	1.000000	0.302698	7.36783e+06	-52839.1	955.819	-29748.4	0.000000	0.000000	6.302844	-0.034911	NaN	0.000000	0.001608	0.001672	28.0809	0.021943	0.002014	10.8965	-58.9816	-163.52	-0.018248	0.301408	-0.801385	-0.802676	-0.034911	10.8965	-0.798983	-4.355634E+10	8.015035E-13	NaN
284	1.000000	0.312709	7.36783e+06	-52839.1	955.819	-29748.4	0.000000	0.000000	6.312854	-0.066796	NaN	0.000000	0.001576	0.001654	28.0809	0.153624	0.001943	79.0604	-105.098	10.2262	-0.157919	0.311353	-0.791375	-0.792731	-0.066796	79.0604	-0.790741	-3.366260E+10	1.984265E-12	NaN
284	1.000000	0.322688	7.36783e+06	-52839.1	955.818	-29748.4	0.000000	0.000000	6.322838	0.072584	NaN	0.000000	0.001558	0.001676	28.0813	0.052189	0.002024	25.7809	66.2401	-167.646	0.131836	0.321409	-0.781396	-0.782674	0.072584	25.7809	-0.783507	-2.684657E+10	-2.703651E-12	NaN
284	1.000000	0.332751	7.36783e+06	-52839.1	955.817	-29748.4	0.000000	0.000000	6.332896	-0.075900	NaN	0.000000	0.001548	0.001682	28.0809	0.081306	0.002068	39.3104	68.4336	13.0643	-0.028927	0.331368	-0.771333	-0.772716	-0.075900	39.3104	-0.769884	-1.752809E+10	4.330204E-12	NaN
284	1.000000	0.342735	7.36783e+06	-52839.1	955.818	-29748.4	0.000000	0.000000	6.342880	-0.057463	NaN	0.000000	0.001613	0.001721	28.0811	0.129438	0.002127	60.8491	-92.4089	-165.353	-0.015956	0.341341	-0.761349	-0.762743	-0.057463	60.8491	-0.760641	-1.312260E+10	4.378931E-12	NaN
284	1.000000	0.352717	7.36783e+06	-52839.1	955.819	-29748.4	0.000000	0.000000	6.352862	-0.058667	NaN	0.000000	0.001587	0.001716	28.081	0.027597	0.001921	14.3644	-94.0487	10.5914	-0.120479	0.351413	-0.751367	-0.752671	-0.058667	14.3644	-0.748304	-8.915291E+9	6.580484E-12	NaN
284	1.000000	0.362727	7.36783e+06	-52839.1	955.818	-29748.4	0.000000	0.000000	6.362873	-0.048156	NaN	0.000000	0.001599	0.001704	28.081	0.062799	0.002074	30.2792	-120.422	-163.034	-0.122107	0.361466	-0.741356	-0.742618	-0.048156	30.2792	-0.740164	-6.906933E+9	6.972061E-12	NaN
284	1.000000	0.372728	7.36783e+06	-52839.1	955.818	-29748.4	0.000000	0.000000	6.372877	0.055823	NaN	0.000000	0.001579	0.001722	28.0816	0.081643	0.002025	40.3141	77.7994	12.1016	-0.042537	0.371408	-0.731356	-0.732676	0.055823	40.3141	-0.732395	-5.413050E+9	-1.031263E-11	NaN
284	1.000000	0.382780	7.36783e+06	-52839.1	955.817	-29748.4	0.000000	0.000000	6.382925	-0.054998	NaN	0.000000	0.001560	0.001713	28.0812	0.206944	0.001978	104.619	-69.4255	-168.321	0.020477	0.381426	-0.721304	-0.722658	-0.054998	104.619	-0.720910	-3.774711E+9	1.457014E-11	NaN
284	1.000000	0.392767	7.36783e+06	-52839.1	955.819	-29748.4	0.000000	0.000000	6.392913	-0.044996	NaN	0.000000	0.001603	0.001751	28.0811	0.072893	0.002152	33.8797	-175.95	12.3341	-0.045558	0.391376	-0.711317	-0.712708	-0.044996	33.8797	-0.710321	-2.706601E+9	1.662440E-11	NaN
284	1.000000	0.402748	7.36783e+06	-52839.1	955.818	-29748.4	0.000000	0.000000	6.402895	-0.006307	NaN	0.000000	0.001568	0.001694	28.0812	0.100743	0.001960	51.408	62.9278	-168.015	-0.098257	0.401468	-0.701336	-0.702616	-0.006307	51.408	-0.701244	-2.034803E+9	3.099627E-12	NaN
284	1.000000	0.412755	7.36783e+06	-52839.1	955.818	-29748.4	0.000000	0.000000	6.412900	-0.049576	NaN	0.000000	0.001617	0.001693	28.0799	0.121876	0.002022	60.2664	-72.2093	12.9413	-0.014382	0.411407	-0.691329	-0.692677	-0.049576	60.2664	-0.690712	-1.460984E+9	3.393316E-11	NaN
284	1.000000	0.422754	7.36783e+06	-52839.1	955.818	-29748.4	0.000000	0.000000	6.422899	-0.039905	NaN	0.000000	0.001631	0.001684	28.0795	0.080022	0.002019	39.6371	118.415	-166.093	-0.019088	0.421476	-0.681330	-0.682608	-0.039905	39.6371	-0.680575	-1.061874E+9	3.757975E-11	NaN
284	1.000000	0.432750	7.36783e+06	-52839.1	955.818	-29748.4	0.000000	0.000000	6.432897	-0.023877	NaN	0.000000	0.001576	0.001727	28.0797	0.077733	0.001965	39.5531	-44.095	13.4025	0.067730	0.431430	-0.671334	-0.672654	-0.023877	39.5531	-0.670881	-7.824339E+8	3.051593E-11	NaN
284	1.000000	0.442748	7.36783e+06	-52839.1	955.819	-29748.4	0.000000	0.000000	6.442892	-0.061476	NaN	0.000000	0.001631	0.001724	28.0797	0.075671	0.002000	37.8327	-118.254	-167.608	0.021714	0.441499	-0.661336	-0.662585	-0.061476	37.8327	-0.660118	-5.572874E+8	1.103137E-10	NaN
284	1.000000	0.452786	7.36783e+06	-52839.1	955.819	-29748.4	0.000000	0.000000	6.452930	-0.067011	NaN	0.000000	0.001594	0.001722	28.0807	0.065761	0.002103	31.27	-65.0843	11.6149	-0.046567	0.451398	-0.651298	-0.652686	-0.067011	31.27	-0.649691	-4.010530E+8	1.670879E-10	NaN
284	1.000000	0.462795	7.36783e+06	-52839.1	955.818	-29748.4	0.000000	0.000000	6.462942	-0.015607	NaN	0.000000	0.001591	0.001747	28.0795	0.057522	0.002040	28.2026	1.974083	-162.55	-0.050626	0.461507	-0.641289	-0.642577	-0.015607	28.2026	-0.640874	-3.035831E+8	5.140905E-11	NaN
284	1.000000	0.472796	7.36783e+06	-52839.1	955.819	-29748.4	0.000000	0.000000	6.472945	0.034016	NaN	0.000000	0.001584	0.001726	28.0794	0.037922	0.002057	18.4315	-59.7434	13.4931	0.060853	0.471453	-0.631288	-0.632631	0.034016	18.4315	-0.632672	-2.342703E+8	-1.452018E-10	NaN
284	1.000000	0.482770	7.36783e+06	-52839.1	955.818	-29748.4	0.000000	0.000000	6.482920	0.068622	NaN	0.000000	0.001627	0.001745	28.0796	0.034617	0.001935	17.8943	21.7732	-165.99	0.115661	0.481447	-0.621314	-0.622637	0.068622	17.8943	-0.624190	-1.791492E+8	-3.830424E-10	NaN
284	1.000000	0.492797	7.36783e+06	-52839.1	955.819	-29748.4	0.000000	0.000000	6.492943	-0.042861	NaN	0.000000	0.001573	0.001761	28.0793	0.080677	0.001996	40.4167	-115.877	13.9693	-0.080870	0.491453	-0.611287	-0.612631	-0.042861	40.4167	-0.610491	-1.161117E+8	3.691380E-10	NaN
284	1.000000	0.502799	7.36783e+06	-52839.1	955.818	-29748.4	0.000000	0.000000	6.502942	-0.096957	NaN	0.000000	0.001566	0.001720	28.0794	0.066723	0.002101	31.7579	-174.723	-165.397	-0.087675	0.501497	-0.601285	-0.602587	-0.096957	31.7579	-0.598995	-8.065280E+7	1.202152E-9	NaN
284	1.000000	0.512780	7.36783e+06	-52839.1	955.818	-29748.4	0.000000	0.000000	6.512925	-0.048532	NaN	0.000000	0.001573	0.001725	28.0794	0.057808	0.001966	29.4011	-66.4631	12.9259	-0.081616	0.511477	-0.591304	-0.592607	-0.048532	29.4011	-0.590066	-6.075421E+7	7.988319E-10	NaN
284	1.000000	0.522789	7.36783e+06	-52839.1	955.819	-29748.4	0.000000	0.000000	6.522934	-0.051568	NaN	0.000000	0.001569	0.001740	28.0796	0.075895	0.001943	39.0519	125.303	-166.994	-0.056234	0.521437	-0.581295	-0.582647	-0.051568	39.0519	-0.580305	-4.455835E+7	1.157325E-9	NaN
284	1.000000	0.532813	7.36783e+06	-52839.1	955.818	-29748.4	0.000000	0.000000	6.532957	-0.095318	NaN	0.000000	0.001570	0.001725	28.0794	0.088193	0.002026	43.5222	102.515	14.7509	-0.105013	0.531472	-0.571271	-0.572612	-0.095318	43.5222	-0.569628	-3.173172E+7	3.003880E-9	NaN
284	1.000000	0.542822	7.36783e+06	-52839.1	955.818	-29748.4	0.000000	0.000000	6.542966	-0.078664	NaN	0.000000	0.001613	0.001722	28.0808	0.047548	0.002129	22.3376	-163.791	-166.088	-0.078295	0.541523	-0.561262	-0.562561	-0.078664	22.3376	-0.558621	-2.235119E+7	3.519445E-9	NaN
284	1.000000	0.552796	7.36784e+06	-52839.1	955.819	-29748.4	0.000000	0.000000	6.552942	-0.032831	NaN	0.000000	0.001603	0.001723	28.081	0.152562	0.001882	81.0756	-152.885	16.5465	0.010521	0.551446	-0.551288	-0.552637	-0.032831	81.0756	-0.550984	-1.752221E+7	1.873654E-9	NaN
284	1.000000	0.562836	7.36784e+06	-52839.1	955.819	-29748.4	0.000000	0.000000	6.562984	0.003950	NaN	0.000000	0.001581	0.001713	28.0808	0.099740	0.002068	48.2381	-167.216	-163.529	-0.077090	0.561548	-0.541248	-0.542536	0.003950	48.2381	-0.541309	-1.286810E+7	-3.069462E-10	NaN
284	1.000000	0.572833	7.36784e+06	-52839.1	955.818	-29748.4	0.000000	0.000000	6.572978	-0.065109	NaN	0.000000	0.001565	0.001736	28.081	0.013338	0.001969	6.773692	145.202	16.9615	-0.015319	0.571460	-0.531251	-0.532624	-0.065109	6.773692	-0.524042	-7.40963e+06	8.787024E-9	NaN
284	1.000000	0.582834	7.36784e+06	-52839.1	955.818	-29748.4	0.000000	0.000000	6.582986	0.109407	NaN	0.000000	0.001566	0.001730	28.081	0.059309	0.001989	29.8131	47.0676	-165.051	0.041498	0.581537	-0.521250	-0.522547	0.109407	29.8131	-0.524002	-7.40017e+06	-1.478438E-8	NaN
284	1.000000	0.592818	7.36784e+06	-52839.1	955.819	-29748.4	0.000000	0.000000	6.592965	-0.020132	NaN	0.000000	0.001579	0.001782	28.0813	0.080783	0.002007	40.2493	74.7046	13.2407	0.016772	0.591506	-0.511265	-0.512578	-0.020132	40.2493	-0.510890	-4.862e+06	4.140634E-9	NaN
284	1.000000	0.602831	7.36784e+06	-52839.1	955.819	-29748.4	0.000000	0.000000	6.602977	-0.036353	NaN	0.000000	0.001593	0.001724	28.0811	0.035616	0.002009	17.7283	125.14	-162.545	-0.074674	0.601509	-0.501253	-0.502575	-0.036353	17.7283	-0.499715	-3.39656e+06	1.070282E-8	NaN
284	1.000000	0.612862	7.36784e+06	-52839.1	955.819	-29748.4	0.000000	0.000000	6.613007	-0.048144	NaN	0.000000	0.001593	0.001713	28.081	0.073170	0.001917	38.1655	37.1118	12.446	0.031420	0.611490	-0.491222	-0.492594	-0.048144	38.1655	-0.490276	-2.50757e+06	1.919934E-8	NaN
284	1.000000	0.622862	7.36784e+06	-52839.1	955.819	-29748.4	0.000000	0.000000	6.623010	0.010754	NaN	0.000000	0.001618	0.001713	28.0811	0.076905	0.001971	39.0249	9.205873	-165.656	-0.022745	0.621531	-0.481222	-0.482553	0.010754	39.0249	-0.481429	-1.88593e+06	-5.702244E-9	NaN
284	1.000000	0.632843	7.36784e+06	-52839.1	955.818	-29748.4	0.000000	0.000000	6.632990	-0.014324	NaN	0.000000	0.001623	0.001735	28.0813	0.134606	0.001952	68.9548	-127.192	11.7563	-0.006251	0.631472	-0.471241	-0.472612	-0.014324	68.9548	-0.471085	-1.35091e+06	1.060296E-8	NaN
284	1.000000	0.642831	7.36784e+06	-52839.1	955.818	-29748.4	0.000000	0.000000	6.642979	0.017902	NaN	0.000000	0.001631	0.001716	28.0808	0.028627	0.001975	14.4937	-103.637	-164.053	-0.064618	0.641552	-0.461253	-0.462532	0.017902	14.4937	-0.462179	-1.01305e+06	-1.767136E-8	NaN
284	1.000000	0.652842	7.36784e+06	-52839.1	955.818	-29748.4	0.000000	0.000000	6.652990	0.022374	NaN	0.000000	0.001616	0.001751	28.0809	0.043646	0.001988	21.9586	-116.6	10.9355	-0.032737	0.651484	-0.451242	-0.452600	0.022374	21.9586	-0.452006	-728763	-3.070134E-8	NaN
284	1.000000	0.662857	7.36784e+06	-52839.1	955.818	-29748.4	0.000000	0.000000	6.663004	-0.009056	NaN	0.000000	0.001635	0.001723	28.0808	0.065233	0.001942	33.5954	170.564	-167.156	-0.035615	0.661519	-0.441227	-0.442565	-0.009056	33.5954	-0.441025	-510304	1.774631E-8	NaN
284	1.000000	0.672894	7.36784e+06	-52839.1	955.818	-29748.4	0.000000	0.000000	6.673041	-0.010313	NaN	0.000000	0.001598	0.001749	28.0807	0.036687	0.001988	18.4548	159.456	14.8674	-0.051062	0.671541	-0.431190	-0.432543	-0.010313	18.4548	-0.430770	-365562	2.821050E-8	NaN
284	1.000000	0.682887	7.36784e+06	-52839.1	955.818	-29748.4	0.000000	0.000000	6.683036	0.042260	NaN	0.000000	0.001602	0.001728	28.0797	0.099318	0.001966	50.5303	52.9296	-167.201	0.017680	0.681541	-0.421197	-0.422543	0.042260	50.5303	-0.421824	-273074	-1.547557E-7	NaN
284	1.000000	0.692876	7.36784e+06	-52839.1	955.819	-29748.4	0.000000	0.000000	6.693020	-0.078232	NaN	0.000000	0.001601	0.001714	28.0798	0.035501	0.001955	18.1547	-172.099	15.6328	0.013373	0.691488	-0.411208	-0.412596	-0.078232	18.1547	-0.407976	-173623	4.505877E-7	NaN
284	1.000000	0.702884	7.36784e+06	-52839.1	955.818	-29748.4	0.000000	0.000000	6.703030	-0.050580	NaN	0.000000	0.001628	0.001719	28.0799	0.088177	0.001879	46.9242	-146.164	-165.622	-0.038332	0.701534	-0.401200	-0.402550	-0.050580	46.9242	-0.400391	-135386	3.735950E-7	NaN
284	1.000000	0.712895	7.36784e+06	-52839.1	955.818	-29748.4	0.000000	0.000000	6.713039	-0.079754	NaN	0.000000	0.001640	0.001753	28.0795	0.052116	0.001944	26.8111	52.9371	10.1447	-0.042752	0.711489	-0.391189	-0.392595	-0.079754	26.8111	-0.388958	-92951.4	8.580209E-7	NaN
284	1.000000	0.722911	7.36784e+06	-52839.1	955.818	-29748.4	0.000000	0.000000	6.723056	-0.066520	NaN	0.000000	0.001624	0.001734	28.0797	0.040062	0.002071	19.3426	-8.175096	-163.759	-0.063661	0.721591	-0.381173	-0.382493	-0.066520	19.3426	-0.378594	-66024.2	1.007503E-6	NaN
284	1.000000	0.732887	7.36784e+06	-52839.1	955.818	-29748.4	0.000000	0.000000	6.733034	-0.002986	NaN	0.000000	0.001628	0.001695	28.0795	0.051209	0.002008	25.5038	1.970003	15.1916	-0.031056	0.731539	-0.371197	-0.372545	-0.002986	25.5038	-0.371109	-51534.7	5.793558E-8	NaN
284	1.000000	0.742886	7.36784e+06	-52839.1	955.818	-29748.4	0.000000	0.000000	6.743031	-0.054827	NaN	0.000000	0.001627	0.001712	28.0796	0.190396	0.001887	100.884	132.21	-167.899	-0.087943	0.741609	-0.361198	-0.362475	-0.054827	100.884	-0.360790	-36582	1.498746E-6	NaN
284	1.000000	0.752912	7.36784e+06	-52839.1	955.819	-29748.4	0.000000	0.000000	6.753057	-0.054590	NaN	0.000000	0.001636	0.001744	28.0795	0.030364	0.001999	15.1928	-31.8342	14.7816	-0.053946	0.751538	-0.351172	-0.352546	-0.054590	15.1928	-0.348477	-24259.8	2.250214E-6	NaN
284	1.000000	0.762886	7.36784e+06	-52839.1	955.818	-29748.4	0.000000	0.000000	6.763031	-0.067601	NaN	0.000000	0.001587	0.001751	28.0795	0.035825	0.002052	17.462	136.894	-164.12	-0.041097	0.761579	-0.341198	-0.342505	-0.067601	17.462	-0.338294	-17245.8	3.919863E-6	NaN
284	1.000000	0.772927	7.36784e+06	-52839.1	955.818	-29748.4	0.000000	0.000000	6.773074	-0.008858	NaN	0.000000	0.001643	0.001769	28.0796	0.074443	0.002079	35.8086	-46.022	14.4071	0.059490	0.771569	-0.331157	-0.332515	-0.008858	35.8086	-0.330971	-13479.4	6.571199E-7	NaN
284	1.000000	0.782921	7.36784e+06	-52839.1	955.818	-29748.4	0.000000	0.000000	6.783065	-0.077313	NaN	0.000000	0.001626	0.001722	28.0796	0.052774	0.002101	25.1226	168.488	-165.41	-0.070225	0.781598	-0.321163	-0.322486	-0.077313	25.1226	-0.318855	-8949.08	8.639188E-6	NaN
284	1.000000	0.792902	7.36784e+06	-52839.1	955.817	-29748.4	0.000000	0.000000	6.793045	-0.093924	NaN	0.000000	0.001628	0.001696	28.0795	0.071286	0.002038	34.986	-68.4094	12.5573	0.005707	0.791551	-0.311182	-0.312533	-0.093924	34.986	-0.309169	-6437.96	1.458906E-5	NaN
284	1.000000	0.802916	7.36784e+06	-52839.1	955.818	-29748.4	0.000000	0.000000	6.803062	-0.026437	NaN	0.000000	0.001628	0.001732	28.0795	0.054269	0.001921	28.2543	-160.202	-167.015	-0.098233	0.801610	-0.301168	-0.302474	-0.026437	28.2543	-0.300467	-4781.68	5.528769E-6	NaN
284	1.000000	0.812942	7.36784e+06	-52839.1	955.819	-29748.4	0.000000	0.000000	6.813089	0.007269	NaN	0.000000	0.001605	0.001735	28.0801	0.069809	0.001959	35.6274	147.934	14.7967	-0.040316	0.811505	-0.291142	-0.292579	0.007269	35.6274	-0.291295	-3489	-2.083409E-6	NaN
284	1.000000	0.822934	7.36784e+06	-52839.1	955.818	-29748.4	0.000000	0.000000	6.823081	-0.013511	NaN	0.000000	0.001627	0.001707	28.0808	0.074628	0.001901	39.2563	163.596	-166.363	0.045298	0.821548	-0.281149	-0.282535	-0.013511	39.2563	-0.280891	-2434.52	5.549830E-6	NaN
284	1.000000	0.832941	7.36784e+06	-52839.1	955.818	-29748.4	0.000000	0.000000	6.833087	-0.028679	NaN	0.000000	0.001605	0.001759	28.0809	0.050444	0.002082	24.2291	-126.203	12.5212	-0.039728	0.831546	-0.271143	-0.272538	-0.028679	24.2291	-0.270255	-1680.43	1.706650E-5	NaN
284	1.000000	0.842930	7.36784e+06	-52839.1	955.819	-29748.4	0.000000	0.000000	6.843072	-0.111214	NaN	0.000000	0.001619	0.001708	28.081	0.125202	0.002039	61.4108	-123.746	-165.651	-0.117438	0.841635	-0.261154	-0.262449	-0.111214	61.4108	-0.259796	-1163.57	9.557988E-5	NaN
284	1.000000	0.852926	7.36784e+06	-52839.1	955.818	-29748.4	0.000000	0.000000	6.853070	-0.078748	NaN	0.000000	0.001604	0.001770	28.0812	0.118955	0.002050	58.0411	-140.522	12.6024	-0.111998	0.851592	-0.251158	-0.252492	-0.078748	58.0411	-0.250140	-826.3	9.530182E-5	NaN
284	1.000000	0.862923	7.36784e+06	-52839.1	955.819	-29748.4	0.000000	0.000000	6.863069	-0.033660	NaN	0.000000	0.001554	0.001772	28.081	0.081511	0.002011	40.5308	42.6439	-169.266	-0.096156	0.861619	-0.241161	-0.242464	-0.033660	40.5308	-0.240538	-586.085	5.743247E-5	NaN
284	1.000000	0.872981	7.36784e+06	-52839.1	955.819	-29748.4	0.000000	0.000000	6.873128	-0.013409	NaN	0.000000	0.001605	0.001773	28.0811	0.032680	0.001983	16.4766	12.0302	15.6404	0.003845	0.871558	-0.231103	-0.232526	-0.013409	16.4766	-0.230493	-407.655	3.289274E-5	NaN
284	1.000000	0.882952	7.36784e+06	-52839.1	955.818	-29748.4	0.000000	0.000000	6.883101	0.021183	NaN	0.000000	0.001587	0.001732	28.0811	0.020487	0.002054	9.973092	67.4789	-167.02	0.048166	0.881619	-0.221132	-0.222464	0.021183	9.973092	-0.222725	-307.004	-6.899919E-5	NaN
284	1.000000	0.892974	7.36784e+06	-52839.1	955.818	-29748.4	0.000000	0.000000	6.893122	0.015385	NaN	0.000000	0.001561	0.001754	28.0811	0.049565	0.001943	25.5102	69.435	15.7995	-0.005788	0.891576	-0.211110	-0.212508	0.015385	25.5102	-0.211562	-203.279	-7.568312E-5	NaN
284	1.000000	0.902930	7.36784e+06	-52839.1	955.818	-29748.4	0.000000	0.000000	6.903077	-0.005003	NaN	0.000000	0.001604	0.001760	28.0809	0.035420	0.001975	17.9353	179.273	-169.445	-0.080425	0.901685	-0.201154	-0.202399	-0.005003	17.9353	-0.200945	-136.527	3.664129E-5	NaN
284	1.000000	0.912989	7.36784e+06	-52839.1	955.818	-29748.4	0.000000	0.000000	6.913136	-0.007384	NaN	0.000000	0.001563	0.001742	28.081	0.041096	0.001990	20.65	19.9505	13.9744	0.017888	0.911600	-0.191095	-0.192484	-0.007384	20.65	-0.190827	-92.8616	7.951808E-5	NaN
284	1.000000	0.922950	7.36784e+06	-52839.1	955.819	-29748.4	0.000000	0.000000	6.923093	-0.094793	NaN	0.000000	0.001589	0.001723	28.0811	0.058270	0.001971	29.5654	83.3537	-165.822	-0.064054	0.921608	-0.181134	-0.182476	-0.094793	29.5654	-0.178729	-58.0527	0.001633	NaN
284	1.000000	0.932968	7.36784e+06	-52839.1	955.82	-29748.4	0.000000	0.000000	6.933114	-0.028303	NaN	0.000000	0.001580	0.001754	28.081	0.043098	0.002014	21.3966	150.815	11.2352	-0.013337	0.931622	-0.171116	-0.172462	-0.028303	21.3966	-0.170124	-41.2825	0.000686	NaN
284	1.000000	0.942977	7.36784e+06	-52839.1	955.818	-29748.4	0.000000	0.000000	6.943123	-0.013092	NaN	0.000000	0.001574	0.001730	28.0809	0.182294	0.001970	92.5514	-106.121	-164.626	-0.073770	0.941707	-0.161107	-0.162377	-0.013092	92.5514	-0.161001	-28.5599	0.000458	NaN
284	1.000000	0.952978	7.36784e+06	-52839.1	955.819	-29748.4	0.000000	0.000000	6.953123	-0.068449	NaN	0.000000	0.001588	0.001741	28.08	0.078620	0.001977	39.7615	116.513	15.378	0.003146	0.951621	-0.151106	-0.152463	-0.068449	39.7615	-0.149815	-17.9732	0.003808	NaN
284	1.000000	0.962974	7.36784e+06	-52839.1	955.819	-29748.4	0.000000	0.000000	6.963122	0.009755	NaN	0.000000	0.001592	0.001760	28.0802	0.066666	0.001996	33.4052	81.4642	-164.767	0.019959	0.961691	-0.141110	-0.142392	0.009755	33.4052	-0.141329	-12.5279	-0.000779	NaN
284	1.000000	0.972992	7.36784e+06	-52839.1	955.819	-29748.4	0.000000	0.000000	6.973138	-0.039365	NaN	0.000000	0.001558	0.001740	28.0798	0.064797	0.001938	33.4396	45.6427	14.3103	0.005291	0.971693	-0.131092	-0.132391	-0.039365	33.4396	-0.130209	-7.692541	0.005117	NaN
284	1.000000	0.983013	7.36784e+06	-52839.1	955.819	-29748.4	0.000000	0.000000	6.983160	-0.003170	NaN	0.000000	0.001588	0.001722	28.0796	0.017759	0.002026	8.766758	172.129	-164.055	-0.055897	0.981659	-0.121071	-0.122425	-0.003170	8.766758	-0.120800	-5.014204	0.000632	NaN
284	1.000000	0.993005	7.36784e+06	-52839.1	955.819	-29748.4	0.000000	0.000000	6.993150	-0.064451	NaN	0.000000	0.001564	0.001723	28.0797	0.065010	0.001980	32.8401	-51.3718	10.2756	-0.018228	0.991656	-0.111078	-0.112428	-0.064451	32.8401	-0.109607	-2.948284	0.021861	NaN
284	1.000000	1.002989	7.36784e+06	-52839.1	955.819	-29748.4	0.000000	0.000000	7.003136	-0.021496	NaN	0.000000	0.001512	0.001729	28.0797	0.130332	0.002047	63.6596	98.7764	-168.45	-0.064174	1.001668	-0.101095	-0.102416	-0.021496	63.6596	-0.100841	-1.907137	0.011272	NaN
284	1.000000	1.013013	7.36784e+06	-52839.1	955.819	-29748.4	0.000000	0.000000	7.013159	-0.053821	NaN	0.000000	0.001572	0.001685	28.0796	0.091303	0.001963	46.5012	-140.547	9.423582	0.000483	1.011612	-0.091070	-0.092471	-0.053821	46.5012	-0.090202	-1.092856	0.049248	NaN
284	1.000000	1.023028	7.36784e+06	-52839.1	955.82	-29748.4	0.000000	0.000000	7.023175	-0.007205	NaN	0.000000	0.001591	0.001680	28.0796	0.067057	0.002021	33.1841	165.344	-165.752	-0.039702	1.021709	-0.081056	-0.082375	-0.007205	33.1841	-0.080893	-0.651562	0.011058	NaN
284	1.000000	1.033026	7.36784e+06	-52839.1	955.819	-29748.4	0.000000	0.000000	7.033174	-0.002956	NaN	0.000000	0.001586	0.001730	28.0796	0.065453	0.002114	30.9622	-113.219	12.8201	-0.015439	1.031614	-0.071057	-0.072470	-0.002956	30.9622	-0.070986	-0.362418	0.008156	NaN
284	1.000000	1.042989	7.36784e+06	-52839.1	955.819	-29748.4	0.000000	0.000000	7.043134	-0.062238	NaN	0.000000	0.001609	0.001748	28.0796	0.020924	0.001914	10.9342	-116.47	-166.023	0.018574	1.041684	-0.061095	-0.062400	-0.062238	10.9342	-0.056826	-0.145728	0.427080	NaN
284	1.000000	1.053038	7.36784e+06	-52839.1	955.82	-29748.4	0.000000	0.000000	7.053182	-0.071332	NaN	0.000000	0.001585	0.001698	28.0795	0.077419	0.001897	40.8015	103.069	11.9592	-0.050704	1.051702	-0.051046	-0.052381	-0.071332	40.8015	-0.049735	-0.089581	0.796283	NaN
284	1.000000	1.063018	7.36784e+06	-52839.1	955.82	-29748.4	0.000000	0.000000	7.063164	-0.040685	NaN	0.000000	0.001579	0.001752	28.0794	0.041399	0.002040	20.2945	44.5008	-166.355	-0.013935	1.061696	-0.041066	-0.042388	-0.040685	20.2945	-0.039562	-0.043859	0.927616	NaN
284	1.000000	1.073035	7.36784e+06	-52839.1	955.82	-29748.4	0.000000	0.000000	7.073180	-0.052156	NaN	0.000000	0.001567	0.001755	28.0795	0.036365	0.002098	17.3346	74.1773	12.5886	-0.069237	1.071705	-0.031049	-0.032379	-0.052156	17.3346	-0.028793	-0.021310	2.447448	NaN
284	1.000000	1.083040	7.36784e+06	-52839.1	955.819	-29748.4	0.000000	0.000000	7.083186	-0.035824	NaN	0.000000	0.001595	0.001737	28.0796	0.048409	0.001906	25.3975	167.063	-167.871	-0.025907	1.081718	-0.021044	-0.022365	-0.035824	25.3975	-0.019986	-0.012550	2.854398	NaN
284	1.000000	1.093055	7.36784e+06	-52839.1	955.82	-29748.4	0.000000	0.000000	7.093202	-0.018197	NaN	0.000000	0.001586	0.001760	28.0809	0.110618	0.002015	54.9031	143.414	13.0107	-0.026121	1.091725	-0.011028	-0.012359	-0.018197	54.9031	-0.010780	-0.006833	2.663307	NaN
284	1.000000	1.103052	7.36784e+06	-52839.1	955.821	-29748.4	0.000000	0.000000	7.103199	-0.013192	NaN	0.000000	0.001561	0.001731	28.0809	0.015786	0.001955	8.074389	-163.059	-165.42	-0.006009	1.101777	-0.001031	-0.002307	-0.013192	8.074389	0.000194	0.000145	-90.7243	611.782
284	2.000000	1.112812	7.36784e+06	-52839.1	955.82	-29748.4	0.000000	0.000000	7.113282	7.858507	NaN	0.000000	0.001574	0.001795	28.0809	7.887340	0.001674	4712.95	11.9272	4.613411	6.128296	1.111639	0.008728	0.007555	7.858507	4712.95	0.007477	0.006510	1207.13	53367
284	2.000000	1.115649	7.36784e+06	-52839.1	955.821	-29748.4	0.000000	0.000000	7.116222	10.3467	NaN	0.000000	0.001557	0.001738	28.0811	11.2694	0.001832	6150.38	9.177531	-176.465	9.990090	1.115441	0.011565	0.011357	10.3467	6150.38	0.010303	0.009520	1086.82	57590.8
284	2.000000	1.118142	7.36784e+06	-52839.1	955.821	-29748.4	0.000000	0.000000	7.118791	12.1785	NaN	0.000000	0.001588	0.001750	28.081	12.5089	0.001831	6831.52	3.326363	10.8281	11.3958	1.117823	0.014058	0.013739	12.1785	6831.52	0.012721	0.012366	984.868	56128.4
284	2.000000	1.120633	7.36784e+06	-52839.1	955.82	-29748.4	0.000000	0.000000	7.121415	15.4279	NaN	0.000000	0.001611	0.001756	28.0811	14.7705	0.001764	8371.75	7.673917	-175.987	15.9385	1.120342	0.016549	0.016259	15.4279	8371.75	0.015167	0.015509	994.775	61418.5
284	2.000000	1.123149	7.36784e+06	-52839.1	955.82	-29748.4	0.000000	0.000000	7.124049	18.3112	NaN	0.000000	0.001618	0.001708	28.0811	16.8744	0.001826	9242	3.672463	7.438232	18.4631	1.122729	0.019065	0.018645	18.3112	9242	0.017579	0.018879	969.904	61453.3
284	2.000000	1.125597	7.36784e+06	-52839.1	955.819	-29748.4	0.000000	0.000000	7.126716	23.6278	NaN	0.000000	0.001558	0.001721	28.0811	19.817	0.001820	10887	6.489742	-177.966	22.3547	1.125360	0.021513	0.021276	23.6278	10887	0.019886	0.022363	1056.56	66514.7
284	2.000000	1.128085	7.36784e+06	-52839.1	955.82	-29748.4	0.000000	0.000000	7.129486	30.4808	NaN	0.000000	0.001593	0.001692	28.0809	21.7834	0.001789	12178	4.034803	4.722113	29.0764	1.127763	0.024001	0.023680	30.4808	12178	0.022124	0.025990	1172.79	69015.7
284	2.000000	1.130578	7.36784e+06	-52839.1	955.821	-29748.4	0.000000	0.000000	7.132241	36.8474	NaN	0.000000	0.001607	0.001731	28.0815	24.6971	0.001658	14896.4	8.845473	176.915	36.0917	1.130220	0.026494	0.026136	36.8474	14896.4	0.024639	0.030362	1213.6	78106.7
284	2.000000	1.133069	7.36784e+06	-52839.1	955.821	-29748.4	0.000000	0.000000	7.134997	43.2981	NaN	0.000000	0.001584	0.001712	28.0811	27.8978	0.001762	15836.4	7.091658	-1.052204	41.505	1.132748	0.028985	0.028664	43.2981	15836.4	0.026935	0.034630	1250.32	77751
284	2.000000	1.135543	7.36784e+06	-52839.1	955.82	-29748.4	0.000000	0.000000	7.137765	50.4419	NaN	0.000000	0.001590	0.001771	28.0811	30.7712	0.001867	16480.2	6.314674	179.177	49.4562	1.135276	0.031459	0.031192	50.4419	16480.2	0.029164	0.039028	1292.45	76216.3
284	2.000000	1.138078	7.36784e+06	-52839.1	955.821	-29748.4	0.000000	0.000000	7.140583	57.326	NaN	0.000000	0.001633	0.001729	28.0808	33.4322	0.001718	19455.9	8.064815	-3.907354	56.7674	1.137666	0.033994	0.033583	57.326	19455.9	0.031784	0.044523	1287.57	84243
284	2.000000	1.140558	7.36784e+06	-52839.1	955.82	-29748.4	0.000000	0.000000	7.143472	67.2582	NaN	0.000000	0.001629	0.001800	28.0806	35.0967	0.001786	19656	5.587922	178.044	66.3521	1.140184	0.036474	0.036100	67.2582	19656	0.033908	0.049234	1366.09	80934.7
284	2.000000	1.143119	7.36784e+06	-52839.1	955.821	-29748.4	0.000000	0.000000	7.146305	73.8641	NaN	0.000000	0.001646	0.001733	28.0799	37.389	0.001828	20449.7	5.126302	-1.978871	75.4263	1.142679	0.039035	0.038595	73.8641	20449.7	0.036326	0.054879	1345.94	79754.7
284	2.000000	1.145566	7.36784e+06	-52839.1	955.82	-29748.4	0.000000	0.000000	7.149223	85.3317	NaN	0.000000	0.001640	0.001761	28.0797	39.6067	0.001793	22091.9	0.563113	-178.024	84.9375	1.145224	0.041482	0.041141	85.3317	22091.9	0.038586	0.060424	1412.22	82111.1
284	2.000000	1.148061	7.36784e+06	-52839.1	955.82	-29748.4	0.000000	0.000000	7.152145	95.7098	NaN	0.000000	0.001648	0.001755	28.0799	41.844	0.001900	22024.6	4.190343	-0.636519	94.0961	1.147629	0.043977	0.043545	95.7098	22024.6	0.040718	0.065896	1452.43	78388.2
284	2.000000	1.150565	7.36784e+06	-52839.1	955.82	-29748.4	0.000000	0.000000	7.155076	106.092	NaN	0.000000	0.001635	0.001757	28.0803	43.8722	0.001836	23897.1	3.000502	178.95	105.432	1.150221	0.046481	0.046137	106.092	23897.1	0.043152	0.072427	1464.82	81127.7
284	2.000000	1.153018	7.36784e+06	-52839.1	955.82	-29748.4	0.000000	0.000000	7.158028	118.223	NaN	0.000000	0.001605	0.001751	28.0799	46.9019	0.001733	27058.2	3.221858	-2.432299	115.092	1.152718	0.048934	0.048634	118.223	27058.2	0.045657	0.079464	1487.75	87697.5
284	2.000000	1.155526	7.36784e+06	-52839.1	955.82	-29748.4	0.000000	0.000000	7.161102	132.01	NaN	0.000000	0.001616	0.001716	28.0798	50.2776	0.001824	27569.4	3.311289	176.946	129.17	1.155253	0.051442	0.051169	132.01	27569.4	0.047850	0.085885	1537.06	85949.4
284	2.000000	1.158096	7.36784e+06	-52839.1	955.82	-29748.4	0.000000	0.000000	7.164225	145.429	NaN	0.000000	0.001587	0.001711	28.0799	52.1646	0.001698	30719.8	5.730996	-5.980931	146.656	1.157660	0.054012	0.053576	145.429	30719.8	0.050462	0.093846	1549.66	91618.7
284	2.000000	1.160526	7.36784e+06	-52839.1	955.821	-29748.4	0.000000	0.000000	7.167385	163.195	NaN	0.000000	0.001646	0.001727	28.08	53.0546	0.001703	31148.4	0.612254	179.371	161.658	1.160205	0.056442	0.056121	163.195	31148.4	0.052512	0.100337	1626.47	89841.9
284	2.000000	1.163030	7.36784e+06	-52839.1	955.82	-29748.4	0.000000	0.000000	7.170481	177.589	NaN	0.000000	0.001641	0.001755	28.0801	56.2377	0.001720	32705.3	4.329744	-5.001011	174.536	1.162621	0.058946	0.058537	177.589	32705.3	0.054873	0.108069	1643.29	90895.3
284	2.000000	1.165472	7.36784e+06	-52839.1	955.82	-29748.4	0.000000	0.000000	7.173405	189.301	NaN	0.000000	0.001598	0.001741	28.0797	59.9355	0.001812	33078.1	3.043063	175.723	185.177	1.165265	0.061388	0.061181	189.301	33078.1	0.057096	0.115600	1637.54	88886.1
284	2.000000	1.168072	7.36784e+06	-52839.1	955.82	-29748.4	0.000000	0.000000	7.176665	205.331	NaN	0.000000	0.001639	0.001755	28.0799	61.6492	0.001820	33878.8	4.271236	-4.718243	202.307	1.167613	0.063988	0.063529	205.331	33878.8	0.059443	0.123817	1658.34	87965.2
284	2.000000	1.170503	7.36784e+06	-52839.1	955.819	-29748.4	0.000000	0.000000	7.179741	221.022	NaN	0.000000	0.001621	0.001748	28.0798	63.4286	0.001740	36443.8	2.873726	175.542	220.012	1.170263	0.066419	0.066180	221.022	36443.8	0.061871	0.132602	1666.81	91437
284	2.000000	1.173034	7.36784e+06	-52839.1	955.82	-29748.4	0.000000	0.000000	7.182926	236.926	NaN	0.000000	0.001628	0.001695	28.0798	67.2043	0.001831	36712.3	5.095875	-6.685320	234.057	1.172697	0.068951	0.068613	236.926	36712.3	0.064110	0.140959	1680.82	89338.4
284	2.000000	1.175509	7.36784e+06	-52839.1	955.82	-29748.4	0.000000	0.000000	7.185953	250.334	NaN	0.000000	0.001628	0.001718	28.0812	69.8221	0.001823	38309.6	5.252868	172.622	248.987	1.175138	0.071425	0.071054	250.334	38309.6	0.066525	0.150238	1666.25	90300.7
284	2.000000	1.178049	7.36784e+06	-52839.1	955.82	-29748.4	0.000000	0.000000	7.189197	267.465	NaN	0.000000	0.001693	0.001740	28.0812	70.4065	0.001791	39300.5	0.433118	-2.584614	264.019	1.177625	0.073965	0.073541	267.465	39300.5	0.068861	0.159485	1677.06	89910.8
284	2.000000	1.180551	7.36784e+06	-52839.1	955.82	-29748.4	0.000000	0.000000	7.192463	286.05	NaN	0.000000	0.001662	0.001726	28.0813	72.6217	0.001758	41316.5	5.452321	172.938	288.553	1.180127	0.076467	0.076043	286.05	41316.5	0.071274	0.169310	1689.51	91739.3
284	2.000000	1.183003	7.36784e+06	-52839.1	955.82	-29748.4	0.000000	0.000000	7.195584	302.293	NaN	0.000000	0.001633	0.001698	28.0813	74.4788	0.001655	45005.3	2.056796	-4.461924	298.747	1.182612	0.078919	0.078528	302.293	45005.3	0.073882	0.180235	1677.21	96853.8
284	2.000000	1.185447	7.36784e+06	-52839.1	955.82	-29748.4	0.000000	0.000000	7.198565	315.367	NaN	0.000000	0.001651	0.001696	28.0813	79.6838	0.001942	41027.4	6.029890	171.464	310.779	1.185174	0.081363	0.081090	315.367	41027.4	0.075598	0.187602	1681.04	86542.3
284	2.000000	1.188040	7.36784e+06	-52839.1	955.82	-29748.4	0.000000	0.000000	7.201749	329.737	NaN	0.000000	0.001619	0.001748	28.0814	80.6246	0.001739	46374.9	3.688216	-7.115918	329.477	1.187674	0.083956	0.083590	329.737	46374.9	0.078623	0.200924	1641.1	94523.5
284	2.000000	1.190533	7.36784e+06	-52839.1	955.819	-29748.4	0.000000	0.000000	7.204919	346.192	NaN	0.000000	0.001664	0.001719	28.0817	82.435	0.001752	47045	1.885851	174.436	345.904	1.190197	0.086449	0.086113	346.192	47045	0.080930	0.211370	1637.85	93490
284	2.000000	1.192961	7.36784e+06	-52839.1	955.819	-29748.4	0.000000	0.000000	7.207980	361.581	NaN	0.000000	0.001606	0.001736	28.0815	86.1187	0.001789	48146.7	2.781726	-6.529922	357.277	1.192536	0.088877	0.088452	361.581	48146.7	0.083245	0.222099	1628.02	93339.9
284	2.000000	1.195435	7.36784e+06	-52839.1	955.819	-29748.4	0.000000	0.000000	7.211195	379.603	NaN	0.000000	0.001620	0.001735	28.0813	88.8956	0.001866	47629	5.463694	171.295	376.237	1.195150	0.091351	0.091066	379.603	47629	0.085373	0.232185	1634.92	90308.3
284	2.000000	1.197981	7.36784e+06	-52839.1	955.82	-29748.4	0.000000	0.000000	7.214543	399.098	NaN	0.000000	0.001666	0.001741	28.0813	89.6142	0.001806	49613.5	4.455887	-7.781255	394.457	1.197693	0.093897	0.093609	399.098	49613.5	0.087864	0.244254	1633.95	91717.5
284	2.000000	1.200401	7.36784e+06	-52839.1	955.82	-29748.4	0.000000	0.000000	7.217608	414.769	NaN	0.000000	0.001625	0.001737	28.0815	91.5568	0.001797	50944.4	2.023969	174.206	407.37	1.200117	0.096317	0.096033	414.769	50944.4	0.090211	0.255886	1620.92	92012.4
284	2.000000	1.202900	7.36784e+06	-52839.1	955.82	-29748.4	0.000000	0.000000	7.220904	434.171	NaN	0.000000	0.001653	0.001730	28.0812	94.7183	0.001882	50324.4	3.157342	-7.013327	426.483	1.202643	0.098816	0.098559	434.171	50324.4	0.092345	0.266684	1628.04	89033.5
284	2.000000	1.205470	7.36784e+06	-52839.1	955.819	-29748.4	0.000000	0.000000	7.224327	454.904	NaN	0.000000	0.001665	0.001769	28.0813	97.343	0.001801	54053.3	3.945137	171.601	452.871	1.205120	0.101386	0.101036	454.904	54053.3	0.095074	0.280793	1620.07	93197.1
284	2.000000	1.207882	7.36784e+06	-52839.1	955.82	-29748.4	0.000000	0.000000	7.227856	482.071	NaN	0.000000	0.001619	0.001730	28.0814	98.5552	0.001772	55605.9	3.158360	-7.344498	474.448	1.207533	0.103798	0.103449	482.071	55605.9	0.097296	0.292529	1647.94	93931.1
284	2.000000	1.210467	7.36784e+06	-52839.1	955.82	-29748.4	0.000000	0.000000	7.231180	500.029	NaN	0.000000	0.001601	0.001742	28.08	100.986	0.001938	52098.7	5.864557	170.72	499.016	1.210142	0.106383	0.106058	500.029	52098.7	0.099184	0.302684	1651.98	86517.7
284	2.000000	1.211506	7.36784e+06	-52839.1	955.821	-29748.4	0.000000	0.000000	7.232434	505.25	NaN	0.000000	0.001613	0.001743	28.0802	101.27	0.001779	56933.8	2.239040	173.342	503.243	1.211178	0.107422	0.107094	505.25	56933.8	0.100766	0.311313	1622.96	93227.6