File: remote_trans/data/nanoindenter/0828-1/data/Data_2025-08-06,11h17m57s/2025-07-22_16-23-58_1_169.txt
2025-07-22, 16:23:58, 1
Index	Phase	Displacement	Time	Pos X	Pos Y	Pos Z	Rot A	Rot B	Piezo Z	Force A	Force B	Gripper	Voltage A	Voltage B	Temperature	Amplitude force	Amplitude pos	Stiffness	Phase shift	Phase excitation	Force A raw	Displacement raw	HMax	HMax raw	Real Force	Real Stiffness	Contact Depth	Area	Hardness	Reduced Mod.
[#]	[#]	[um]	[s]	[um]	[um]	[um]	[m°]	[m°]	[um]	[uN]	[uN]	[V]	[V]	[V]	[°C]	[uN]	[um]	[N/m]	[°]	[°]	[uN]	[um]	[um]	[um]	[uN]	[N/m]	[um]	[um^2]	[MPa]	[MPa]
169	1.000000	0.002518	7.36669e+06	-47089.1	955.818	-29767.5	0.000000	0.000000	6.002834	0.046699	NaN	0.000000	0.001677	0.001763	28.1288	0.112616	0.000974	115.651	-52.7796	-168.429	-0.039581	0.001234	-1.089115	-1.090398	0.046699	115.651	-1.089417	-3.614017E+14	-1.292151E-16	NaN
169	1.000000	0.012566	7.36669e+06	-47089.1	955.818	-29767.5	0.000000	0.000000	6.012885	0.089779	NaN	0.000000	0.001716	0.001758	28.0873	0.040982	0.001270	32.2664	108.566	21.854	0.098302	0.011100	-1.079066	-1.080533	0.089779	32.2664	-1.081153	-2.799014E+14	-3.207539E-16	NaN
169	1.000000	0.022449	7.36669e+06	-47089.1	955.818	-29767.5	0.000000	0.000000	6.022762	-0.034735	NaN	0.000000	0.001666	0.001764	28.0796	0.018498	0.001686	10.9725	128.676	-170.516	-0.005473	0.021152	-1.069184	-1.070481	-0.034735	10.9725	-1.066809	-1.796066E+14	1.933927E-16	NaN
169	1.000000	0.032460	7.36669e+06	-47089.1	955.818	-29767.5	0.000000	0.000000	6.032778	0.085354	NaN	0.000000	0.001738	0.001753	28.1109	0.083056	0.001956	42.4682	169.291	15.1768	0.067351	0.031084	-1.059173	-1.060549	0.085354	42.4682	-1.060680	-1.485800E+14	-5.744652E-16	NaN
169	1.000000	0.042442	7.36669e+06	-47089.1	955.819	-29767.5	0.000000	0.000000	6.042760	0.079500	NaN	0.000000	0.001711	0.001713	28.1271	0.038638	0.001956	19.7494	-26.2207	-166.955	0.179120	0.041189	-1.049190	-1.050443	0.079500	19.7494	-1.052209	-1.143180E+14	-6.954328E-16	NaN
169	1.000000	0.052449	7.36669e+06	-47089.1	955.819	-29767.5	0.000000	0.000000	6.052769	0.133163	NaN	0.000000	0.001736	0.001793	28.0889	0.031222	0.001946	16.0415	129.542	14.7408	0.091988	0.051103	-1.039183	-1.040529	0.133163	16.0415	-1.045409	-9.261790E+13	-1.437769E-15	NaN
169	1.000000	0.062454	7.36669e+06	-47089.1	955.818	-29767.5	0.000000	0.000000	6.062772	0.067038	NaN	0.000000	0.001743	0.001779	28.0801	0.065778	0.001981	33.2052	-89.7439	-167.466	0.030624	0.061157	-1.029178	-1.030475	0.067038	33.2052	-1.030692	-5.872066E+13	-1.141643E-15	NaN
169	1.000000	0.072433	7.36669e+06	-47089.1	955.818	-29767.5	0.000000	0.000000	6.072747	-0.002965	NaN	0.000000	0.001735	0.001797	28.1116	0.093727	0.001993	47.017	17.9964	13.7696	0.083898	0.071083	-1.019200	-1.020550	-0.002965	47.017	-1.019152	-4.107228E+13	7.217861E-17	NaN
169	1.000000	0.082461	7.36669e+06	-47089.1	955.819	-29767.5	0.000000	0.000000	6.082780	0.083889	NaN	0.000000	0.001735	0.001762	28.1279	0.098482	0.001933	50.9442	157.787	-165.631	0.092537	0.081113	-1.009171	-1.010519	0.083889	50.9442	-1.010406	-3.132161E+13	-2.678316E-15	NaN
169	1.000000	0.092447	7.36669e+06	-47089.1	955.819	-29767.5	0.000000	0.000000	6.092764	0.066691	NaN	0.000000	0.001731	0.001797	28.0865	0.110842	0.002128	52.0929	-14.0241	12.5016	0.037858	0.091126	-0.999186	-1.000506	0.066691	52.0929	-1.000146	-2.278938E+13	-2.926416E-15	NaN
169	1.000000	0.102452	7.36669e+06	-47089.1	955.82	-29767.5	0.000000	0.000000	6.102768	0.038055	NaN	0.000000	0.001737	0.001772	28.08	0.117318	0.002010	58.3724	-129.617	-168.52	0.032547	0.101122	-0.989180	-0.990510	0.038055	58.3724	-0.989669	-1.646872E+13	-2.310745E-15	NaN
169	1.000000	0.112442	7.36669e+06	-47089.1	955.818	-29767.5	0.000000	0.000000	6.112758	0.017102	NaN	0.000000	0.001711	0.001784	28.1102	0.237681	0.002043	116.322	160.802	15.7478	0.105003	0.111123	-0.979190	-0.980509	0.017102	116.322	-0.979300	-1.193940E+13	-1.432438E-15	NaN
169	1.000000	0.122466	7.36669e+06	-47089.1	955.82	-29767.5	0.000000	0.000000	6.122781	-0.005235	NaN	0.000000	0.001759	0.001763	28.1272	0.124911	0.001963	63.6319	-7.166994	-164.02	0.075955	0.121127	-0.969166	-0.970505	-0.005235	63.6319	-0.969104	-8.701488E+12	6.016088E-16	NaN
169	1.000000	0.132467	7.36669e+06	-47089.1	955.818	-29767.5	0.000000	0.000000	6.132782	0.008603	NaN	0.000000	0.001708	0.001772	28.0881	0.070788	0.001855	38.1527	-122.322	16.3643	-0.048225	0.131171	-0.959165	-0.960462	0.008603	38.1527	-0.959334	-6.425248E+12	-1.338937E-15	NaN
169	1.000000	0.142485	7.36669e+06	-47089.1	955.819	-29767.5	0.000000	0.000000	6.142801	0.028577	NaN	0.000000	0.001737	0.001785	28.0818	0.030689	0.001881	16.312	61.0511	-163.252	0.013159	0.141139	-0.949147	-0.950493	0.028577	16.312	-0.950461	-4.878086E+12	-5.858308E-15	NaN
169	1.000000	0.152473	7.36669e+06	-47089.1	955.819	-29767.5	0.000000	0.000000	6.152789	0.028520	NaN	0.000000	0.001789	0.001758	28.1122	0.109469	0.002007	54.5556	-44.8393	12.6856	0.081156	0.151130	-0.939159	-0.940502	0.028520	54.5556	-0.939551	-3.476014E+12	-8.204824E-15	NaN
169	1.000000	0.162485	7.36669e+06	-47089.1	955.818	-29767.5	0.000000	0.000000	6.162800	0.011578	NaN	0.000000	0.001702	0.001777	28.1295	0.070659	0.001960	36.0545	107.38	-168.665	0.073260	0.161215	-0.929147	-0.930418	0.011578	36.0545	-0.929388	-2.534783E+12	-4.567843E-15	NaN
169	1.000000	0.172510	7.36669e+06	-47089.1	955.819	-29767.5	0.000000	0.000000	6.172827	0.064948	NaN	0.000000	0.001767	0.001754	28.0872	0.130023	0.001849	70.3079	70.5104	17.8655	0.085928	0.171158	-0.919123	-0.920475	0.064948	70.3079	-0.919815	-1.882403E+12	-3.450279E-14	NaN
169	1.000000	0.182491	7.36669e+06	-47089.1	955.818	-29767.5	0.000000	0.000000	6.182806	0.016562	NaN	0.000000	0.001747	0.001788	28.0806	0.057536	0.001883	30.5588	46.6661	-169.942	-0.040468	0.181153	-0.909142	-0.910480	0.016562	30.5588	-0.909548	-1.367914E+12	-1.210726E-14	NaN
169	1.000000	0.192492	7.36669e+06	-47089.1	955.819	-29767.5	0.000000	0.000000	6.192806	-0.023517	NaN	0.000000	0.001716	0.001779	28.1109	0.164065	0.002009	81.6623	122.809	11.7777	0.041962	0.191117	-0.899140	-0.900516	-0.023517	81.6623	-0.898924	-9.829481E+11	2.392542E-14	NaN
169	1.000000	0.202510	7.36669e+06	-47089.1	955.817	-29767.5	0.000000	0.000000	6.202831	0.154418	NaN	0.000000	0.001741	0.001794	28.1288	0.086498	0.001861	46.485	-154.462	-167.125	0.145633	0.201170	-0.889123	-0.890462	0.154418	46.485	-0.891614	-7.829455E+11	-1.972270E-13	NaN
169	1.000000	0.212485	7.36669e+06	-47089.1	955.818	-29767.5	0.000000	0.000000	6.212799	-0.018478	NaN	0.000000	0.001732	0.001789	28.0894	0.017113	0.002003	8.542323	-20.9188	12.6048	0.000624	0.211147	-0.879148	-0.880485	-0.018478	8.542323	-0.877525	-5.049399E+11	3.659510E-14	NaN
169	1.000000	0.222519	7.36669e+06	-47089.1	955.819	-29767.5	0.000000	0.000000	6.222832	-0.031858	NaN	0.000000	0.001754	0.001790	28.0815	0.065946	0.001929	34.1911	-104.57	-165.221	0.012136	0.221223	-0.869113	-0.870409	-0.031858	34.1911	-0.868415	-3.801833E+11	8.379743E-14	NaN
169	1.000000	0.232509	7.36669e+06	-47089.1	955.819	-29767.5	0.000000	0.000000	6.232824	0.023157	NaN	0.000000	0.001705	0.001797	28.1116	0.058663	0.001961	29.9144	-122.298	15.6413	0.040509	0.231164	-0.859124	-0.860468	0.023157	29.9144	-0.859704	-2.898140E+11	-7.990135E-14	NaN
169	1.000000	0.242501	7.36669e+06	-47089.1	955.818	-29767.5	0.000000	0.000000	6.242816	0.005679	NaN	0.000000	0.001750	0.001810	28.1304	0.058131	0.002114	27.5006	-85.2052	-163.225	0.033274	0.241208	-0.849131	-0.850424	0.005679	27.5006	-0.849286	-2.094461E+11	-2.711220E-14	NaN
169	1.000000	0.252491	7.36669e+06	-47089.1	955.819	-29767.5	0.000000	0.000000	6.252807	0.020955	NaN	0.000000	0.001736	0.001766	28.0893	0.081326	0.001971	41.2627	-128.83	14.3473	-0.016963	0.251125	-0.839141	-0.840507	0.020955	41.2627	-0.839522	-1.544591E+11	-1.356681E-13	NaN
169	1.000000	0.262540	7.36669e+06	-47089.1	955.819	-29767.5	0.000000	0.000000	6.262857	0.051310	NaN	0.000000	0.001703	0.001748	28.0812	0.054676	0.001891	28.9062	120.413	-168.315	0.103413	0.261224	-0.829092	-0.830408	0.051310	28.9062	-0.830423	-1.162840E+11	-4.412489E-13	NaN
169	1.000000	0.272511	7.36669e+06	-47089.1	955.819	-29767.5	0.000000	0.000000	6.272827	0.028242	NaN	0.000000	0.001680	0.001752	28.1089	0.116887	0.002006	58.2587	34.9706	12.1994	0.054581	0.271167	-0.819121	-0.820465	0.028242	58.2587	-0.819485	-8.264641E+10	-3.417209E-13	NaN
169	1.000000	0.282527	7.36669e+06	-47089.1	955.819	-29767.5	0.000000	0.000000	6.282840	-0.024832	NaN	0.000000	0.001679	0.001736	28.1285	0.086642	0.002036	42.5506	117.172	-165.539	-0.018751	0.281263	-0.809106	-0.810369	-0.024832	42.5506	-0.808668	-5.895190E+10	4.212327E-13	NaN
169	1.000000	0.292579	7.36669e+06	-47089.1	955.818	-29767.5	0.000000	0.000000	6.292894	0.008078	NaN	0.000000	0.001690	0.001763	28.0879	0.095111	0.002017	47.1525	125.902	15.5688	0.123673	0.291166	-0.799053	-0.800466	0.008078	47.1525	-0.799182	-4.382802E+10	-1.843049E-13	NaN
169	1.000000	0.302563	7.36669e+06	-47089.1	955.819	-29767.5	0.000000	0.000000	6.302880	0.050979	NaN	0.000000	0.001677	0.001788	28.0805	0.104691	0.002062	50.7688	-14.7852	-167.005	0.059037	0.301246	-0.789069	-0.790387	0.050979	50.7688	-0.789823	-3.270947E+10	-1.558533E-12	NaN
169	1.000000	0.312547	7.36669e+06	-47089.1	955.818	-29767.5	0.000000	0.000000	6.312864	0.058663	NaN	0.000000	0.001649	0.001766	28.1095	0.029867	0.001899	15.7266	-160.94	14.6264	0.037158	0.311179	-0.779085	-0.780453	0.058663	15.7266	-0.781883	-2.551608E+10	-2.299062E-12	NaN
169	1.000000	0.322518	7.36669e+06	-47089.1	955.818	-29767.5	0.000000	0.000000	6.322834	0.019681	NaN	0.000000	0.001728	0.001789	28.129	0.085300	0.002155	39.5883	38.5881	-164.075	-0.006244	0.321253	-0.769114	-0.770379	0.019681	39.5883	-0.769487	-1.731138E+10	-1.136854E-12	NaN
169	1.000000	0.332552	7.36669e+06	-47089.1	955.819	-29767.5	0.000000	0.000000	6.332869	0.059134	NaN	0.000000	0.001718	0.001780	28.0873	0.093797	0.001975	47.503	104.386	15.1106	0.081841	0.331260	-0.759081	-0.760373	0.059134	47.503	-0.760014	-1.286760E+10	-4.595568E-12	NaN
169	1.000000	0.342552	7.36669e+06	-47089.1	955.82	-29767.5	0.000000	0.000000	6.342873	0.151861	NaN	0.000000	0.001729	0.001791	28.0794	0.057715	0.001965	29.3708	54.3489	-165.181	0.088293	0.341280	-0.749081	-0.750353	0.151861	29.3708	-0.752958	-1.031545E+10	-1.472171E-11	NaN
169	1.000000	0.352556	7.36669e+06	-47089.1	955.819	-29767.5	0.000000	0.000000	6.352872	0.020914	NaN	0.000000	0.001771	0.001733	28.1086	0.067806	0.001915	35.4076	-100.281	14.9835	0.163909	0.351268	-0.739076	-0.740364	0.020914	35.4076	-0.739519	-6.768762E+9	-3.089786E-12	NaN
169	1.000000	0.362569	7.36669e+06	-47089.1	955.818	-29767.5	0.000000	0.000000	6.362883	-0.017097	NaN	0.000000	0.001739	0.001715	28.1284	0.021903	0.002113	10.3676	141.571	-165.233	0.008587	0.361275	-0.729063	-0.730357	-0.017097	10.3676	-0.727826	-4.690056E+9	3.645365E-12	NaN
169	1.000000	0.372539	7.36669e+06	-47089.1	955.819	-29767.5	0.000000	0.000000	6.372855	0.012362	NaN	0.000000	0.001743	0.001734	28.0888	0.065793	0.002087	31.5254	77.367	15.1509	0.055341	0.371204	-0.719093	-0.720428	0.012362	31.5254	-0.719387	-3.598432E+9	-3.435439E-12	NaN
169	1.000000	0.382569	7.36669e+06	-47089.1	955.819	-29767.5	0.000000	0.000000	6.382885	0.031978	NaN	0.000000	0.001677	0.001760	28.0813	0.029451	0.001999	14.7342	-6.297779	-167.395	-0.067573	0.381273	-0.709063	-0.710359	0.031978	14.7342	-0.710691	-2.738248E+9	-1.167839E-11	NaN
169	1.000000	0.392567	7.36669e+06	-47089.1	955.819	-29767.5	0.000000	0.000000	6.392881	-0.006443	NaN	0.000000	0.001681	0.001728	28.1091	0.178445	0.001969	90.649	120.646	12.6366	0.046506	0.391241	-0.699065	-0.700391	-0.006443	90.649	-0.699012	-1.896880E+9	3.396444E-12	NaN
169	1.000000	0.402585	7.36669e+06	-47089.1	955.817	-29767.5	0.000000	0.000000	6.402901	0.042231	NaN	0.000000	0.001667	0.001717	28.129	0.104839	0.001990	52.6817	-73.9679	-168.848	0.059009	0.401269	-0.689047	-0.690363	0.042231	52.6817	-0.689649	-1.412918E+9	-2.988937E-11	NaN
169	1.000000	0.412591	7.36669e+06	-47089.1	955.818	-29767.5	0.000000	0.000000	6.412904	-0.026700	NaN	0.000000	0.001705	0.001735	28.0895	0.127880	0.001869	68.4244	0.944861	11.4432	0.026645	0.411207	-0.679042	-0.680425	-0.026700	68.4244	-0.678749	-1.002528E+9	2.663310E-11	NaN
169	1.000000	0.422576	7.36669e+06	-47089.1	955.819	-29767.5	0.000000	0.000000	6.422891	-0.003541	NaN	0.000000	0.001686	0.001775	28.0798	0.061801	0.002011	30.7327	152.052	-167.751	0.098397	0.421337	-0.669056	-0.670295	-0.003541	30.7327	-0.668970	-7.366974E+8	4.806540E-12	NaN
169	1.000000	0.432592	7.36669e+06	-47089.1	955.818	-29767.5	0.000000	0.000000	6.432906	-0.020207	NaN	0.000000	0.001714	0.001695	28.1091	0.220042	0.002029	108.443	29.5502	14.9126	0.023736	0.431279	-0.659040	-0.660353	-0.020207	108.443	-0.658901	-5.363033E+8	3.767838E-11	NaN
169	1.000000	0.442617	7.36669e+06	-47089.1	955.819	-29767.5	0.000000	0.000000	6.442932	0.019378	NaN	0.000000	0.001721	0.001761	28.1297	0.068852	0.002121	32.4608	-22.0904	-165.243	-0.027490	0.441348	-0.649016	-0.650284	0.019378	32.4608	-0.649463	-3.981793E+8	-4.866578E-11	NaN
169	1.000000	0.452606	7.36669e+06	-47089.1	955.818	-29767.5	0.000000	0.000000	6.452921	0.010084	NaN	0.000000	0.001705	0.001728	28.0908	0.027311	0.001922	14.2131	-125.805	13.9779	0.004027	0.451203	-0.639026	-0.640430	0.010084	14.2131	-0.639558	-2.912268E+8	-3.462741E-11	NaN
169	1.000000	0.462619	7.36669e+06	-47089.1	955.819	-29767.5	0.000000	0.000000	6.462935	0.031746	NaN	0.000000	0.001708	0.001701	28.0811	0.113094	0.001971	57.3732	128.224	-166.761	0.006375	0.461335	-0.629013	-0.630298	0.031746	57.3732	-0.629428	-2.114301E+8	-1.501469E-10	NaN
169	1.000000	0.472614	7.36669e+06	-47089.1	955.818	-29767.5	0.000000	0.000000	6.472930	0.019042	NaN	0.000000	0.001649	0.001686	28.1101	0.170641	0.001980	86.1714	-62.3979	11.9158	0.027070	0.471203	-0.619018	-0.620429	0.019042	86.1714	-0.619184	-1.529014E+8	-1.245376E-10	NaN
169	1.000000	0.482605	7.36669e+06	-47089.1	955.818	-29767.5	0.000000	0.000000	6.482920	0.027063	NaN	0.000000	0.001669	0.001682	28.1307	0.041130	0.002065	19.9207	-113.431	-164.274	0.095408	0.481300	-0.609028	-0.610332	0.027063	19.9207	-0.610047	-1.144870E+8	-2.363837E-10	NaN
169	1.000000	0.492637	7.36669e+06	-47089.1	955.819	-29767.5	0.000000	0.000000	6.492953	0.025415	NaN	0.000000	0.001708	0.001680	28.0901	0.052247	0.001984	26.3286	-115.538	18.1577	0.091221	0.491248	-0.598995	-0.600384	0.025415	26.3286	-0.599719	-8.252616E+7	-3.079584E-10	NaN
169	1.000000	0.502614	7.36669e+06	-47089.1	955.819	-29767.5	0.000000	0.000000	6.502929	0.015824	NaN	0.000000	0.001649	0.001740	28.0804	0.079505	0.002017	39.4083	85.2101	-169.179	-0.021492	0.501267	-0.589018	-0.590365	0.015824	39.4083	-0.589319	-5.933127E+7	-2.666991E-10	NaN
169	1.000000	0.512632	7.36669e+06	-47089.1	955.82	-29767.5	0.000000	0.000000	6.512942	-0.114068	NaN	0.000000	0.001689	0.001716	28.1099	0.111853	0.001960	57.08	0.151331	12.5411	0.079896	0.511281	-0.579000	-0.580351	-0.114068	57.08	-0.577502	-4.076040E+7	2.798495E-9	NaN
169	1.000000	0.522638	7.36669e+06	-47089.1	955.818	-29767.5	0.000000	0.000000	6.522952	-0.028506	NaN	0.000000	0.001661	0.001726	28.1304	0.069235	0.002116	32.726	80.2169	-168.799	0.017441	0.521355	-0.568994	-0.570277	-0.028506	32.726	-0.568341	-3.045809E+7	9.359075E-10	NaN
169	1.000000	0.532614	7.36669e+06	-47089.1	955.818	-29767.5	0.000000	0.000000	6.532927	-0.038202	NaN	0.000000	0.001672	0.001707	28.0902	0.109635	0.002003	54.7383	128.714	16.0861	-0.046748	0.531274	-0.559019	-0.560358	-0.038202	54.7383	-0.558495	-2.226186E+7	1.716036E-9	NaN
169	1.000000	0.542632	7.36669e+06	-47089.1	955.819	-29767.5	0.000000	0.000000	6.542946	0.001261	NaN	0.000000	0.001634	0.001730	28.0818	0.061024	0.001956	31.1939	-53.355	-167.122	0.096458	0.541339	-0.549001	-0.550293	0.001261	31.1939	-0.549031	-1.646387E+7	-7.660024E-11	NaN
169	1.000000	0.552642	7.36669e+06	-47089.1	955.818	-29767.5	0.000000	0.000000	6.552958	0.030485	NaN	0.000000	0.001636	0.001722	28.109	0.114845	0.001903	60.3654	139.975	15.5826	0.052591	0.551275	-0.538990	-0.540358	0.030485	60.3654	-0.539369	-1.209504E+7	-2.520495E-9	NaN
169	1.000000	0.562665	7.36669e+06	-47089.1	955.819	-29767.5	0.000000	0.000000	6.562982	0.064115	NaN	0.000000	0.001685	0.001739	28.1295	0.087589	0.001915	45.7278	-32.3502	-168.151	0.102578	0.561344	-0.528967	-0.530289	0.064115	45.7278	-0.530019	-8.97097e+06	-7.146979E-9	NaN
169	1.000000	0.572661	7.36669e+06	-47089.1	955.819	-29767.5	0.000000	0.000000	6.572975	-0.004381	NaN	0.000000	0.001687	0.001727	28.0868	0.063948	0.002076	30.7976	6.001107	10.5594	0.013950	0.571300	-0.518972	-0.520333	-0.004381	30.7976	-0.518865	-6.27785e+06	6.978590E-10	NaN
169	1.000000	0.582697	7.36669e+06	-47089.1	955.819	-29767.5	0.000000	0.000000	6.583013	0.023243	NaN	0.000000	0.001681	0.001723	28.0798	0.051185	0.001946	26.3018	-117.721	-168.295	0.120066	0.581385	-0.508935	-0.510247	0.023243	26.3018	-0.509598	-4.6646e+06	-4.982867E-9	NaN
169	1.000000	0.592671	7.36669e+06	-47089.1	955.818	-29767.5	0.000000	0.000000	6.592986	-0.014418	NaN	0.000000	0.001634	0.001737	28.1082	0.063209	0.001908	33.1204	-2.602902	14.3795	0.003522	0.591241	-0.498961	-0.500392	-0.014418	33.1204	-0.498634	-3.28068e+06	4.394864E-9	NaN
169	1.000000	0.602661	7.36669e+06	-47089.1	955.818	-29767.5	0.000000	0.000000	6.602973	-0.055938	NaN	0.000000	0.001691	0.001773	28.1291	0.073590	0.002156	34.1356	-86.8484	-163.674	-0.014921	0.601402	-0.488972	-0.490230	-0.055938	34.1356	-0.487743	-2.31122e+06	2.420285E-8	NaN
169	1.000000	0.612670	7.36669e+06	-47089.1	955.818	-29767.5	0.000000	0.000000	6.612988	0.079257	NaN	0.000000	0.001685	0.001758	28.0899	0.092523	0.002092	44.2218	75.435	14.0256	0.064403	0.611326	-0.478962	-0.480306	0.079257	44.2218	-0.480306	-1.81892e+06	-4.357382E-8	NaN
169	1.000000	0.622689	7.36669e+06	-47089.1	955.818	-29767.5	0.000000	0.000000	6.623007	0.076172	NaN	0.000000	0.001692	0.001705	28.0797	0.027038	0.002028	13.3306	134.435	-166.205	0.023728	0.621429	-0.468944	-0.470204	0.076172	13.3306	-0.473229	-1.44771e+06	-5.261529E-8	NaN
169	1.000000	0.632685	7.36669e+06	-47089.1	955.819	-29767.5	0.000000	0.000000	6.633000	-0.000481	NaN	0.000000	0.001706	0.001739	28.1081	0.043523	0.002077	20.9536	-88.1102	16.8683	-0.006828	0.631310	-0.458947	-0.460323	-0.000481	20.9536	-0.458930	-911968	5.276819E-10	NaN
169	1.000000	0.642659	7.36669e+06	-47089.1	955.818	-29767.5	0.000000	0.000000	6.642974	0.014531	NaN	0.000000	0.001671	0.001730	28.1295	0.075824	0.001912	39.6606	149.175	-165.53	0.038208	0.641363	-0.448974	-0.450270	0.014531	39.6606	-0.449249	-666438	-2.180391E-8	NaN
169	1.000000	0.652729	7.36669e+06	-47089.1	955.819	-29767.5	0.000000	0.000000	6.653042	-0.041423	NaN	0.000000	0.001716	0.001731	28.0885	0.087281	0.001968	44.3569	-131.522	13.9823	-0.045396	0.651347	-0.438903	-0.440285	-0.041423	44.3569	-0.438203	-465580	8.897143E-8	NaN
169	1.000000	0.662680	7.36669e+06	-47089.1	955.819	-29767.5	0.000000	0.000000	6.662995	0.003992	NaN	0.000000	0.001692	0.001801	28.0794	0.114729	0.002050	55.9709	166.473	-167.296	0.025352	0.661386	-0.428952	-0.430246	0.003992	55.9709	-0.429006	-345140	-1.156737E-8	NaN
169	1.000000	0.672684	7.36669e+06	-47089.1	955.818	-29767.5	0.000000	0.000000	6.672999	0.009229	NaN	0.000000	0.001700	0.001743	28.1072	0.105966	0.002097	50.5261	126.42	15.2833	0.102338	0.671302	-0.418948	-0.420331	0.009229	50.5261	-0.419085	-249709	-3.695842E-8	NaN
169	1.000000	0.682706	7.36669e+06	-47089.1	955.818	-29767.5	0.000000	0.000000	6.683022	0.030090	NaN	0.000000	0.001719	0.001748	28.1303	0.058752	0.001996	29.4408	49.1885	-165.487	-0.062376	0.681403	-0.408926	-0.410229	0.030090	29.4408	-0.409693	-183668	-1.638266E-7	NaN
169	1.000000	0.692719	7.36669e+06	-47089.1	955.819	-29767.5	0.000000	0.000000	6.693034	0.025966	NaN	0.000000	0.001704	0.001742	28.0902	0.130778	0.002003	65.2756	-142.691	12.9144	-0.050150	0.691384	-0.398914	-0.400249	0.025966	65.2756	-0.399212	-130243	-1.993626E-7	NaN
169	1.000000	0.702737	7.36669e+06	-47089.1	955.817	-29767.5	0.000000	0.000000	6.703052	0.023962	NaN	0.000000	0.001690	0.001704	28.0808	0.091149	0.002040	44.6802	-62.9788	-167.011	-0.007717	0.701431	-0.388895	-0.390202	0.023962	44.6802	-0.389298	-93998.3	-2.549182E-7	NaN
169	1.000000	0.712711	7.36669e+06	-47089.1	955.817	-29767.5	0.000000	0.000000	6.713030	0.095951	NaN	0.000000	0.001703	0.001726	28.1089	0.083778	0.001934	43.3293	-121.068	17.5736	-0.029423	0.711373	-0.378921	-0.380259	0.095951	43.3293	-0.380582	-70508.9	-1.360836E-6	NaN
169	1.000000	0.722740	7.36669e+06	-47089.1	955.818	-29767.5	0.000000	0.000000	6.723056	0.044209	NaN	0.000000	0.001677	0.001708	28.1314	0.003973	0.002092	1.899486	71.0646	-163.95	0.075228	0.721383	-0.368893	-0.370249	0.044209	1.899486	-0.386348	-85290.4	-5.183370E-7	NaN
169	1.000000	0.732736	7.36669e+06	-47089.1	955.818	-29767.5	0.000000	0.000000	6.733052	0.029180	NaN	0.000000	0.001686	0.001718	28.0896	0.188405	0.001962	96.0201	-36.0696	14.7323	-0.023510	0.731311	-0.358896	-0.360321	0.029180	96.0201	-0.359124	-34608	-8.431478E-7	NaN
169	1.000000	0.742719	7.36669e+06	-47089.1	955.819	-29767.5	0.000000	0.000000	6.743034	0.021596	NaN	0.000000	0.001743	0.001657	28.0809	0.057098	0.002134	26.7627	-87.0047	-162.638	0.004697	0.741447	-0.348914	-0.350185	0.021596	26.7627	-0.349519	-25119.8	-8.597186E-7	NaN
169	1.000000	0.752715	7.36669e+06	-47089.1	955.817	-29767.5	0.000000	0.000000	6.753029	0.002025	NaN	0.000000	0.001715	0.001668	28.1076	0.022996	0.002027	11.3424	149.86	12.1956	0.040430	0.751395	-0.338918	-0.340238	0.002025	11.3424	-0.339052	-17689.9	-1.144815E-7	NaN
169	1.000000	0.762704	7.36669e+06	-47089.1	955.819	-29767.5	0.000000	0.000000	6.763020	0.019160	NaN	0.000000	0.001683	0.001673	28.131	0.050054	0.001929	25.9525	21.2016	-167.796	-0.010099	0.761434	-0.328928	-0.330198	0.019160	25.9525	-0.329482	-12819.1	-1.494641E-6	NaN
169	1.000000	0.772751	7.36669e+06	-47089.1	955.819	-29767.5	0.000000	0.000000	6.773065	-0.018872	NaN	0.000000	0.001710	0.001651	28.0909	0.079306	0.001951	40.6414	-126.355	13.3672	-0.063636	0.771387	-0.318881	-0.320246	-0.018872	40.6414	-0.318533	-8851.97	2.132010E-6	NaN
169	1.000000	0.782735	7.36669e+06	-47089.1	955.817	-29767.5	0.000000	0.000000	6.783051	0.033460	NaN	0.000000	0.001724	0.001671	28.0817	0.106311	0.002053	51.7886	47.4729	-168.753	-0.008721	0.781463	-0.308897	-0.310169	0.033460	51.7886	-0.309382	-6484.99	-5.159577E-6	NaN
169	1.000000	0.792752	7.36669e+06	-47089.1	955.818	-29767.5	0.000000	0.000000	6.793067	0.024706	NaN	0.000000	0.001735	0.001656	28.1084	0.056182	0.002055	27.3429	-107.752	13.4384	0.116974	0.791382	-0.298881	-0.300251	0.024706	27.3429	-0.299558	-4635.11	-5.330292E-6	NaN
169	1.000000	0.802757	7.36669e+06	-47089.1	955.818	-29767.5	0.000000	0.000000	6.803073	0.028817	NaN	0.000000	0.001672	0.001653	28.1314	0.040564	0.001918	21.1465	127.221	-165.235	0.083757	0.801450	-0.288875	-0.290182	0.028817	21.1465	-0.289897	-3324.75	-8.667356E-6	NaN
169	1.000000	0.812750	7.36669e+06	-47089.1	955.818	-29767.5	0.000000	0.000000	6.813067	0.049010	NaN	0.000000	0.001734	0.001646	28.091	0.044538	0.001996	22.3135	67.0003	16.8708	0.083451	0.811420	-0.278882	-0.280212	0.049010	22.3135	-0.280529	-2404.09	-2.038592E-5	NaN
169	1.000000	0.822778	7.36669e+06	-47089.1	955.818	-29767.5	0.000000	0.000000	6.823094	0.041297	NaN	0.000000	0.001714	0.001630	28.0798	0.029528	0.001976	14.9458	40.9792	-168.203	0.058927	0.821443	-0.268854	-0.270189	0.041297	14.9458	-0.270927	-1720.38	-2.400447E-5	NaN
169	1.000000	0.832741	7.36669e+06	-47089.1	955.818	-29767.5	0.000000	0.000000	6.833058	0.044035	NaN	0.000000	0.001683	0.001636	28.1061	0.086030	0.001977	43.5172	1.293155	14.0461	0.081737	0.831428	-0.258891	-0.260205	0.044035	43.5172	-0.259650	-1157.58	-3.804028E-5	NaN
169	1.000000	0.842746	7.36669e+06	-47089.1	955.819	-29767.5	0.000000	0.000000	6.843064	0.074314	NaN	0.000000	0.001761	0.001676	28.1291	0.021143	0.002104	10.0468	41.221	-165.027	0.125774	0.841482	-0.248886	-0.250150	0.074314	10.0468	-0.254433	-962.48	-7.721136E-5	NaN
169	1.000000	0.852734	7.36669e+06	-47089.1	955.817	-29767.5	0.000000	0.000000	6.853051	0.062326	NaN	0.000000	0.001736	0.001657	28.0894	0.070842	0.002018	35.1112	-135.781	16.2537	0.109250	0.851398	-0.238899	-0.240234	0.062326	35.1112	-0.240230	-579.619	-0.000108	NaN
169	1.000000	0.862750	7.36669e+06	-47089.1	955.819	-29767.5	0.000000	0.000000	6.863065	-0.009938	NaN	0.000000	0.001715	0.001657	28.0792	0.074251	0.001925	38.5786	90.0863	-165.583	0.053077	0.861486	-0.228882	-0.230146	-0.009938	38.5786	-0.228689	-381.767	2.603080E-5	NaN
169	1.000000	0.872773	7.36669e+06	-47089.1	955.818	-29767.5	0.000000	0.000000	6.873090	0.067956	NaN	0.000000	0.001684	0.001643	28.1062	0.021861	0.002103	10.3962	35.009	11.4325	0.018896	0.871351	-0.218859	-0.220281	0.067956	10.3962	-0.223762	-318.9	-0.000213	NaN
169	1.000000	0.882793	7.36669e+06	-47089.1	955.818	-29767.5	0.000000	0.000000	6.883107	-0.007213	NaN	0.000000	0.001698	0.001635	28.1302	0.052592	0.002008	26.1906	-31.0072	-163.777	-0.034294	0.881461	-0.208840	-0.210172	-0.007213	26.1906	-0.208633	-182.247	3.957633E-5	NaN
169	1.000000	0.892803	7.36669e+06	-47089.1	955.818	-29767.5	0.000000	0.000000	6.893117	-0.019676	NaN	0.000000	0.001686	0.001637	28.0894	0.067383	0.002068	32.5893	-47.8454	15.2895	0.065322	0.891481	-0.198829	-0.200152	-0.019676	32.5893	-0.198377	-123.876	0.000159	NaN
169	1.000000	0.902799	7.36669e+06	-47089.1	955.818	-29767.5	0.000000	0.000000	6.903115	0.040321	NaN	0.000000	0.001681	0.001637	28.0795	0.025175	0.001940	12.9782	-81.5223	-165.313	0.013452	0.901527	-0.188833	-0.190106	0.040321	12.9782	-0.191163	-94.0682	-0.000429	NaN
169	1.000000	0.912787	7.36669e+06	-47089.1	955.818	-29767.5	0.000000	0.000000	6.913104	0.038123	NaN	0.000000	0.001683	0.001669	28.1054	0.060880	0.001930	31.5425	-50.4681	15.1499	-0.019759	0.911419	-0.178845	-0.180213	0.038123	31.5425	-0.179751	-60.4275	-0.000631	NaN
169	1.000000	0.922799	7.36669e+06	-47089.1	955.817	-29767.5	0.000000	0.000000	6.923117	0.084965	NaN	0.000000	0.001663	0.001663	28.1296	0.046093	0.001986	23.2049	36.6887	-168.41	0.094340	0.921530	-0.168833	-0.170102	0.084965	23.2049	-0.171579	-43.7517	-0.001942	NaN
169	1.000000	0.932795	7.36669e+06	-47089.1	955.819	-29767.5	0.000000	0.000000	6.933110	0.010822	NaN	0.000000	0.001682	0.001658	28.0904	0.112371	0.002028	55.3969	27.8633	16.968	-0.009591	0.931461	-0.158837	-0.160171	0.010822	55.3969	-0.158984	-26.297	-0.000412	NaN
169	1.000000	0.942799	7.36669e+06	-47089.1	955.818	-29767.5	0.000000	0.000000	6.943115	0.021587	NaN	0.000000	0.001687	0.001637	28.0797	0.016301	0.001912	8.526633	129.81	-163.14	0.078134	0.941523	-0.148833	-0.150109	0.021587	8.526633	-0.150732	-18.6783	-0.001156	NaN
169	1.000000	0.952819	7.36669e+06	-47089.1	955.818	-29767.5	0.000000	0.000000	6.953134	0.013102	NaN	0.000000	0.001756	0.001651	28.1067	0.096616	0.001978	48.8476	169.852	16.1308	0.002070	0.951513	-0.138813	-0.140119	0.013102	48.8476	-0.139014	-11.335	-0.001156	NaN
169	1.000000	0.962829	7.36669e+06	-47089.1	955.819	-29767.5	0.000000	0.000000	6.963145	0.026701	NaN	0.000000	0.001740	0.001638	28.1314	0.026189	0.001922	13.6236	115.53	-166.152	0.029654	0.961575	-0.128803	-0.130058	0.026701	13.6236	-0.130273	-7.714588	-0.003461	NaN
169	1.000000	0.972793	7.3667e+06	-47089.1	955.818	-29767.5	0.000000	0.000000	6.973109	0.038784	NaN	0.000000	0.001743	0.001649	28.0909	0.040733	0.001965	20.7313	-70.9125	13.9907	-0.000950	0.971489	-0.118839	-0.120144	0.038784	20.7313	-0.120242	-4.886164	-0.007937	NaN
169	1.000000	0.982823	7.3667e+06	-47089.1	955.819	-29767.5	0.000000	0.000000	6.983140	0.051651	NaN	0.000000	0.001749	0.001651	28.0797	0.132666	0.001997	66.4261	-7.344480	-165.557	0.019665	0.981533	-0.108809	-0.110100	0.051651	66.4261	-0.109392	-2.917691	-0.017703	NaN
169	1.000000	0.992843	7.3667e+06	-47089.1	955.82	-29767.5	0.000000	0.000000	6.993161	0.078105	NaN	0.000000	0.001770	0.001651	28.1054	0.101059	0.001992	50.7202	139.74	12.4454	0.038348	0.991458	-0.098789	-0.100175	0.078105	50.7202	-0.099944	-1.821931	-0.042869	NaN
169	1.000000	1.002830	7.3667e+06	-47089.1	955.82	-29767.5	0.000000	0.000000	7.003146	0.043272	NaN	0.000000	0.001761	0.001672	28.131	0.121639	0.002085	58.3465	25.1953	-167.853	-0.080700	1.001490	-0.088803	-0.090143	0.043272	58.3465	-0.089359	-1.044106	-0.041444	NaN
169	1.000000	1.012817	7.3667e+06	-47089.1	955.821	-29767.5	0.000000	0.000000	7.013133	0.035512	NaN	0.000000	0.001726	0.001639	28.0913	0.039321	0.002077	18.934	24.2108	16.0787	0.012813	1.011481	-0.078815	-0.080151	0.035512	18.934	-0.080222	-0.626941	-0.056643	NaN
169	1.000000	1.022806	7.3667e+06	-47089.1	955.82	-29767.5	0.000000	0.000000	7.023123	0.070409	NaN	0.000000	0.001679	0.001665	28.0819	0.079217	0.002094	37.8368	30.7891	-163.842	0.088284	1.021543	-0.068827	-0.070090	0.070409	37.8368	-0.070222	-0.345811	-0.203605	NaN
169	1.000000	1.032852	7.3667e+06	-47089.1	955.82	-29767.5	0.000000	0.000000	7.033169	0.044347	NaN	0.000000	0.001694	0.001669	28.1069	0.125738	0.002093	60.0696	-11.1654	15.6683	0.093626	1.031518	-0.058780	-0.060115	0.044347	60.0696	-0.059334	-0.172324	-0.257347	NaN
169	1.000000	1.042862	7.3667e+06	-47089.1	955.82	-29767.5	0.000000	0.000000	7.043179	0.043342	NaN	0.000000	0.001670	0.001660	28.1319	0.133606	0.001946	68.6649	0.321490	-167.422	0.014350	1.041532	-0.048770	-0.050100	0.043342	68.6649	-0.049244	-0.086563	-0.500699	NaN
169	1.000000	1.052869	7.3667e+06	-47089.1	955.819	-29767.5	0.000000	0.000000	7.053190	0.139859	NaN	0.000000	0.001669	0.001663	28.0913	0.077126	0.001885	40.914	58.3988	14.9171	0.119642	1.051455	-0.038763	-0.040177	0.139859	40.914	-0.041327	-0.049628	-2.818142	NaN
169	1.000000	1.062820	7.3667e+06	-47089.1	955.821	-29767.5	0.000000	0.000000	7.063135	0.002566	NaN	0.000000	0.001678	0.001664	28.0825	0.085466	0.001982	43.1189	-148.032	-165.902	0.067021	1.061565	-0.028812	-0.030067	0.002566	43.1189	-0.028857	-0.021397	-0.119939	NaN
169	1.000000	1.072854	7.3667e+06	-47089.1	955.82	-29767.5	0.000000	0.000000	7.073170	0.041570	NaN	0.000000	0.001724	0.001672	28.1058	0.169741	0.002043	83.0851	98.3239	11.0276	0.053795	1.071458	-0.018779	-0.020174	0.041570	83.0851	-0.019154	-0.011952	-3.477976	NaN
169	1.000000	1.082868	7.3667e+06	-47089.1	955.82	-29767.5	0.000000	0.000000	7.083185	0.039254	NaN	0.000000	0.001690	0.001682	28.131	0.050077	0.001870	26.7807	-134.112	-164.197	-0.006831	1.081494	-0.008764	-0.010138	0.039254	26.7807	-0.009863	-0.006309	-6.221771	NaN
169	1.000000	1.092865	7.3667e+06	-47089.1	955.819	-29767.5	0.000000	0.000000	7.093198	0.435308	NaN	0.000000	0.001692	0.001690	28.0909	0.820428	0.001946	421.535	8.455845	13.7755	0.058423	1.091463	0.001233	-0.000169	0.435308	421.535	0.000459	0.000346	1258.92	20711.3
169	2.000000	1.101469	7.3667e+06	-47089.1	955.82	-29767.5	0.000000	0.000000	7.102132	8.474685	NaN	0.000000	0.001706	0.001666	28.0799	8.824413	0.001614	5466.1	6.229129	-170.956	8.606323	1.101121	0.009837	0.009489	8.474685	5466.1	0.008674	0.007744	1094.29	56748.6
169	2.000000	1.103933	7.3667e+06	-47089.1	955.82	-29767.5	0.000000	0.000000	7.104791	13.2188	NaN	0.000000	0.001674	0.001649	28.105	11.76	0.001590	7398.47	6.708421	4.070304	12.0384	1.103608	0.012300	0.011975	13.2188	7398.47	0.010960	0.010268	1287.34	66706.2
169	2.000000	1.106426	7.3667e+06	-47089.1	955.819	-29767.5	0.000000	0.000000	7.107431	16.7805	NaN	0.000000	0.001693	0.001650	28.1306	15.1527	0.001748	8666.68	5.547942	-173.316	16.5168	1.106111	0.014794	0.014478	16.7805	8666.68	0.013342	0.013137	1277.32	69083.5
169	2.000000	1.108915	7.3667e+06	-47089.1	955.82	-29767.5	0.000000	0.000000	7.110185	23.2476	NaN	0.000000	0.001688	0.001657	28.0899	17.2325	0.001712	10062.9	5.419447	4.995473	21.8991	1.108544	0.017283	0.016911	23.2476	10062.9	0.015550	0.016026	1450.64	72625.1
169	2.000000	1.111407	7.3667e+06	-47089.1	955.82	-29767.5	0.000000	0.000000	7.112869	27.9224	NaN	0.000000	0.001692	0.001654	28.0789	19.9091	0.001714	11615.4	7.960466	-178.797	28.6032	1.111071	0.019774	0.019438	27.9224	11615.4	0.017972	0.019454	1435.27	76084.7
169	2.000000	1.113895	7.3667e+06	-47089.1	955.819	-29767.5	0.000000	0.000000	7.115639	34.7551	NaN	0.000000	0.001712	0.001642	28.1046	23.043	0.001796	12829.3	4.742849	3.205014	33.639	1.113505	0.022263	0.021873	34.7551	12829.3	0.020231	0.022907	1517.24	77445
169	2.000000	1.116383	7.3667e+06	-47089.1	955.82	-29767.5	0.000000	0.000000	7.118431	42.1498	NaN	0.000000	0.001734	0.001631	28.1303	26.0533	0.001825	14277.7	6.853201	-179.64	41.9738	1.116055	0.024751	0.024423	42.1498	14277.7	0.022537	0.026686	1579.47	79852.6
169	2.000000	1.118841	7.3667e+06	-47089.1	955.82	-29767.5	0.000000	0.000000	7.121233	50.5243	NaN	0.000000	0.001688	0.001678	28.0915	28.1246	0.001848	15218.3	7.142375	-0.510061	47.6847	1.118472	0.027209	0.026840	50.5243	15218.3	0.024719	0.030506	1656.2	79606.1
169	2.000000	1.121370	7.3667e+06	-47089.1	955.82	-29767.5	0.000000	0.000000	7.123981	55.8637	NaN	0.000000	0.001706	0.001686	28.0816	31.0139	0.001855	16723.5	5.707341	179.537	56.4341	1.121137	0.029738	0.029504	55.8637	16723.5	0.027232	0.035203	1586.92	81435.3
169	2.000000	1.123822	7.3667e+06	-47089.1	955.82	-29767.5	0.000000	0.000000	7.126767	63.9694	NaN	0.000000	0.001689	0.001665	28.1054	33.3424	0.001799	18536.3	1.451812	3.138036	61.7135	1.123508	0.032190	0.031876	63.9694	18536.3	0.029602	0.039922	1602.35	84759.5
169	2.000000	1.126364	7.3667e+06	-47089.1	955.82	-29767.5	0.000000	0.000000	7.129629	71.7693	NaN	0.000000	0.001712	0.001701	28.1308	37.1021	0.002010	18455.1	6.887597	177.401	71.0595	1.126048	0.034732	0.034416	71.7693	18455.1	0.031815	0.044590	1609.54	79849.1
169	2.000000	1.128869	7.3667e+06	-47089.1	955.82	-29767.5	0.000000	0.000000	7.132596	83.0135	NaN	0.000000	0.001691	0.001686	28.0906	37.7554	0.001796	21024.8	5.271164	-1.593672	83.1916	1.128447	0.037237	0.036814	83.0135	21024.8	0.034275	0.050072	1657.88	85843.5
169	2.000000	1.131373	7.3667e+06	-47089.1	955.82	-29767.5	0.000000	0.000000	7.135403	90.3679	NaN	0.000000	0.001706	0.001665	28.0795	39.1938	0.001724	22740.3	6.035053	176.387	90.5014	1.131069	0.039740	0.039437	90.3679	22740.3	0.036760	0.055923	1615.92	87856.1
169	2.000000	1.133846	7.3667e+06	-47089.1	955.82	-29767.5	0.000000	0.000000	7.138338	101.607	NaN	0.000000	0.001660	0.001673	28.1056	42.6988	0.001793	23815.9	6.705130	-4.012352	101.271	1.133426	0.042214	0.041794	101.607	23815.9	0.039014	0.061506	1651.99	87736.9
169	2.000000	1.136334	7.3667e+06	-47089.1	955.819	-29767.5	0.000000	0.000000	7.141293	112.974	NaN	0.000000	0.001693	0.001612	28.1316	45.3124	0.001825	24831.5	6.320319	175.351	111.813	1.136018	0.044701	0.044386	112.974	24831.5	0.041289	0.067402	1676.11	87385.4
169	2.000000	1.138880	7.3667e+06	-47089.1	955.82	-29767.5	0.000000	0.000000	7.144345	125.292	NaN	0.000000	0.001666	0.001670	28.0934	47.2632	0.001733	27276.5	7.563494	-6.570958	124.6	1.138469	0.047247	0.046837	125.292	27276.5	0.043802	0.074223	1688.03	91472.7
169	2.000000	1.141297	7.3667e+06	-47089.1	955.82	-29767.5	0.000000	0.000000	7.147320	138.851	NaN	0.000000	0.001690	0.001668	28.0824	49.3109	0.001834	26892.4	3.527290	177.917	137.416	1.140949	0.049665	0.049317	138.851	26892.4	0.045792	0.079852	1738.85	86947.8
169	2.000000	1.143777	7.3667e+06	-47089.1	955.82	-29767.5	0.000000	0.000000	7.150238	149.508	NaN	0.000000	0.001709	0.001684	28.1055	52.2329	0.001819	28720.3	1.634187	-1.428876	146	1.143461	0.052145	0.051829	149.508	28720.3	0.048240	0.087052	1717.46	88935.1
169	2.000000	1.146288	7.3667e+06	-47089.1	955.82	-29767.5	0.000000	0.000000	7.153338	163.837	NaN	0.000000	0.001696	0.001658	28.1325	56.1507	0.001895	29631.4	5.715840	174.68	164.151	1.146005	0.054656	0.054372	163.837	29631.4	0.050509	0.093993	1743.08	88303.4
169	2.000000	1.148762	7.3667e+06	-47089.1	955.82	-29767.5	0.000000	0.000000	7.156482	180.106	NaN	0.000000	0.001690	0.001682	28.0935	56.3182	0.001737	32424.6	0.395170	-0.599777	175.99	1.148466	0.057130	0.056834	180.106	32424.6	0.052964	0.101795	1769.31	92850.8
169	2.000000	1.151278	7.3667e+06	-47089.1	955.82	-29767.5	0.000000	0.000000	7.159520	192.812	NaN	0.000000	0.001642	0.001709	28.0808	57.885	0.001653	35019.5	1.676921	177.539	191.166	1.150959	0.059646	0.059326	192.812	35019.5	0.055517	0.110225	1749.27	96370.5
169	2.000000	1.153738	7.3667e+06	-47089.1	955.82	-29767.5	0.000000	0.000000	7.162298	200.561	NaN	0.000000	0.001671	0.001649	28.104	61.3066	0.001857	33005.4	2.041495	-2.406797	195.9	1.153498	0.062105	0.061865	200.561	33005.4	0.057548	0.117162	1711.82	88097.6
169	2.000000	1.156256	7.3667e+06	-47089.1	955.821	-29767.5	0.000000	0.000000	7.165681	221.59	NaN	0.000000	0.001653	0.001654	28.1323	63.0673	0.001824	34567.3	3.808638	176.262	218.098	1.155944	0.064624	0.064311	221.59	34567.3	0.059816	0.125149	1770.6	89273.9
169	2.000000	1.158745	7.3667e+06	-47089.1	955.821	-29767.5	0.000000	0.000000	7.168728	235.184	NaN	0.000000	0.001638	0.001657	28.095	64.8806	0.001764	36790.6	4.459120	-5.452511	230.052	1.158426	0.067112	0.066794	235.184	36790.6	0.062318	0.134252	1751.81	91738.2
169	2.000000	1.161344	7.3667e+06	-47089.1	955.821	-29767.5	0.000000	0.000000	7.171959	250.522	NaN	0.000000	0.001610	0.001659	28.0829	67.6517	0.001709	39593.3	5.576651	172.027	252.343	1.161046	0.069712	0.069414	250.522	39593.3	0.064967	0.144218	1737.1	95254.3
169	2.000000	1.163757	7.3667e+06	-47089.1	955.821	-29767.5	0.000000	0.000000	7.174936	264.24	NaN	0.000000	0.001653	0.001642	28.106	71.4113	0.001858	38437	6.039882	-7.942084	260.174	1.163361	0.072125	0.071729	264.24	38437	0.066969	0.151978	1738.67	90080.8
169	2.000000	1.166290	7.3667e+06	-47089.1	955.82	-29767.5	0.000000	0.000000	7.178202	282.079	NaN	0.000000	0.001664	0.001675	28.1325	73.3587	0.001761	41656.4	3.628686	173.828	281.081	1.165920	0.074658	0.074288	282.079	41656.4	0.069579	0.162381	1737.14	94446.9
169	2.000000	1.168910	7.3667e+06	-47089.1	955.821	-29767.5	0.000000	0.000000	7.181310	293.975	NaN	0.000000	0.001653	0.001611	28.0914	75.7817	0.001797	42174.8	4.437225	-6.914474	294.933	1.168536	0.077278	0.076904	293.975	42174.8	0.072050	0.172526	1703.94	92768
169	2.000000	1.171282	7.3667e+06	-47089.1	955.82	-29767.5	0.000000	0.000000	7.184300	309.008	NaN	0.000000	0.001719	0.001611	28.0786	78.2225	0.001916	40834.4	4.206429	173.42	306.35	1.170929	0.079650	0.079296	309.008	40834.4	0.073974	0.180628	1710.74	87782.2
169	2.000000	1.173878	7.3667e+06	-47089.1	955.821	-29767.5	0.000000	0.000000	7.187616	326.5	NaN	0.000000	0.001669	0.001681	28.1032	80.0835	0.001817	44078.3	2.919812	-5.592135	329.199	1.173475	0.082246	0.081843	326.5	44078.3	0.076690	0.192364	1697.31	91819.9
169	2.000000	1.176289	7.3667e+06	-47089.1	955.82	-29767.5	0.000000	0.000000	7.190806	345.453	NaN	0.000000	0.001695	0.001651	28.1314	82.214	0.001729	47540.8	1.960635	174.979	343.639	1.175951	0.084657	0.084318	345.453	47540.8	0.079207	0.203543	1697.2	96274.7
169	2.000000	1.178805	7.3667e+06	-47089.1	955.821	-29767.5	0.000000	0.000000	7.193868	358.734	NaN	0.000000	0.001674	0.001648	28.0929	84.392	0.001808	46667.4	3.073765	-6.434697	356.853	1.178559	0.087172	0.086927	358.734	46667.4	0.081407	0.213561	1679.78	92262.7
169	2.000000	1.181157	7.3667e+06	-47089.1	955.821	-29767.5	0.000000	0.000000	7.197110	380.402	NaN	0.000000	0.001692	0.001655	28.0807	86.4738	0.001864	46386.6	4.252306	172.759	375.347	1.180927	0.089524	0.089295	380.402	46386.6	0.083374	0.222705	1708.1	89805
169	2.000000	1.183711	7.3667e+06	-47089.1	955.821	-29767.5	0.000000	0.000000	7.200209	393.643	NaN	0.000000	0.001670	0.001646	28.1041	88.8585	0.001740	51071.3	4.536998	-8.777798	387.791	1.183575	0.092078	0.091943	393.643	51071.3	0.086297	0.236630	1663.54	95921.4
169	2.000000	1.186256	7.3667e+06	-47089.1	955.821	-29767.5	0.000000	0.000000	7.203644	415.273	NaN	0.000000	0.001675	0.001642	28.1316	92.0308	0.001890	48698.5	4.679211	172.243	412.055	1.185931	0.094624	0.094298	415.273	48698.5	0.088228	0.246042	1687.81	89698.1
169	2.000000	1.188709	7.3667e+06	-47089.1	955.82	-29767.5	0.000000	0.000000	7.207103	439.762	NaN	0.000000	0.001688	0.001660	28.0922	93.4522	0.001880	49705.4	8.039121	-10.898	434.584	1.188354	0.097077	0.096722	439.762	49705.4	0.090441	0.257040	1710.87	89572.8
169	2.000000	1.191306	7.3667e+06	-47089.1	955.82	-29767.5	0.000000	0.000000	7.210186	451.585	NaN	0.000000	0.001679	0.001640	28.0794	95.1715	0.001776	53596	9.260839	166.821	453.67	1.191005	0.099674	0.099372	451.585	53596	0.093354	0.271860	1661.09	93914.5
169	2.000000	1.193661	7.3667e+06	-47089.1	955.821	-29767.5	0.000000	0.000000	7.213467	474.104	NaN	0.000000	0.001685	0.001675	28.1029	96.1411	0.001779	54045.2	1.366580	-4.910068	466.703	1.193408	0.102028	0.101776	474.104	54045.2	0.095449	0.282758	1676.71	92858.8
169	2.000000	1.196267	7.3667e+06	-47089.1	955.821	-29767.5	0.000000	0.000000	7.216744	490.426	NaN	0.000000	0.001691	0.001652	28.131	101.059	0.001799	56160.5	5.711857	169.71	488.574	1.196029	0.104635	0.104397	490.426	56160.5	0.098085	0.296754	1652.64	94190.3
169	2.000000	1.198614	7.3667e+06	-47089.1	955.821	-29767.5	0.000000	0.000000	7.220225	518.026	NaN	0.000000	0.001649	0.001661	28.0928	102.362	0.001824	56122.5	6.496363	-9.935900	508.099	1.198258	0.106981	0.106626	518.026	56122.5	0.100058	0.307438	1684.98	92476.4
169	2.000000	1.199386	7.3667e+06	-47089.1	955.82	-29767.5	0.000000	0.000000	7.220881	515.174	NaN	0.000000	0.001663	0.001658	28.0809	103.964	0.001705	60968.6	6.006106	169.545	523.223	1.198853	0.107754	0.107220	515.174	60968.6	0.101417	0.314895	1636.02	99265.2