File: remote_trans/data/nanoindenter/0828-1/data/Data_2025-08-06,11h17m57s/2025-07-22_16-23-58_1_779.txt
2025-07-22, 16:23:58, 1
Index	Phase	Displacement	Time	Pos X	Pos Y	Pos Z	Rot A	Rot B	Piezo Z	Force A	Force B	Gripper	Voltage A	Voltage B	Temperature	Amplitude force	Amplitude pos	Stiffness	Phase shift	Phase excitation	Force A raw	Displacement raw	HMax	HMax raw	Real Force	Real Stiffness	Contact Depth	Area	Hardness	Reduced Mod.
[#]	[#]	[um]	[s]	[um]	[um]	[um]	[m°]	[m°]	[um]	[uN]	[uN]	[V]	[V]	[V]	[°C]	[uN]	[um]	[N/m]	[°]	[°]	[uN]	[um]	[um]	[um]	[uN]	[N/m]	[um]	[um^2]	[MPa]	[MPa]
779	1.000000	0.002073	7.37267e+06	-39089.1	1055.82	-29795.1	0.000000	0.000000	6.002785	-0.092599	NaN	0.000000	0.001625	0.001735	28.0831	0.062068	0.000807	76.941	179.762	-161.955	-0.094446	0.000831	-1.043425	-1.044667	-0.092599	76.941	-1.042522	-8.469885E+13	1.093269E-15	NaN
779	1.000000	0.010085	7.37267e+06	-39089.1	1055.82	-29795.1	0.000000	0.000000	6.010797	-0.098392	NaN	0.000000	0.001624	0.001776	28.0829	0.070887	0.000907	78.125	-123.212	-160.355	-0.069447	0.008721	-1.035413	-1.036776	-0.098392	78.125	-1.034468	-6.600451E+13	1.490685E-15	NaN
779	1.000000	0.018050	7.37267e+06	-39089.1	1055.82	-29795.1	0.000000	0.000000	6.018765	-0.022546	NaN	0.000000	0.001662	0.001718	28.0828	0.044424	0.001729	25.6961	138.072	-166.341	-0.049549	0.016738	-1.027447	-1.028759	-0.022546	25.6961	-1.026789	-5.203431E+13	4.332910E-16	NaN
779	1.000000	0.026089	7.37267e+06	-39089.1	1055.82	-29795.1	0.000000	0.000000	6.026805	0.006311	NaN	0.000000	0.001630	0.001771	28.0829	0.098089	0.001750	56.0591	-69.3511	-163.362	0.044049	0.024742	-1.019409	-1.020755	0.006311	56.0591	-1.019493	-4.150819E+13	-1.520466E-16	NaN
779	1.000000	0.034071	7.37267e+06	-39089.1	1055.82	-29795.1	0.000000	0.000000	6.034786	-0.024747	NaN	0.000000	0.001648	0.001769	28.0826	0.082430	0.001929	42.7261	5.516531	-171.318	-0.021107	0.032741	-1.011427	-1.012757	-0.024747	42.7261	-1.010992	-3.189591E+13	7.758536E-16	NaN
779	1.000000	0.042005	7.37267e+06	-39089.1	1055.82	-29795.1	0.000000	0.000000	6.042721	0.006219	NaN	0.000000	0.001648	0.001748	28.0831	0.035282	0.001988	17.7438	176.512	-164.039	-0.008372	0.040728	-1.003492	-1.004770	0.006219	17.7438	-1.003755	-2.548737E+13	-2.440146E-16	NaN
779	1.000000	0.050018	7.37267e+06	-39089.1	1055.82	-29795.1	0.000000	0.000000	6.050734	0.009479	NaN	0.000000	0.001663	0.001728	28.0827	0.028302	0.001819	15.5627	-126.518	-165.961	-0.065900	0.048701	-0.995480	-0.996797	0.009479	15.5627	-0.995936	-2.000117E+13	-4.739203E-16	NaN
779	1.000000	0.058077	7.37267e+06	-39089.1	1055.82	-29795.1	0.000000	0.000000	6.058794	0.020207	NaN	0.000000	0.001654	0.001746	28.0827	0.079019	0.002025	39.0222	126.24	-167.116	-0.040778	0.056722	-0.987420	-0.988775	0.020207	39.0222	-0.987808	-1.554505E+13	-1.299881E-15	NaN
779	1.000000	0.066051	7.37267e+06	-39089.1	1055.82	-29795.2	0.000000	0.000000	6.066769	0.051383	NaN	0.000000	0.001630	0.001718	28.0825	0.091429	0.002094	43.6532	-32.0545	-166.836	-0.051775	0.064718	-0.979447	-0.980779	0.051383	43.6532	-0.980330	-1.232680E+13	-4.168375E-15	NaN
779	1.000000	0.074068	7.37267e+06	-39089.1	1055.82	-29795.2	0.000000	0.000000	6.074779	-0.105909	NaN	0.000000	0.001650	0.001745	28.0824	0.018560	0.002036	9.115825	-118.595	-165.437	-0.063964	0.072687	-0.971430	-0.972810	-0.105909	9.115825	-0.962716	-7.136511E+12	1.484043E-14	NaN
779	1.000000	0.082052	7.37267e+06	-39089.1	1055.82	-29795.2	0.000000	0.000000	6.082764	-0.095256	NaN	0.000000	0.001649	0.001744	28.083	0.069250	0.001995	34.708	63.3581	-163.28	-0.059270	0.080705	-0.963446	-0.964792	-0.095256	34.708	-0.961387	-6.848106E+12	1.390989E-14	NaN
779	1.000000	0.090038	7.37267e+06	-39089.1	1055.82	-29795.2	0.000000	0.000000	6.090750	-0.099770	NaN	0.000000	0.001669	0.001707	28.0838	0.039544	0.002084	18.9758	93.7806	-166.037	-0.066574	0.088713	-0.955460	-0.956784	-0.099770	18.9758	-0.951516	-5.040560E+12	1.979341E-14	NaN
779	1.000000	0.098043	7.37267e+06	-39089.1	1055.82	-29795.2	0.000000	0.000000	6.098756	-0.079053	NaN	0.000000	0.001639	0.001708	28.084	0.116816	0.002036	57.3737	158.821	-162.632	-0.050981	0.096711	-0.947455	-0.948787	-0.079053	57.3737	-0.946421	-4.302887E+12	1.837213E-14	NaN
779	1.000000	0.106050	7.37267e+06	-39089.1	1055.82	-29795.2	0.000000	0.000000	6.106764	-0.045778	NaN	0.000000	0.001636	0.001709	28.0839	0.094254	0.002142	43.9955	-40.1606	-163.484	-0.032815	0.104787	-0.939447	-0.940710	-0.045778	43.9955	-0.938667	-3.381809E+12	1.353656E-14	NaN
779	1.000000	0.114052	7.37267e+06	-39089.1	1055.82	-29795.2	0.000000	0.000000	6.114767	-0.039529	NaN	0.000000	0.001633	0.001709	28.0838	0.171788	0.001961	87.6146	65.1551	-164.841	-0.051162	0.112781	-0.931445	-0.932716	-0.039529	87.6146	-0.931107	-2.673843E+12	1.478346E-14	NaN
779	1.000000	0.122068	7.37267e+06	-39089.1	1055.82	-29795.2	0.000000	0.000000	6.122783	-0.019445	NaN	0.000000	0.001635	0.001717	28.0839	0.090955	0.002046	44.4467	166.514	-165.678	-0.064568	0.120718	-0.923430	-0.924779	-0.019445	44.4467	-0.923102	-2.084879E+12	9.326875E-15	NaN
779	1.000000	0.130071	7.37267e+06	-39089.1	1055.82	-29795.2	0.000000	0.000000	6.130787	0.007469	NaN	0.000000	0.001604	0.001727	28.0838	0.090403	0.002001	45.1861	40.8673	-163.739	0.043287	0.128737	-0.915426	-0.916760	0.007469	45.1861	-0.915550	-1.648631E+12	-4.530565E-15	NaN
779	1.000000	0.138054	7.37267e+06	-39089.1	1055.82	-29795.2	0.000000	0.000000	6.138771	-0.000485	NaN	0.000000	0.001599	0.001716	28.0839	0.128308	0.001976	64.9403	-75.6277	-161.655	-0.029181	0.136731	-0.907443	-0.908766	-0.000485	64.9403	-0.907437	-1.280994E+12	3.783940E-16	NaN
779	1.000000	0.146091	7.37267e+06	-39089.1	1055.82	-29795.2	0.000000	0.000000	6.146807	-0.006357	NaN	0.000000	0.001612	0.001722	28.0838	0.026025	0.001917	13.5733	-10.1826	-163.112	-0.024483	0.144755	-0.899406	-0.900742	-0.006357	13.5733	-0.899055	-9.869564E+11	6.441119E-15	NaN
779	1.000000	0.154059	7.37267e+06	-39089.1	1055.82	-29795.2	0.000000	0.000000	6.154774	-0.015912	NaN	0.000000	0.001580	0.001759	28.0837	0.050520	0.002009	25.1499	-92.1299	-164.398	0.029130	0.152795	-0.891438	-0.892702	-0.015912	25.1499	-0.890964	-7.672633E+11	2.073829E-14	NaN
779	1.000000	0.162090	7.37267e+06	-39089.1	1055.82	-29795.2	0.000000	0.000000	6.162803	-0.066855	NaN	0.000000	0.001562	0.001724	28.0836	0.084354	0.002116	39.8558	-125.696	-165.464	-0.052396	0.160760	-0.883407	-0.884738	-0.066855	39.8558	-0.882149	-5.831422E+11	1.146468E-13	NaN
779	1.000000	0.170055	7.37267e+06	-39089.1	1055.82	-29795.2	0.000000	0.000000	6.170770	-0.027277	NaN	0.000000	0.001587	0.001700	28.0837	0.052616	0.001917	27.4411	179.099	-162.505	-0.101651	0.168777	-0.875443	-0.876720	-0.027277	27.4411	-0.874697	-4.623682E+11	5.899508E-14	NaN
779	1.000000	0.178081	7.37267e+06	-39089.1	1055.82	-29795.2	0.000000	0.000000	6.178798	0.023848	NaN	0.000000	0.001643	0.001733	28.0838	0.108762	0.001976	55.0338	120.474	-162.542	-0.054424	0.176781	-0.867416	-0.868717	0.023848	55.0338	-0.867741	-3.722898E+11	-6.405718E-14	NaN
779	1.000000	0.186078	7.37267e+06	-39089.1	1055.82	-29795.2	0.000000	0.000000	6.186793	-0.041868	NaN	0.000000	0.001612	0.001727	28.0839	0.057853	0.002055	28.1552	-55.1749	-162.783	-0.134488	0.184790	-0.859419	-0.860707	-0.041868	28.1552	-0.858304	-2.774330E+11	1.509108E-13	NaN
779	1.000000	0.194093	7.37267e+06	-39089.1	1055.82	-29795.2	0.000000	0.000000	6.194806	-0.061545	NaN	0.000000	0.001661	0.001725	28.0837	0.163022	0.001985	82.1074	-49.8137	-166.501	-0.092066	0.192826	-0.851405	-0.852671	-0.061545	82.1074	-0.850843	-2.198601E+11	2.799264E-13	NaN
779	1.000000	0.202101	7.37267e+06	-39089.1	1055.82	-29795.2	0.000000	0.000000	6.202816	-0.035194	NaN	0.000000	0.001636	0.001716	28.0836	0.075811	0.002035	37.2561	151.52	-165.637	-0.049947	0.200811	-0.843396	-0.844687	-0.035194	37.2561	-0.842688	-1.704908E+11	2.064284E-13	NaN
779	1.000000	0.210097	7.37267e+06	-39089.1	1055.82	-29795.2	0.000000	0.000000	6.210811	-0.050634	NaN	0.000000	0.001607	0.001712	28.0837	0.112778	0.002024	55.7132	-89.8767	-163.999	0.019836	0.208796	-0.835400	-0.836701	-0.050634	55.7132	-0.834719	-1.329637E+11	3.808134E-13	NaN
779	1.000000	0.218086	7.37267e+06	-39089.1	1055.82	-29795.2	0.000000	0.000000	6.218802	-0.016567	NaN	0.000000	0.001570	0.001728	28.0835	0.037248	0.001995	18.6707	-102.369	-166.578	-0.101247	0.216778	-0.827411	-0.828719	-0.016567	18.6707	-0.826746	-1.036747E+11	1.597997E-13	NaN
779	1.000000	0.226109	7.37267e+06	-39089.1	1055.82	-29795.2	0.000000	0.000000	6.226822	-0.065209	NaN	0.000000	0.001579	0.001738	28.0823	0.048835	0.002036	23.9877	-163.705	-169.828	-0.080715	0.224794	-0.819388	-0.820703	-0.065209	23.9877	-0.817350	-7.731574E+10	8.434054E-13	NaN
779	1.000000	0.234108	7.37267e+06	-39089.1	1055.82	-29795.2	0.000000	0.000000	6.234825	0.031180	NaN	0.000000	0.001610	0.001707	28.0823	0.109747	0.001974	55.6	113.35	-163.7	0.046916	0.232820	-0.811390	-0.812678	0.031180	55.6	-0.811810	-6.503246E+10	-4.794479E-13	NaN
779	1.000000	0.242102	7.37267e+06	-39089.1	1055.82	-29795.2	0.000000	0.000000	6.242821	0.070109	NaN	0.000000	0.001590	0.001725	28.0824	0.100891	0.002004	50.3345	15.5583	-168.131	0.052508	0.240771	-0.803396	-0.804726	0.070109	50.3345	-0.804440	-5.165702E+10	-1.357206E-12	NaN
779	1.000000	0.250105	7.37267e+06	-39089.1	1055.82	-29795.2	0.000000	0.000000	6.250821	0.012108	NaN	0.000000	0.001607	0.001726	28.0826	0.044967	0.002028	22.1708	-1.077533	-165.024	0.006909	0.248811	-0.795392	-0.796687	0.012108	22.1708	-0.795802	-3.943414E+10	-3.070432E-13	NaN
779	1.000000	0.258120	7.37267e+06	-39089.1	1055.82	-29795.2	0.000000	0.000000	6.258833	-0.072875	NaN	0.000000	0.001589	0.001727	28.0824	0.035693	0.001989	17.9408	114.018	-164.664	-0.082666	0.256818	-0.787377	-0.788679	-0.072875	17.9408	-0.784331	-2.754709E+10	2.645477E-12	NaN
779	1.000000	0.266122	7.37267e+06	-39089.1	1055.82	-29795.2	0.000000	0.000000	6.266836	-0.053135	NaN	0.000000	0.001584	0.001763	28.0824	0.137280	0.001970	69.6802	-27.6002	-166.405	0.065397	0.264761	-0.779375	-0.780737	-0.053135	69.6802	-0.778803	-2.317204E+10	2.293051E-12	NaN
779	1.000000	0.274136	7.37267e+06	-39089.1	1055.82	-29795.2	0.000000	0.000000	6.274850	-0.047919	NaN	0.000000	0.001544	0.001727	28.0824	0.116571	0.002036	57.25	108.184	-162.508	0.035905	0.272790	-0.771361	-0.772707	-0.047919	57.25	-0.770733	-1.800019E+10	2.662114E-12	NaN
779	1.000000	0.282160	7.37267e+06	-39089.1	1055.82	-29795.2	0.000000	0.000000	6.282873	-0.083951	NaN	0.000000	0.001565	0.001704	28.0825	0.002165	0.002167	0.998758	59.5897	-163.807	-0.083211	0.280831	-0.763337	-0.764667	-0.083951	0.998758	-0.700296	-1.975022E+9	4.250613E-11	NaN
779	1.000000	0.290097	7.37267e+06	-39089.1	1055.82	-29795.2	0.000000	0.000000	6.290812	-0.013366	NaN	0.000000	0.001631	0.001702	28.0827	0.046496	0.001985	23.4179	70.0584	-162.918	-0.052874	0.288803	-0.755401	-0.756695	-0.013366	23.4179	-0.754972	-1.098743E+10	1.216496E-12	NaN
779	1.000000	0.298156	7.37267e+06	-39089.1	1055.82	-29795.2	0.000000	0.000000	6.298872	0.006249	NaN	0.000000	0.001634	0.001724	28.0826	0.162805	0.001939	83.9834	153.84	-166.316	-0.020782	0.296795	-0.747342	-0.748703	0.006249	83.9834	-0.747398	-8.665456E+9	-7.211066E-13	NaN
779	1.000000	0.306124	7.37267e+06	-39089.1	1055.82	-29795.2	0.000000	0.000000	6.306839	-0.021410	NaN	0.000000	0.001608	0.001689	28.0826	0.024637	0.001946	12.6612	-92.1952	-163.057	-0.010526	0.304799	-0.739373	-0.740698	-0.021410	12.6612	-0.738105	-6.475072E+9	3.306500E-12	NaN
779	1.000000	0.314177	7.37267e+06	-39089.1	1055.82	-29795.2	0.000000	0.000000	6.314895	0.025638	NaN	0.000000	0.001599	0.001767	28.0827	0.071445	0.001990	35.8947	22.9513	-167.528	-0.033286	0.312820	-0.731320	-0.732678	0.025638	35.8947	-0.731856	-5.322256E+9	-4.817148E-12	NaN
779	1.000000	0.322155	7.37267e+06	-39089.1	1055.82	-29795.2	0.000000	0.000000	6.322870	-0.023502	NaN	0.000000	0.001620	0.001738	28.0824	0.035669	0.002063	17.2897	-42.1657	-163.131	-0.101585	0.320822	-0.723343	-0.724675	-0.023502	17.2897	-0.722323	-3.945963E+9	5.955924E-12	NaN
779	1.000000	0.330129	7.37267e+06	-39089.1	1055.82	-29795.2	0.000000	0.000000	6.330844	-0.026663	NaN	0.000000	0.001654	0.001791	28.0826	0.070965	0.002014	35.2394	113.913	-164.781	0.053933	0.328829	-0.715369	-0.716669	-0.026663	35.2394	-0.714801	-3.115721E+9	8.557449E-12	NaN
779	1.000000	0.338148	7.37267e+06	-39089.1	1055.82	-29795.2	0.000000	0.000000	6.338862	-0.034354	NaN	0.000000	0.001660	0.001795	28.0827	0.047547	0.001936	24.5546	135.145	-166.122	-0.011329	0.336833	-0.707350	-0.708664	-0.034354	24.5546	-0.706300	-2.385356E+9	1.440184E-11	NaN
779	1.000000	0.346140	7.37268e+06	-39089.1	1055.82	-29795.2	0.000000	0.000000	6.346852	-0.100189	NaN	0.000000	0.001669	0.001765	28.0826	0.151005	0.001959	77.0726	91.6921	-165.214	-0.033356	0.344853	-0.699357	-0.700644	-0.100189	77.0726	-0.698382	-1.859663E+9	5.387476E-11	NaN
779	1.000000	0.354154	7.37268e+06	-39089.1	1055.82	-29795.2	0.000000	0.000000	6.354869	-0.029312	NaN	0.000000	0.001644	0.001726	28.0823	0.062210	0.001975	31.5041	-22.0896	-164.429	-0.040454	0.352860	-0.691344	-0.692637	-0.029312	31.5041	-0.690646	-1.457950E+9	2.010514E-11	NaN
779	1.000000	0.362166	7.37268e+06	-39089.1	1055.82	-29795.2	0.000000	0.000000	6.362880	-0.061600	NaN	0.000000	0.001601	0.001710	28.0836	0.039347	0.001922	20.4723	-106.666	-160.268	-0.008182	0.360863	-0.683331	-0.684635	-0.061600	20.4723	-0.681074	-1.078696E+9	5.710626E-11	NaN
779	1.000000	0.370171	7.37268e+06	-39089.1	1055.82	-29795.2	0.000000	0.000000	6.370887	0.010452	NaN	0.000000	0.001606	0.001783	28.0838	0.069191	0.002044	33.8502	149.607	-165.196	-0.017585	0.368871	-0.675326	-0.676626	0.010452	33.8502	-0.675558	-9.066621E+8	-1.152784E-11	NaN
779	1.000000	0.378187	7.37268e+06	-39089.1	1055.82	-29795.2	0.000000	0.000000	6.378902	-0.018393	NaN	0.000000	0.001624	0.001774	28.0836	0.065061	0.002089	31.1389	120.234	-165.696	-0.038568	0.376851	-0.667311	-0.668646	-0.018393	31.1389	-0.666868	-6.894666E+8	2.667649E-11	NaN
779	1.000000	0.386174	7.37268e+06	-39089.1	1055.82	-29795.2	0.000000	0.000000	6.386891	0.007888	NaN	0.000000	0.001613	0.001753	28.0838	0.025997	0.001970	13.1971	12.2952	-163.505	0.064199	0.384876	-0.659323	-0.660622	0.007888	13.1971	-0.659771	-5.512331E+8	-1.430924E-11	NaN
779	1.000000	0.394200	7.37268e+06	-39089.1	1055.82	-29795.2	0.000000	0.000000	6.394919	0.053527	NaN	0.000000	0.001617	0.001779	28.0838	0.085246	0.002053	41.5293	-22.033	-164.573	0.080049	0.392854	-0.651297	-0.652644	0.053527	41.5293	-0.652264	-4.349772E+8	-1.230566E-10	NaN
779	1.000000	0.402169	7.37268e+06	-39089.1	1055.82	-29795.2	0.000000	0.000000	6.402885	0.017345	NaN	0.000000	0.001638	0.001749	28.0841	0.033991	0.001986	17.1125	179.215	-165.509	-0.004654	0.400878	-0.643329	-0.644619	0.017345	17.1125	-0.644089	-3.360335E+8	-5.161573E-11	NaN
779	1.000000	0.410179	7.37268e+06	-39089.1	1055.82	-29795.2	0.000000	0.000000	6.410895	-0.006298	NaN	0.000000	0.001661	0.001710	28.0841	0.019170	0.002047	9.365873	-91.0215	-166.778	-0.003894	0.408819	-0.635318	-0.636678	-0.006298	9.365873	-0.634814	-2.506799E+8	2.512355E-11	NaN
779	1.000000	0.418141	7.37268e+06	-39089.1	1055.82	-29795.2	0.000000	0.000000	6.418858	0.016222	NaN	0.000000	0.001643	0.001689	28.0842	0.050090	0.002034	24.6309	-60.6116	-164.343	-0.004665	0.416916	-0.627356	-0.628582	0.016222	24.6309	-0.627850	-2.011393E+8	-8.064923E-11	NaN
779	1.000000	0.426197	7.37268e+06	-39089.1	1055.82	-29795.2	0.000000	0.000000	6.426913	0.003420	NaN	0.000000	0.001652	0.001713	28.0838	0.051660	0.001959	26.373	151.945	-166.84	-0.031203	0.424851	-0.619301	-0.620646	0.003420	26.373	-0.619398	-1.539425E+8	-2.221476E-11	NaN
779	1.000000	0.434207	7.37268e+06	-39089.1	1055.82	-29795.2	0.000000	0.000000	6.434922	-0.036009	NaN	0.000000	0.001645	0.001737	28.0839	0.074597	0.002037	36.6216	-90.0278	-162.528	-0.085089	0.432845	-0.611290	-0.612652	-0.036009	36.6216	-0.610553	-1.163375E+8	3.095221E-10	NaN
779	1.000000	0.442232	7.37268e+06	-39089.1	1055.82	-29795.2	0.000000	0.000000	6.442948	0.005845	NaN	0.000000	0.001607	0.001724	28.0841	0.088459	0.002094	42.253	94.0988	-166.875	0.039781	0.440846	-0.603265	-0.604652	0.005845	42.253	-0.603369	-9.265177E+7	-6.308806E-11	NaN
779	1.000000	0.450194	7.37268e+06	-39089.1	1055.82	-29795.2	0.000000	0.000000	6.450908	-0.051332	NaN	0.000000	0.001652	0.001700	28.084	0.067740	0.002029	33.378	96.2079	-167.001	-0.054439	0.448872	-0.595304	-0.596625	-0.051332	33.378	-0.594150	-6.916260E+7	7.421983E-10	NaN
779	1.000000	0.458211	7.37268e+06	-39089.1	1055.82	-29795.2	0.000000	0.000000	6.458927	0.009904	NaN	0.000000	0.001628	0.001687	28.0837	0.182911	0.001933	94.621	48.6936	-167.888	-0.093416	0.456852	-0.587286	-0.588645	0.009904	94.621	-0.587365	-5.576135E+7	-1.776063E-10	NaN
779	1.000000	0.466188	7.37268e+06	-39089.1	1055.82	-29795.2	0.000000	0.000000	6.466901	-0.059269	NaN	0.000000	0.001599	0.001699	28.0838	0.070504	0.001903	37.0555	-171.621	-163.034	-0.105811	0.464921	-0.579310	-0.580576	-0.059269	37.0555	-0.578110	-4.155655E+7	1.426221E-9	NaN
779	1.000000	0.474186	7.37268e+06	-39089.1	1055.82	-29795.2	0.000000	0.000000	6.474901	-0.023306	NaN	0.000000	0.001639	0.001740	28.0837	0.096403	0.002003	48.1209	-75.6174	-164.213	0.034186	0.472888	-0.571311	-0.572610	-0.023306	48.1209	-0.570948	-3.309277E+7	7.042517E-10	NaN
779	1.000000	0.482212	7.37268e+06	-39089.1	1055.82	-29795.2	0.000000	0.000000	6.482929	0.025772	NaN	0.000000	0.001634	0.001697	28.0836	0.107378	0.002005	53.5531	122.85	-165.712	0.085336	0.480920	-0.563285	-0.564578	0.025772	53.5531	-0.563646	-2.623043E+7	-9.825260E-10	NaN
779	1.000000	0.490205	7.37268e+06	-39089.1	1055.82	-29795.2	0.000000	0.000000	6.490920	-0.024202	NaN	0.000000	0.001617	0.001736	28.0835	0.085236	0.001949	43.7262	-170.033	-163.835	-0.037074	0.488940	-0.555292	-0.556557	-0.024202	43.7262	-0.554877	-1.983755E+7	1.220016E-9	NaN
779	1.000000	0.498211	7.37268e+06	-39089.1	1055.82	-29795.2	0.000000	0.000000	6.498926	-0.036876	NaN	0.000000	0.001627	0.001745	28.0822	0.119273	0.002085	57.1983	-75.5252	-166.144	-0.085548	0.496911	-0.547286	-0.548587	-0.036876	57.1983	-0.546803	-1.533424E+7	2.404822E-9	NaN
779	1.000000	0.506188	7.37268e+06	-39089.1	1055.82	-29795.2	0.000000	0.000000	6.506904	-0.000528	NaN	0.000000	0.001600	0.001740	28.0824	0.029667	0.001945	15.2534	-97.2094	-162.837	0.017589	0.504943	-0.539310	-0.540555	-0.000528	15.2534	-0.539284	-1.206206E+7	4.375119E-11	NaN
779	1.000000	0.514238	7.37268e+06	-39089.1	1055.82	-29795.2	0.000000	0.000000	6.514956	0.037569	NaN	0.000000	0.001618	0.001732	28.0822	0.046179	0.001936	23.8541	-39.4891	-164.777	-0.011899	0.512916	-0.531259	-0.532581	0.037569	23.8541	-0.532440	-9.69296e+06	-3.875890E-9	NaN
779	1.000000	0.522241	7.37268e+06	-39089.1	1055.82	-29795.2	0.000000	0.000000	6.522956	-0.026661	NaN	0.000000	0.001592	0.001750	28.0824	0.017020	0.001974	8.621046	-111.75	-162.796	-0.036205	0.520895	-0.523257	-0.524602	-0.026661	8.621046	-0.520937	-6.70859e+06	3.974181E-9	NaN
779	1.000000	0.530187	7.37268e+06	-39089.1	1055.82	-29795.2	0.000000	0.000000	6.530905	0.032102	NaN	0.000000	0.001573	0.001729	28.0822	0.068603	0.002006	34.2042	53.7609	-166.986	0.013414	0.528960	-0.515310	-0.516538	0.032102	34.2042	-0.516014	-5.72983e+06	-5.602627E-9	NaN
779	1.000000	0.538233	7.37268e+06	-39089.1	1055.82	-29795.2	0.000000	0.000000	6.538953	0.078999	NaN	0.000000	0.001558	0.001726	28.0825	0.027587	0.002048	13.4708	174.304	-164.911	0.134719	0.536967	-0.507264	-0.508531	0.078999	13.4708	-0.511662	-4.98388e+06	-1.585084E-8	NaN
779	1.000000	0.546220	7.37268e+06	-39089.1	1055.82	-29795.2	0.000000	0.000000	6.546938	0.050770	NaN	0.000000	0.001595	0.001740	28.0823	0.101511	0.001970	51.522	165.295	-164.473	-0.051329	0.544983	-0.499277	-0.500514	0.050770	51.522	-0.500017	-3.42964e+06	-1.480321E-8	NaN
779	1.000000	0.554227	7.37268e+06	-39089.1	1055.82	-29795.2	0.000000	0.000000	6.554945	0.056386	NaN	0.000000	0.001556	0.001710	28.0822	0.066840	0.002006	33.3136	29.992	-163.609	-0.039592	0.552980	-0.491270	-0.492517	0.056386	33.3136	-0.492540	-2.69699e+06	-2.090695E-8	NaN
779	1.000000	0.562233	7.37268e+06	-39089.1	1055.82	-29795.2	0.000000	0.000000	6.562950	0.021470	NaN	0.000000	0.001513	0.001728	28.0824	0.155606	0.002047	76.0113	-70.9769	-164.317	0.055221	0.560943	-0.483264	-0.484554	0.021470	76.0113	-0.483476	-2.01451e+06	-1.065749E-8	NaN
779	1.000000	0.570238	7.37268e+06	-39089.1	1055.82	-29795.2	0.000000	0.000000	6.570954	-0.020860	NaN	0.000000	0.001527	0.001755	28.0822	0.058793	0.002030	28.9617	-111.53	-166.344	-0.071649	0.568904	-0.475259	-0.476593	-0.020860	28.9617	-0.474719	-1.519e+06	1.373268E-8	NaN
779	1.000000	0.578225	7.37268e+06	-39089.1	1055.82	-29795.2	0.000000	0.000000	6.578942	0.003363	NaN	0.000000	0.001627	0.001718	28.0824	0.084492	0.001945	43.435	-105.524	-164.187	-0.052632	0.576951	-0.467272	-0.468546	0.003363	43.435	-0.467330	-1.19661e+06	-2.810185E-9	NaN
779	1.000000	0.586265	7.37268e+06	-39089.1	1055.82	-29795.2	0.000000	0.000000	6.586983	0.027260	NaN	0.000000	0.001604	0.001729	28.0823	0.045086	0.001795	25.1193	171.63	-165.262	0.025695	0.584916	-0.459232	-0.460581	0.027260	25.1193	-0.460046	-945501	-2.883159E-8	NaN
779	1.000000	0.594257	7.37268e+06	-39089.1	1055.82	-29795.2	0.000000	0.000000	6.594972	-0.027522	NaN	0.000000	0.001627	0.001731	28.0826	0.078869	0.002109	37.3926	25.9879	-164.257	0.005248	0.592897	-0.451240	-0.452601	-0.027522	37.3926	-0.450688	-698278	3.941376E-8	NaN
779	1.000000	0.602267	7.37268e+06	-39089.1	1055.82	-29795.2	0.000000	0.000000	6.602983	0.006663	NaN	0.000000	0.001602	0.001741	28.0827	0.084565	0.002044	41.3719	-175.09	-162.079	0.067802	0.600943	-0.443231	-0.444555	0.006663	41.3719	-0.443351	-550358	-1.210593E-8	NaN
779	1.000000	0.610291	7.37268e+06	-39089.1	1055.82	-29795.2	0.000000	0.000000	6.611008	0.025375	NaN	0.000000	0.001572	0.001728	28.0824	0.054223	0.001861	29.1321	-9.487095	-164.446	0.046252	0.608969	-0.435206	-0.436528	0.025375	29.1321	-0.435859	-431415	-5.881860E-8	NaN
779	1.000000	0.618286	7.37268e+06	-39089.1	1055.82	-29795.2	0.000000	0.000000	6.619002	-0.004564	NaN	0.000000	0.001588	0.001761	28.0824	0.109204	0.001968	55.4786	-102.259	-165.909	-0.018007	0.616932	-0.427211	-0.428565	-0.004564	55.4786	-0.427150	-324881	1.404883E-8	NaN
779	1.000000	0.626289	7.37268e+06	-39089.1	1055.82	-29795.2	0.000000	0.000000	6.627008	0.061995	NaN	0.000000	0.001637	0.001749	28.0824	0.044318	0.001883	23.5323	-127.328	-162.345	0.054846	0.624974	-0.419208	-0.420523	0.061995	23.5323	-0.421184	-267425	-2.318218E-7	NaN
779	1.000000	0.634261	7.37268e+06	-39089.1	1055.82	-29795.2	0.000000	0.000000	6.634976	-0.028995	NaN	0.000000	0.001621	0.001719	28.0837	0.048267	0.002137	22.5849	142.598	-165.11	-0.020355	0.632971	-0.411236	-0.412526	-0.028995	22.5849	-0.410273	-187193	1.548921E-7	NaN
779	1.000000	0.642277	7.37268e+06	-39089.1	1055.82	-29795.2	0.000000	0.000000	6.642992	-0.022099	NaN	0.000000	0.001604	0.001733	28.084	0.057586	0.001994	28.8746	-108.674	-164.495	-0.002199	0.640965	-0.403220	-0.404533	-0.022099	28.8746	-0.402646	-145786	1.515825E-7	NaN
779	1.000000	0.650316	7.37268e+06	-39089.1	1055.82	-29795.2	0.000000	0.000000	6.651028	-0.087093	NaN	0.000000	0.001617	0.001733	28.0843	0.067464	0.002059	32.7623	123.29	-164.514	-0.043729	0.648942	-0.395182	-0.396555	-0.087093	32.7623	-0.393188	-106843	8.151541E-7	NaN
779	1.000000	0.658298	7.37268e+06	-39089.1	1055.82	-29795.2	0.000000	0.000000	6.659014	-0.004463	NaN	0.000000	0.001605	0.001736	28.0837	0.076525	0.001985	38.5492	-162.596	-166.301	0.001880	0.656935	-0.387199	-0.388562	-0.004463	38.5492	-0.387112	-87466.3	5.103088E-8	NaN
779	1.000000	0.666284	7.37268e+06	-39089.1	1055.82	-29795.2	0.000000	0.000000	6.666997	-0.064012	NaN	0.000000	0.001601	0.001711	28.0838	0.072317	0.001782	40.5885	54.4605	-167.082	-0.045701	0.664932	-0.379213	-0.380565	-0.064012	40.5885	-0.378031	-64806.3	9.877378E-7	NaN
779	1.000000	0.674289	7.37268e+06	-39089.1	1055.82	-29795.2	0.000000	0.000000	6.675008	0.063043	NaN	0.000000	0.001601	0.001763	28.0835	0.018087	0.002052	8.815016	-171.687	-164.82	0.015583	0.672951	-0.371208	-0.372546	0.063043	8.815016	-0.376572	-61753.3	-1.020882E-6	NaN
779	1.000000	0.682279	7.37268e+06	-39089.1	1055.82	-29795.2	0.000000	0.000000	6.682994	-0.034136	NaN	0.000000	0.001593	0.001723	28.0839	0.032220	0.002001	16.1057	-45.5844	-166.682	-0.129999	0.680979	-0.363219	-0.364518	-0.034136	16.1057	-0.361629	-37617.1	9.074490E-7	NaN
779	1.000000	0.690296	7.37268e+06	-39089.1	1055.82	-29795.2	0.000000	0.000000	6.691013	0.035601	NaN	0.000000	0.001596	0.001727	28.084	0.060860	0.001877	32.4262	18.9434	-164.518	0.004335	0.688971	-0.355202	-0.356526	0.035601	32.4262	-0.356025	-31213.5	-1.140564E-6	NaN
779	1.000000	0.698278	7.37268e+06	-39089.1	1055.82	-29795.2	0.000000	0.000000	6.698993	-0.032927	NaN	0.000000	0.001601	0.001722	28.0838	0.027255	0.001776	15.3492	112.981	-167.329	-0.003002	0.697015	-0.347220	-0.348483	-0.032927	15.3492	-0.345611	-22041.3	1.493853E-6	NaN
779	1.000000	0.706326	7.37268e+06	-39089.1	1055.82	-29795.2	0.000000	0.000000	6.707042	-0.004667	NaN	0.000000	0.001641	0.001759	28.0839	0.064925	0.001996	32.5195	-176.675	-164.009	-0.001871	0.705019	-0.339172	-0.340479	-0.004667	32.5195	-0.339064	-17697.2	2.637316E-7	NaN
779	1.000000	0.714329	7.37268e+06	-39089.1	1055.82	-29795.2	0.000000	0.000000	6.715048	0.049711	NaN	0.000000	0.001689	0.001750	28.0836	0.118277	0.002142	55.2297	116.088	-163.526	-0.015928	0.713056	-0.331168	-0.332441	0.049711	55.2297	-0.331843	-13881.3	-3.581186E-6	NaN
779	1.000000	0.722295	7.37268e+06	-39089.1	1055.82	-29795.2	0.000000	0.000000	6.723012	0.027460	NaN	0.000000	0.001693	0.001739	28.0835	0.038137	0.001881	20.2711	77.3706	-165.297	0.113375	0.721008	-0.323203	-0.324490	0.027460	20.2711	-0.324219	-10731.6	-2.558837E-6	NaN
779	1.000000	0.730328	7.37268e+06	-39089.1	1055.82	-29795.2	0.000000	0.000000	6.731042	-0.071492	NaN	0.000000	0.001682	0.001752	28.0836	0.097750	0.002087	46.8447	176.71	-160.261	-0.061168	0.728979	-0.315169	-0.316518	-0.071492	46.8447	-0.314024	-7595.32	9.412574E-6	NaN
779	1.000000	0.738308	7.37268e+06	-39089.1	1055.82	-29795.2	0.000000	0.000000	6.739026	0.034606	NaN	0.000000	0.001668	0.001757	28.0836	0.071080	0.002029	35.0393	51.8305	-167.388	0.006107	0.737049	-0.307189	-0.308448	0.034606	35.0393	-0.307930	-6171.7	-5.607236E-6	NaN
779	1.000000	0.746328	7.37268e+06	-39089.1	1055.82	-29795.2	0.000000	0.000000	6.747044	-0.011573	NaN	0.000000	0.001675	0.001712	28.0839	0.041374	0.001893	21.8534	119.912	-165.918	0.027833	0.745015	-0.299169	-0.300483	-0.011573	21.8534	-0.298772	-4511.75	2.564977E-6	NaN
779	1.000000	0.754333	7.37268e+06	-39089.1	1055.82	-29795.2	0.000000	0.000000	6.755050	0.018658	NaN	0.000000	0.001671	0.001738	28.0838	0.102121	0.001914	53.3415	159.291	-167.54	0.047137	0.753074	-0.291164	-0.292423	0.018658	53.3415	-0.291427	-3504.81	-5.323407E-6	NaN
779	1.000000	0.762327	7.37268e+06	-39089.1	1055.82	-29795.2	0.000000	0.000000	6.763041	-0.044144	NaN	0.000000	0.001698	0.001764	28.0839	0.061131	0.001908	32.0321	160.561	-164.345	-0.019240	0.760977	-0.283171	-0.284520	-0.044144	32.0321	-0.282137	-2542.05	1.736550E-5	NaN
779	1.000000	0.770314	7.37268e+06	-39089.1	1055.82	-29795.2	0.000000	0.000000	6.771031	0.038521	NaN	0.000000	0.001693	0.001788	28.0825	0.085205	0.002114	40.2965	155.306	-167.028	-0.108632	0.769024	-0.275184	-0.276474	0.038521	40.2965	-0.275901	-2046.6	-1.882183E-5	NaN
779	1.000000	0.778321	7.37268e+06	-39089.1	1055.82	-29795.2	0.000000	0.000000	6.779037	0.000704	NaN	0.000000	0.001685	0.001764	28.0825	0.079925	0.001918	41.6614	96.1128	-163.938	-0.054116	0.777011	-0.267176	-0.268487	0.000704	41.6614	-0.267189	-1509.27	-4.665698E-7	NaN
779	1.000000	0.786350	7.37268e+06	-39089.1	1055.82	-29795.2	0.000000	0.000000	6.787068	0.066918	NaN	0.000000	0.001692	0.001784	28.0825	0.050323	0.002131	23.6094	-3.495185	-167.905	0.048909	0.785052	-0.259148	-0.260445	0.066918	23.6094	-0.261274	-1225.82	-5.459072E-5	NaN
779	1.000000	0.794339	7.37268e+06	-39089.1	1055.82	-29795.2	0.000000	0.000000	6.795056	0.022279	NaN	0.000000	0.001629	0.001749	28.0823	0.121615	0.001993	61.0149	-69.8048	-167.397	0.095098	0.793028	-0.251158	-0.252470	0.022279	61.0149	-0.251432	-865.165	-2.575101E-5	NaN
779	1.000000	0.802335	7.37268e+06	-39089.1	1055.82	-29795.2	0.000000	0.000000	6.803049	-0.034166	NaN	0.000000	0.001592	0.001724	28.0825	0.094132	0.002001	47.0333	-121.277	-165.289	-0.017478	0.801031	-0.243163	-0.244467	-0.034166	47.0333	-0.242618	-631.522	5.410120E-5	NaN
779	1.000000	0.810350	7.37268e+06	-39089.1	1055.82	-29795.2	0.000000	0.000000	6.811069	0.066486	NaN	0.000000	0.001611	0.001695	28.0826	0.045001	0.002070	21.7421	-168.751	-165.305	0.033100	0.809023	-0.235147	-0.236474	0.066486	21.7421	-0.237441	-524.234	-0.000127	NaN
779	1.000000	0.818353	7.37268e+06	-39089.1	1055.82	-29795.2	0.000000	0.000000	6.819066	-0.086857	NaN	0.000000	0.001600	0.001717	28.0826	0.060882	0.002079	29.2866	7.669287	-164.218	-0.092785	0.817046	-0.227144	-0.228451	-0.086857	29.2866	-0.224920	-332.708	0.000261	NaN
779	1.000000	0.826348	7.37268e+06	-39089.1	1055.82	-29795.2	0.000000	0.000000	6.827064	-0.010102	NaN	0.000000	0.001585	0.001715	28.0824	0.099799	0.001940	51.4544	-116.726	-166.286	-0.006673	0.825056	-0.219149	-0.220441	-0.010102	51.4544	-0.219002	-267.742	3.773122E-5	NaN
779	1.000000	0.834364	7.37268e+06	-39089.1	1055.82	-29795.2	0.000000	0.000000	6.835077	-0.074970	NaN	0.000000	0.001568	0.001733	28.0824	0.158767	0.002009	79.0086	89.7817	-166.836	-0.078831	0.833081	-0.211133	-0.212416	-0.074970	79.0086	-0.210421	-194.823	0.000385	NaN
779	1.000000	0.842346	7.37268e+06	-39089.1	1055.82	-29795.2	0.000000	0.000000	6.843059	-0.068723	NaN	0.000000	0.001574	0.001758	28.0822	0.121972	0.001929	63.2274	13.7421	-165.016	-0.016819	0.841052	-0.203152	-0.204445	-0.068723	63.2274	-0.202337	-143.89	0.000478	NaN
779	1.000000	0.850359	7.37268e+06	-39089.1	1055.82	-29795.2	0.000000	0.000000	6.851077	0.045152	NaN	0.000000	0.001578	0.001735	28.0825	0.069800	0.001953	35.733	72.5311	-163.774	0.036422	0.849062	-0.195138	-0.196435	0.045152	35.733	-0.196086	-113.546	-0.000398	NaN
779	1.000000	0.858360	7.37268e+06	-39089.1	1055.82	-29795.2	0.000000	0.000000	6.859074	-0.046850	NaN	0.000000	0.001575	0.001749	28.0824	0.084422	0.002016	41.8796	56.3597	-167.547	-0.071170	0.857066	-0.187138	-0.188431	-0.046850	41.8796	-0.186299	-77.982	0.000601	NaN
779	1.000000	0.866369	7.37268e+06	-39089.1	1055.82	-29795.2	0.000000	0.000000	6.867079	-0.148296	NaN	0.000000	0.001591	0.001732	28.0821	0.074353	0.001982	37.5179	-41.3394	-164.491	-0.078917	0.865061	-0.179128	-0.180437	-0.148296	37.5179	-0.176164	-52.4752	0.002826	NaN
779	1.000000	0.874364	7.37268e+06	-39089.1	1055.82	-29795.2	0.000000	0.000000	6.875081	0.034719	NaN	0.000000	0.001580	0.001732	28.0823	0.034596	0.002125	16.2782	-3.453905	-163.868	0.055699	0.873067	-0.171134	-0.172431	0.034719	16.2782	-0.172733	-45.8077	-0.000758	NaN
779	1.000000	0.882376	7.37268e+06	-39089.1	1055.82	-29795.2	0.000000	0.000000	6.883094	0.037204	NaN	0.000000	0.001607	0.001747	28.0822	0.079446	0.001988	39.9591	108.136	-163.583	-0.020042	0.881071	-0.163121	-0.164426	0.037204	39.9591	-0.163819	-32.0289	-0.001162	NaN
779	1.000000	0.890351	7.37268e+06	-39089.1	1055.82	-29795.2	0.000000	0.000000	6.891068	0.017933	NaN	0.000000	0.001603	0.001766	28.0826	0.108876	0.002067	52.6803	95.2358	-164.567	0.067478	0.889059	-0.155146	-0.156439	0.017933	52.6803	-0.155402	-22.6884	-0.000790	NaN
779	1.000000	0.898372	7.37268e+06	-39089.1	1055.82	-29795.2	0.000000	0.000000	6.899085	-0.067688	NaN	0.000000	0.001592	0.001737	28.0825	0.072179	0.001975	36.5509	-54.7584	-163.944	0.000613	0.897057	-0.147125	-0.148441	-0.067688	36.5509	-0.145736	-15.1278	0.004474	NaN
779	1.000000	0.906416	7.37268e+06	-39089.1	1055.82	-29795.2	0.000000	0.000000	6.907131	-0.019480	NaN	0.000000	0.001593	0.001738	28.0836	0.003663	0.002027	1.806945	-1.725111	-162.677	0.045132	0.905092	-0.139081	-0.140406	-0.019480	1.806945	-0.130996	-7.967567	0.002445	NaN
779	1.000000	0.914370	7.37268e+06	-39089.1	1055.82	-29795.2	0.000000	0.000000	6.915088	0.030247	NaN	0.000000	0.001583	0.001752	28.0839	0.115228	0.001855	62.1044	-19.8718	-166.046	0.036417	0.913093	-0.131127	-0.132404	0.030247	62.1044	-0.131492	-8.145534	-0.003713	NaN
779	1.000000	0.922387	7.37268e+06	-39089.1	1055.82	-29795.2	0.000000	0.000000	6.923100	-0.074178	NaN	0.000000	0.001574	0.001710	28.0837	0.068585	0.002077	33.0131	-33.7026	-164.307	-0.057525	0.921112	-0.123111	-0.124385	-0.074178	33.0131	-0.121425	-5.161407	0.014372	NaN
779	1.000000	0.930388	7.37268e+06	-39089.1	1055.82	-29795.2	0.000000	0.000000	6.931102	-0.058817	NaN	0.000000	0.001609	0.001717	28.084	0.147640	0.002030	72.7388	81.5179	-167.01	-0.097071	0.929145	-0.115109	-0.116352	-0.058817	72.7388	-0.114503	-3.731122	0.015764	NaN
779	1.000000	0.938382	7.37268e+06	-39089.1	1055.82	-29795.2	0.000000	0.000000	6.939097	-0.033496	NaN	0.000000	0.001634	0.001733	28.0838	0.038509	0.002006	19.1933	76.4797	-165.161	-0.067908	0.937123	-0.107116	-0.108375	-0.033496	19.1933	-0.105807	-2.446603	0.013691	NaN
779	1.000000	0.946404	7.37268e+06	-39089.1	1055.82	-29795.2	0.000000	0.000000	6.947119	-0.036321	NaN	0.000000	0.001643	0.001769	28.0839	0.111357	0.002015	55.2536	174.896	-162.31	-0.076777	0.945173	-0.099093	-0.100324	-0.036321	55.2536	-0.098600	-1.700666	0.021357	NaN
779	1.000000	0.954392	7.37268e+06	-39089.1	1055.82	-29795.2	0.000000	0.000000	6.955109	0.027366	NaN	0.000000	0.001624	0.001709	28.0839	0.014322	0.001918	7.466409	-21.4406	-167.582	-0.008170	0.953085	-0.091106	-0.092412	0.027366	7.466409	-0.093855	-1.328096	-0.020605	NaN
779	1.000000	0.962406	7.37268e+06	-39089.1	1055.82	-29795.2	0.000000	0.000000	6.963123	0.014371	NaN	0.000000	0.001641	0.001725	28.0835	0.071982	0.001860	38.7022	-157.165	-166.804	0.039298	0.961096	-0.083091	-0.084402	0.014371	38.7022	-0.083370	-0.749921	-0.019163	NaN
779	1.000000	0.970425	7.37268e+06	-39089.1	1055.82	-29795.2	0.000000	0.000000	6.971141	-0.005691	NaN	0.000000	0.001644	0.001722	28.0841	0.012032	0.002057	5.849463	-81.0093	-163.128	0.022528	0.969050	-0.075072	-0.076448	-0.005691	5.849463	-0.074343	-0.444091	0.012815	NaN
779	1.000000	0.978399	7.37268e+06	-39089.1	1055.82	-29795.2	0.000000	0.000000	6.979112	-0.076921	NaN	0.000000	0.001628	0.001694	28.0837	0.107230	0.002030	52.8325	84.2782	-165.605	-0.092487	0.977128	-0.067098	-0.068369	-0.076921	52.8325	-0.066006	-0.265698	0.289504	NaN
779	1.000000	0.986460	7.37268e+06	-39089.1	1055.82	-29795.2	0.000000	0.000000	6.987175	-0.021543	NaN	0.000000	0.001657	0.001709	28.0839	0.045096	0.002017	22.356	-158.775	-161.699	-0.052623	0.985127	-0.059037	-0.060371	-0.021543	22.356	-0.058315	-0.161025	0.133788	NaN
779	1.000000	0.994399	7.37268e+06	-39089.1	1055.82	-29795.2	0.000000	0.000000	6.995116	0.022258	NaN	0.000000	0.001612	0.001731	28.0839	0.019524	0.002064	9.460909	-106.022	-165.963	-0.079405	0.993114	-0.051098	-0.052384	0.022258	9.460909	-0.052862	-0.111251	-0.200065	NaN
779	1.000000	1.002438	7.37268e+06	-39089.1	1055.82	-29795.2	0.000000	0.000000	7.003154	-0.006404	NaN	0.000000	0.001656	0.001717	28.0835	0.047609	0.002044	23.2973	-128.336	-165.779	-0.036629	1.001145	-0.043059	-0.044352	-0.006404	23.2973	-0.042853	-0.055249	0.115910	NaN
779	1.000000	1.010414	7.37268e+06	-39089.1	1055.82	-29795.2	0.000000	0.000000	7.011130	-0.002019	NaN	0.000000	0.001636	0.001717	28.0841	0.059523	0.001969	30.2267	-42.1061	-163.464	0.024995	1.009084	-0.035084	-0.036413	-0.002019	30.2267	-0.035033	-0.032097	0.062898	NaN
779	1.000000	1.018435	7.37268e+06	-39089.1	1055.82	-29795.2	0.000000	0.000000	7.019163	0.274680	NaN	0.000000	0.001622	0.001705	28.0835	0.413180	0.001861	222.058	18.8746	-164.19	0.127287	1.017088	-0.027062	-0.028409	0.274680	222.058	-0.027990	-0.020262	-13.5561	NaN
779	1.000000	1.026431	7.37268e+06	-39089.1	1055.82	-29795.2	0.000000	0.000000	7.027153	0.147360	NaN	0.000000	0.001625	0.001724	28.0837	0.215470	0.001932	111.553	21.3087	-168.084	0.178378	1.025106	-0.019067	-0.020392	0.147360	111.553	-0.020057	-0.012603	-11.6923	NaN
779	1.000000	1.034428	7.37268e+06	-39089.1	1055.82	-29795.2	0.000000	0.000000	7.035157	0.314504	NaN	0.000000	0.001668	0.001721	28.0835	0.432473	0.002101	205.858	16.6506	-166.582	0.313009	1.033136	-0.011069	-0.012361	0.314504	205.858	-0.012215	-0.007651	-41.1042	NaN
779	1.000000	1.042465	7.37268e+06	-39089.1	1055.82	-29795.2	0.000000	0.000000	7.043199	0.428611	NaN	0.000000	0.001596	0.001734	28.0827	0.653338	0.002026	322.505	14.0952	-167.013	0.437179	1.041103	-0.003032	-0.004395	0.428611	322.505	-0.004029	-0.002797	-153.218	NaN
779	2.000000	1.049906	7.37268e+06	-39089.1	1055.82	-29795.2	0.000000	0.000000	7.050958	8.165497	NaN	0.000000	0.001632	0.001751	28.0824	7.457306	0.001689	4415.69	10.5441	-170.47	7.709099	1.049044	0.004409	0.003547	8.165497	4415.69	0.003022	0.002398	3404.83	82381.2
779	2.000000	1.052044	7.37268e+06	-39089.1	1055.82	-29795.2	0.000000	0.000000	7.053166	9.875536	NaN	0.000000	0.001664	0.001719	28.0823	9.662406	0.001541	6270.63	3.198626	-170.136	9.221950	1.051733	0.006547	0.006236	9.875536	6270.63	0.005366	0.004470	2209.42	85692.5
779	2.000000	1.054110	7.37268e+06	-39089.1	1055.82	-29795.2	0.000000	0.000000	7.055418	14.4027	NaN	0.000000	0.001647	0.001769	28.0832	12.35	0.001720	7179.66	4.958069	-169.879	14.1927	1.053730	0.008613	0.008233	14.4027	7179.66	0.007108	0.006141	2345.24	83704.4
779	2.000000	1.056027	7.37268e+06	-39089.1	1055.82	-29795.2	0.000000	0.000000	7.057420	16.4748	NaN	0.000000	0.001617	0.001702	28.0823	14.6184	0.001878	7783.09	9.581317	-177.17	15.2065	1.055748	0.010530	0.010250	16.4748	7783.09	0.008942	0.008030	2051.75	79355.7
779	2.000000	1.058061	7.37268e+06	-39089.1	1055.82	-29795.2	0.000000	0.000000	7.059674	21.8206	NaN	0.000000	0.001651	0.001696	28.0825	16.8927	0.001773	9527.6	7.541448	-177.172	22.1292	1.057742	0.012564	0.012244	21.8206	9527.6	0.010846	0.010137	2152.48	86455.7
779	2.000000	1.060016	7.37268e+06	-39089.1	1055.82	-29795.2	0.000000	0.000000	7.061789	25.7159	NaN	0.000000	0.001620	0.001731	28.0825	18.2492	0.001680	10863.1	4.703116	-176.366	24.7093	1.059717	0.014519	0.014220	25.7159	10863.1	0.012743	0.012392	2075.12	89155.2
779	2.000000	1.062034	7.37268e+06	-39089.1	1055.82	-29795.2	0.000000	0.000000	7.064040	31.3894	NaN	0.000000	0.001589	0.001735	28.0824	20.2731	0.001656	12243.2	4.769709	-177.24	30.7585	1.061668	0.016537	0.016171	31.3894	12243.2	0.014614	0.014774	2124.58	92026.9
779	2.000000	1.064028	7.37268e+06	-39089.1	1055.82	-29795.2	0.000000	0.000000	7.066240	36.4008	NaN	0.000000	0.001640	0.001748	28.0834	23.0812	0.001678	13752.7	6.451965	-177.985	36.224	1.063722	0.018531	0.018225	36.4008	13752.7	0.016546	0.017402	2091.77	95249.4
779	2.000000	1.065952	7.37268e+06	-39089.1	1055.82	-29795.2	0.000000	0.000000	7.068503	44.6461	NaN	0.000000	0.001603	0.001720	28.0826	25.2557	0.001745	14472.2	9.221209	177.502	42.4885	1.065655	0.020455	0.020158	44.6461	14472.2	0.018141	0.019705	2265.75	94194
779	2.000000	1.067985	7.37268e+06	-39089.1	1055.82	-29795.2	0.000000	0.000000	7.070571	45.5096	NaN	0.000000	0.001604	0.001761	28.0824	26.9221	0.001768	15230	2.563677	-176.578	43.9405	1.067705	0.022487	0.022208	45.5096	15230	0.020246	0.022931	1984.65	91889.1
779	2.000000	1.069959	7.37268e+06	-39089.1	1055.82	-29795.2	0.000000	0.000000	7.072888	53.8603	NaN	0.000000	0.001612	0.001736	28.0826	27.608	0.001697	16268.9	0.741961	-174.915	52.2777	1.069616	0.024462	0.024118	53.8603	16268.9	0.021979	0.025747	2091.88	92633.1
779	2.000000	1.071984	7.37268e+06	-39089.1	1055.82	-29795.2	0.000000	0.000000	7.075095	58.2915	NaN	0.000000	0.001612	0.001721	28.0825	30.6234	0.001775	17251.2	4.335089	-179.431	58.0623	1.071732	0.026486	0.026234	58.2915	17251.2	0.023952	0.029137	2000.6	92335.7
779	2.000000	1.074038	7.37268e+06	-39089.1	1055.82	-29795.2	0.000000	0.000000	7.077502	66.8704	NaN	0.000000	0.001627	0.001763	28.0841	32.988	0.001785	18477.2	7.486249	178.894	67.7783	1.073645	0.028541	0.028148	66.8704	18477.2	0.025827	0.032537	2055.22	93588.4
779	2.000000	1.076004	7.37268e+06	-39089.1	1055.82	-29795.2	0.000000	0.000000	7.079813	75.2707	NaN	0.000000	0.001655	0.001714	28.0824	33.7016	0.001716	19635.5	4.969920	-179.863	75.8372	1.075624	0.030507	0.030127	75.2707	19635.5	0.027632	0.035978	2092.14	94579.5
779	2.000000	1.077958	7.37268e+06	-39089.1	1055.82	-29795.2	0.000000	0.000000	7.081893	78.3353	NaN	0.000000	0.001662	0.001744	28.0823	36.9443	0.001804	20484.5	8.611739	175.605	76.1006	1.077624	0.032461	0.032127	78.3353	20484.5	0.029593	0.039904	1963.1	93689.8
779	2.000000	1.079945	7.37268e+06	-39089.1	1055.82	-29795.2	0.000000	0.000000	7.084151	84.9285	NaN	0.000000	0.001684	0.001751	28.0824	37.5319	0.001681	22331.7	3.654555	178.753	82.5325	1.079625	0.034448	0.034127	84.9285	22331.7	0.031595	0.044115	1925.16	97140.9
779	2.000000	1.082001	7.37268e+06	-39089.1	1055.82	-29795.2	0.000000	0.000000	7.086623	95.0498	NaN	0.000000	0.001663	0.001730	28.083	40.4271	0.001851	21845	4.766183	179.356	95.6776	1.081638	0.036503	0.036141	95.0498	21845	0.033240	0.047727	1991.52	91357
779	2.000000	1.084002	7.37268e+06	-39089.1	1055.82	-29795.2	0.000000	0.000000	7.088785	98.9511	NaN	0.000000	0.001682	0.001710	28.085	43.0071	0.001787	24071.9	7.600894	174.778	100.565	1.083639	0.038505	0.038142	98.9511	24071.9	0.035422	0.052733	1876.46	95772.8
779	2.000000	1.085976	7.37268e+06	-39089.1	1055.82	-29795.2	0.000000	0.000000	7.091388	114.288	NaN	0.000000	0.001698	0.001741	28.0836	43.7016	0.001796	24329.3	6.701810	175.581	113.473	1.085635	0.040478	0.040137	114.288	24329.3	0.036955	0.056397	2026.5	93600
779	2.000000	1.087926	7.37268e+06	-39089.1	1055.82	-29795.2	0.000000	0.000000	7.093504	118.326	NaN	0.000000	0.001664	0.001745	28.0836	46.8365	0.001779	26327.3	6.255187	175.244	116.578	1.087648	0.042429	0.042150	118.326	26327.3	0.039058	0.061616	1920.38	96901.9
779	2.000000	1.089902	7.37268e+06	-39089.1	1055.82	-29795.2	0.000000	0.000000	7.095871	127.827	NaN	0.000000	0.001691	0.001722	28.084	47.3916	0.001795	26397.9	2.248989	179.973	125.309	1.089587	0.044405	0.044090	127.827	26397.9	0.040773	0.066041	1935.58	93850.4
779	2.000000	1.091957	7.37268e+06	-39089.1	1055.82	-29795.2	0.000000	0.000000	7.098279	136.405	NaN	0.000000	0.001657	0.001720	28.0836	49.789	0.001713	29071.7	5.159558	176.369	136.781	1.091615	0.046460	0.046118	136.405	29071.7	0.042941	0.071850	1898.48	99090.4
779	2.000000	1.093994	7.37268e+06	-39089.1	1055.82	-29795.2	0.000000	0.000000	7.100867	149.819	NaN	0.000000	0.001665	0.001726	28.0844	51.9654	0.001825	28472.1	5.889377	176.64	148.615	1.093603	0.048497	0.048106	149.819	28472.1	0.044550	0.076316	1963.13	94163.9
779	2.000000	1.095949	7.37268e+06	-39089.1	1055.82	-29795.2	0.000000	0.000000	7.103109	156.817	NaN	0.000000	0.001653	0.001737	28.0835	53.1394	0.001666	31890.3	2.626960	177.323	156.173	1.095651	0.050451	0.050154	156.817	31890.3	0.046763	0.082672	1896.86	101333
779	2.000000	1.097922	7.37268e+06	-39089.1	1055.82	-29795.2	0.000000	0.000000	7.105360	163.58	NaN	0.000000	0.001647	0.001723	28.0838	56.6004	0.001833	30878.4	3.448160	177.066	161.969	1.097735	0.052425	0.052238	163.58	30878.4	0.048452	0.087688	1865.48	95270.2
779	2.000000	1.099935	7.37268e+06	-39089.1	1055.82	-29795.2	0.000000	0.000000	7.107894	176.277	NaN	0.000000	0.001672	0.001758	28.0836	56.9968	0.001867	30528.2	2.479550	178.448	175.056	1.099664	0.054437	0.054167	176.277	30528.2	0.050107	0.092743	1900.71	91587.2
779	2.000000	1.101923	7.37268e+06	-39089.1	1055.82	-29795.2	0.000000	0.000000	7.110220	184.489	NaN	0.000000	0.001672	0.001720	28.0839	59.8955	0.001845	32466	4.741842	175.799	183.682	1.101541	0.056425	0.056044	184.489	32466	0.052164	0.099218	1859.43	94169
779	2.000000	1.103879	7.37268e+06	-39089.1	1055.82	-29795.2	0.000000	0.000000	7.112795	199.55	NaN	0.000000	0.001637	0.001715	28.0837	61.8735	0.001821	33978.7	5.237340	174.759	196.746	1.103701	0.058382	0.058203	199.55	33978.7	0.053977	0.105102	1898.64	95758.1
779	2.000000	1.105883	7.37268e+06	-39089.1	1055.82	-29795.2	0.000000	0.000000	7.115118	207.319	NaN	0.000000	0.001677	0.001719	28.0835	63.1179	0.001791	35245.3	6.973959	172.598	202.492	1.105584	0.060385	0.060087	207.319	35245.3	0.055974	0.111767	1854.91	96320
779	2.000000	1.107899	7.37268e+06	-39089.1	1055.82	-29795.2	0.000000	0.000000	7.117569	217.908	NaN	0.000000	0.001681	0.001717	28.0837	64.4239	0.001799	35812.4	1.452929	177.795	215.417	1.107633	0.062401	0.062136	217.908	35812.4	0.057838	0.118169	1844.03	95182
779	2.000000	1.109888	7.37268e+06	-39089.1	1055.82	-29795.2	0.000000	0.000000	7.120412	238.668	NaN	0.000000	0.001662	0.001729	28.0834	65.2388	0.001746	37358.4	4.053461	175.474	235.67	1.109559	0.064391	0.064062	238.668	37358.4	0.059600	0.124376	1918.92	96781.4
779	2.000000	1.111928	7.37268e+06	-39089.1	1055.82	-29795.2	0.000000	0.000000	7.122582	241.83	NaN	0.000000	0.001639	0.001726	28.0836	69.4827	0.001926	36074.8	5.741176	173.828	242.44	1.111568	0.066431	0.066071	241.83	36074.8	0.061403	0.130889	1847.6	91101.7
779	2.000000	1.113974	7.37268e+06	-39089.1	1055.82	-29795.2	0.000000	0.000000	7.125332	258.975	NaN	0.000000	0.001661	0.001707	28.0836	70.1726	0.001789	39234.3	3.172476	176.258	260.414	1.113582	0.068476	0.068085	258.975	39234.3	0.063526	0.138754	1866.43	96231.4
779	2.000000	1.115931	7.37268e+06	-39089.1	1055.82	-29795.2	0.000000	0.000000	7.127883	273.437	NaN	0.000000	0.001698	0.001714	28.0832	70.9085	0.001810	39178.1	3.501603	176.6	273.19	1.115485	0.070433	0.069988	273.437	39178.1	0.065199	0.145108	1884.36	93966
779	2.000000	1.117923	7.37268e+06	-39089.1	1055.82	-29795.2	0.000000	0.000000	7.130381	285.753	NaN	0.000000	0.001685	0.001740	28.0828	74.5805	0.001833	40695.3	4.456476	174.164	287.945	1.117610	0.072425	0.072113	285.753	40695.3	0.067159	0.152723	1871.05	95140.4
779	2.000000	1.119794	7.37268e+06	-39089.1	1055.82	-29795.2	0.000000	0.000000	7.132760	298.111	NaN	0.000000	0.001685	0.001750	28.0824	74.8399	0.001762	42465.4	6.582902	171.345	290.376	1.119434	0.074296	0.073936	298.111	42465.4	0.069031	0.160170	1861.22	96943.4
779	2.000000	1.121836	7.37268e+06	-39089.1	1055.82	-29795.2	0.000000	0.000000	7.135058	304.345	NaN	0.000000	0.001644	0.001761	28.0824	77.2784	0.001851	41749.5	-0.442098	178.868	299.865	1.121604	0.076339	0.076106	304.345	41749.5	0.070871	0.167650	1815.36	93158.6
779	2.000000	1.123901	7.37268e+06	-39089.1	1055.82	-29795.2	0.000000	0.000000	7.137970	324.932	NaN	0.000000	0.001648	0.001742	28.0825	79.3106	0.001800	44069.2	4.168611	173.969	323.823	1.123579	0.078404	0.078082	324.932	44069.2	0.072874	0.175976	1846.45	95980.2
779	2.000000	1.125898	7.37268e+06	-39089.1	1055.82	-29795.2	0.000000	0.000000	7.140598	340.281	NaN	0.000000	0.001706	0.001767	28.0823	81.3793	0.001894	42970.4	7.514587	171.569	338.712	1.125479	0.080401	0.079981	340.281	42970.4	0.074462	0.182711	1862.41	91846.1
779	2.000000	1.127902	7.37268e+06	-39089.1	1055.82	-29795.2	0.000000	0.000000	7.142902	347.602	NaN	0.000000	0.001668	0.001774	28.0828	83.371	0.001701	49007.3	6.109510	170.769	348.266	1.127553	0.082404	0.082055	347.602	49007.3	0.077085	0.194096	1790.88	101631
779	2.000000	1.129800	7.37268e+06	-39089.1	1055.82	-29795.2	0.000000	0.000000	7.145762	371.013	NaN	0.000000	0.001655	0.001724	28.0823	82.6453	0.001754	47117.1	2.815979	175.352	365.081	1.129455	0.084303	0.083957	371.013	47117.1	0.078397	0.199913	1855.87	96278.8
779	2.000000	1.131798	7.37268e+06	-39089.1	1055.82	-29795.2	0.000000	0.000000	7.148050	378.067	NaN	0.000000	0.001614	0.001718	28.0825	86.0503	0.001798	47852.1	2.939965	174.306	372.921	1.131506	0.086300	0.086009	378.067	47852.1	0.080375	0.208834	1810.37	95669.6
779	2.000000	1.133912	7.37268e+06	-39089.1	1055.82	-29795.2	0.000000	0.000000	7.151087	400.517	NaN	0.000000	0.001618	0.001737	28.0824	89.0772	0.001774	50208.1	6.730254	170.217	399.081	1.133620	0.088415	0.088123	400.517	50208.1	0.082432	0.218303	1834.68	98178.5
779	2.000000	1.135961	7.37268e+06	-39089.1	1055.82	-29795.2	0.000000	0.000000	7.153879	418.619	NaN	0.000000	0.001603	0.001713	28.0823	91.1288	0.001804	50527.7	8.262832	168.822	422.776	1.135539	0.090464	0.090042	418.619	50527.7	0.084250	0.226837	1845.46	96927.2
779	2.000000	1.137869	7.37268e+06	-39089.1	1055.82	-29795.2	0.000000	0.000000	7.156121	426.732	NaN	0.000000	0.001638	0.001754	28.0824	93.8075	0.001805	51970.8	4.667587	172.418	424.463	1.137572	0.092372	0.092075	426.732	51970.8	0.086214	0.236226	1806.46	97694.3
779	2.000000	1.139886	7.37268e+06	-39089.1	1055.82	-29795.2	0.000000	0.000000	7.158595	437.86	NaN	0.000000	0.001630	0.001787	28.0825	95.5286	0.001907	50086.7	5.984236	170.659	438.895	1.139699	0.094389	0.094202	437.86	50086.7	0.087832	0.244098	1793.79	92621.9
779	2.000000	1.141868	7.37268e+06	-39089.1	1055.82	-29795.2	0.000000	0.000000	7.161473	459.686	NaN	0.000000	0.001617	0.001758	28.0824	97.8858	0.001792	54619.4	7.261998	169.446	459.919	1.141611	0.096370	0.096114	459.686	54619.4	0.090058	0.255120	1801.84	98797.9
779	2.000000	1.143979	7.37268e+06	-39089.1	1055.82	-29795.2	0.000000	0.000000	7.164355	478.419	NaN	0.000000	0.001589	0.001733	28.0822	99.6821	0.001767	56400.3	6.991506	169.643	481.758	1.143500	0.098482	0.098003	478.419	56400.3	0.092120	0.265531	1801.74	99999.2
779	2.000000	1.145932	7.37268e+06	-39089.1	1055.82	-29795.2	0.000000	0.000000	7.167104	497.786	NaN	0.000000	0.001611	0.001768	28.0824	100.344	0.001780	56363.8	4.218222	172.846	498.525	1.145538	0.100435	0.100040	497.786	56363.8	0.093811	0.274218	1815.29	98338.9
779	2.000000	1.147744	7.37268e+06	-39089.1	1055.82	-29795.2	0.000000	0.000000	7.169632	515.215	NaN	0.000000	0.001578	0.001773	28.083	103.136	0.001782	57876.8	5.171029	171.231	507.983	1.147409	0.102247	0.101912	515.215	57876.8	0.095570	0.283393	1818.02	99330.6
779	2.000000	1.148462	7.37268e+06	-39089.1	1055.82	-29795.2	0.000000	0.000000	7.170425	517.048	NaN	0.000000	0.001572	0.001784	28.0827	104.854	0.001798	58327.5	8.920755	-12.4371	518.293	1.147927	0.102965	0.102430	517.048	58327.5	0.096316	0.287325	1799.52	99416.8