File: remote_trans/data/nanoindenter/0828-1/data/Data_2025-08-06,11h17m57s/2025-07-22_16-23-58_1_1095.txt
2025-07-22, 16:23:58, 1
Index	Phase	Displacement	Time	Pos X	Pos Y	Pos Z	Rot A	Rot B	Piezo Z	Force A	Force B	Gripper	Voltage A	Voltage B	Temperature	Amplitude force	Amplitude pos	Stiffness	Phase shift	Phase excitation	Force A raw	Displacement raw	HMax	HMax raw	Real Force	Real Stiffness	Contact Depth	Area	Hardness	Reduced Mod.
[#]	[#]	[um]	[s]	[um]	[um]	[um]	[m°]	[m°]	[um]	[uN]	[uN]	[V]	[V]	[V]	[°C]	[uN]	[um]	[N/m]	[°]	[°]	[uN]	[um]	[um]	[um]	[uN]	[N/m]	[um]	[um^2]	[MPa]	[MPa]
1095	1.000000	0.002800	7.37576e+06	-54889.1	1055.82	-29742	0.000000	0.000000	6.002802	-0.003911	NaN	0.000000	0.001624	0.001763	28.083	0.079368	0.001018	77.9818	147.128	-159.44	-0.013194	0.001562	-1.729995	-1.731233	-0.003911	77.9818	-1.729958	-1.271564E+23	3.075902E-26	NaN
1095	1.000000	0.014801	7.37576e+06	-54889.1	1055.82	-29742	0.000000	0.000000	6.014802	-0.017642	NaN	0.000000	0.001642	0.001734	28.0829	0.042480	0.001643	25.8487	15.2541	-167.754	-0.000210	0.013669	-1.717994	-1.719126	-0.017642	25.8487	-1.717482	-8.682735E+22	2.031840E-25	NaN
1095	1.000000	0.026815	7.37576e+06	-54889.1	1055.82	-29742	0.000000	0.000000	6.026815	-0.061427	NaN	0.000000	0.001642	0.001699	28.083	0.121887	0.001716	71.0297	87.3302	-166.029	-0.048556	0.025438	-1.705980	-1.707357	-0.061427	71.0297	-1.705331	-5.987619E+22	1.025905E-24	NaN
1095	1.000000	0.038743	7.37576e+06	-54889.1	1055.82	-29742	0.000000	0.000000	6.038749	0.071075	NaN	0.000000	0.001618	0.001732	28.0828	0.022186	0.001964	11.2972	11.3699	-166.846	0.001418	0.037408	-1.694052	-1.695387	0.071075	11.2972	-1.698770	-4.898938E+22	-1.450820E-24	NaN
1095	1.000000	0.050771	7.37576e+06	-54889.1	1055.82	-29742	0.000000	0.000000	6.050774	0.017702	NaN	0.000000	0.001611	0.001744	28.0828	0.076242	0.002074	36.7645	-32.7225	-167.661	0.071099	0.049415	-1.682024	-1.683380	0.017702	36.7645	-1.682385	-2.967625E+22	-5.965138E-25	NaN
1095	1.000000	0.062752	7.37576e+06	-54889.1	1055.82	-29742	0.000000	0.000000	6.062751	-0.091945	NaN	0.000000	0.001600	0.001719	28.0818	0.046052	0.002045	22.5204	-152.872	-166.433	-0.013803	0.061439	-1.670043	-1.671356	-0.091945	22.5204	-1.666981	-1.852327E+22	4.963747E-24	NaN
1095	1.000000	0.074759	7.37576e+06	-54889.1	1055.82	-29742	0.000000	0.000000	6.074763	0.033795	NaN	0.000000	0.001619	0.001706	28.0817	0.012926	0.002096	6.168003	-124.53	-166.483	0.040040	0.073475	-1.658036	-1.659320	0.033795	6.168003	-1.662145	-1.597540E+22	-2.115440E-24	NaN
1095	1.000000	0.086762	7.37576e+06	-54889.1	1055.82	-29742	0.000000	0.000000	6.086766	0.051590	NaN	0.000000	0.001622	0.001701	28.082	0.066163	0.002021	32.732	-90.0903	-162.294	0.117941	0.085450	-1.646033	-1.647345	0.051590	32.732	-1.647215	-1.011622E+22	-5.099759E-24	NaN
1095	1.000000	0.098761	7.37576e+06	-54889.1	1055.82	-29742	0.000000	0.000000	6.098764	0.021583	NaN	0.000000	0.001655	0.001678	28.0818	0.069616	0.001996	34.877	18.7799	-165.476	-0.042177	0.097419	-1.634034	-1.635376	0.021583	34.877	-1.634498	-6.854239E+21	-3.148923E-24	NaN
1095	1.000000	0.110753	7.37576e+06	-54889.1	1055.82	-29742	0.000000	0.000000	6.110754	-0.038520	NaN	0.000000	0.001640	0.001766	28.0819	0.034863	0.001831	19.0379	-162.203	-163.091	0.056788	0.109461	-1.622042	-1.623334	-0.038520	19.0379	-1.620525	-4.468607E+21	8.620092E-24	NaN
1095	1.000000	0.122777	7.37576e+06	-54889.1	1055.82	-29742	0.000000	0.000000	6.122780	0.007298	NaN	0.000000	0.001663	0.001729	28.0819	0.019597	0.002045	9.583751	-138.665	-164.981	0.039095	0.121433	-1.610018	-1.611362	0.007298	9.583751	-1.610589	-3.296465E+21	-2.213953E-24	NaN
1095	1.000000	0.134778	7.37576e+06	-54889.1	1055.82	-29742	0.000000	0.000000	6.134778	-0.053129	NaN	0.000000	0.001691	0.001738	28.0816	0.089764	0.001926	46.6128	118.429	-162.283	-0.090457	0.133492	-1.598017	-1.599303	-0.053129	46.6128	-1.597162	-2.185163E+21	2.431365E-23	NaN
1095	1.000000	0.146766	7.37576e+06	-54889.1	1055.82	-29742	0.000000	0.000000	6.146769	0.008399	NaN	0.000000	0.001716	0.001771	28.0818	0.083910	0.001906	44.035	139.843	-164.899	0.027186	0.145454	-1.586029	-1.587341	0.008399	44.035	-1.586172	-1.560590E+21	-5.381762E-24	NaN
1095	1.000000	0.158785	7.37576e+06	-54889.1	1055.82	-29742	0.000000	0.000000	6.158788	-0.001188	NaN	0.000000	0.001659	0.001721	28.0815	0.106082	0.002101	50.4986	176.828	-166.338	0.005299	0.157477	-1.574010	-1.575318	-0.001188	50.4986	-1.573992	-1.074614E+21	1.105470E-24	NaN
1095	1.000000	0.170774	7.37576e+06	-54889.1	1055.82	-29742	0.000000	0.000000	6.170777	0.008388	NaN	0.000000	0.001750	0.001731	28.0812	0.033402	0.002055	16.2512	-115.951	-163.836	0.039640	0.169467	-1.562021	-1.563328	0.008388	16.2512	-1.562408	-7.535555E+20	-1.113185E-23	NaN
1095	1.000000	0.182802	7.37576e+06	-54889.1	1055.82	-29742	0.000000	0.000000	6.182807	0.046252	NaN	0.000000	0.001693	0.001722	28.0817	0.095076	0.002042	46.5669	117.619	-166.381	0.045421	0.181489	-1.549993	-1.551306	0.046252	46.5669	-1.550738	-5.270036E+20	-8.776505E-23	NaN
1095	1.000000	0.194794	7.37576e+06	-54889.1	1055.82	-29742	0.000000	0.000000	6.194796	-0.016210	NaN	0.000000	0.001729	0.001713	28.0819	0.075942	0.002121	35.8121	-118.281	-168.594	0.006192	0.193568	-1.538001	-1.539227	-0.016210	35.8121	-1.537661	-3.529913E+20	4.592109E-23	NaN
1095	1.000000	0.206801	7.37576e+06	-54889.1	1055.82	-29742	0.000000	0.000000	6.206801	-0.047345	NaN	0.000000	0.001701	0.001698	28.0832	0.016775	0.002002	8.378225	10.522	-166.983	-0.077423	0.205496	-1.525994	-1.527299	-0.047345	8.378225	-1.521756	-2.167821E+20	2.183987E-22	NaN
1095	1.000000	0.218821	7.37576e+06	-54889.1	1055.82	-29742	0.000000	0.000000	6.218822	-0.019294	NaN	0.000000	0.001669	0.001728	28.0829	0.055994	0.001988	28.1622	142.599	-169.342	-0.020324	0.217480	-1.513974	-1.515315	-0.019294	28.1622	-1.513461	-1.681006E+20	1.147740E-22	NaN
1095	1.000000	0.230815	7.37576e+06	-54889.1	1055.82	-29742	0.000000	0.000000	6.230817	0.000499	NaN	0.000000	0.001703	0.001714	28.0828	0.053914	0.001940	27.7942	-47.4085	-168.866	-0.001140	0.229518	-1.501980	-1.503277	0.000499	27.7942	-1.501994	-1.182671E+20	-4.219959E-24	NaN
1095	1.000000	0.242816	7.37576e+06	-54889.1	1055.82	-29742	0.000000	0.000000	6.242818	-0.017442	NaN	0.000000	0.001704	0.001708	28.0831	0.075299	0.002031	37.0815	-81.6654	-166.763	0.031003	0.241542	-1.489979	-1.491253	-0.017442	37.0815	-1.489626	-8.093589E+19	2.155000E-22	NaN
1095	1.000000	0.254839	7.37576e+06	-54889.1	1055.82	-29742	0.000000	0.000000	6.254840	-0.031765	NaN	0.000000	0.001708	0.001724	28.0826	0.068476	0.002059	33.256	144.088	-170.725	-0.005287	0.253576	-1.477956	-1.479219	-0.031765	33.256	-1.477240	-5.535259E+19	5.738586E-22	NaN
1095	1.000000	0.266817	7.37576e+06	-54889.1	1055.82	-29742	0.000000	0.000000	6.266819	-0.006664	NaN	0.000000	0.001685	0.001726	28.083	0.049174	0.002144	22.9369	1.233500	-167.573	-0.040698	0.265527	-1.465978	-1.467268	-0.006664	22.9369	-1.465760	-3.892097E+19	1.712117E-22	NaN
1095	1.000000	0.278851	7.37576e+06	-54889.1	1055.82	-29742	0.000000	0.000000	6.278854	0.015417	NaN	0.000000	0.001694	0.001663	28.0832	0.030057	0.001953	15.3909	62.2961	-165.074	0.018107	0.277518	-1.453944	-1.455277	0.015417	15.3909	-1.454695	-2.771545E+19	-5.562635E-22	NaN
1095	1.000000	0.290863	7.37576e+06	-54889.1	1055.82	-29742	0.000000	0.000000	6.290864	-0.039322	NaN	0.000000	0.001686	0.001721	28.0845	0.142075	0.002029	70.0334	6.701777	-166.183	0.040473	0.289559	-1.441932	-1.443236	-0.039322	70.0334	-1.441510	-1.849221E+19	2.126388E-21	NaN
1095	1.000000	0.302854	7.37576e+06	-54889.1	1055.82	-29742	0.000000	0.000000	6.302859	0.071435	NaN	0.000000	0.001722	0.001716	28.0831	0.131357	0.002029	64.7364	-138.696	-167.706	0.014919	0.301542	-1.429941	-1.431253	0.071435	64.7364	-1.430769	-1.329805E+19	-5.371871E-21	NaN
1095	1.000000	0.314841	7.37576e+06	-54889.1	1055.82	-29742	0.000000	0.000000	6.314840	-0.088160	NaN	0.000000	0.001696	0.001721	28.0831	0.055482	0.001949	28.462	157.915	-164.502	-0.123358	0.313577	-1.417954	-1.419218	-0.088160	28.462	-1.415631	-8.354938E+18	1.055188E-20	NaN
1095	1.000000	0.326844	7.37576e+06	-54889.1	1055.82	-29742	0.000000	0.000000	6.326845	-0.021883	NaN	0.000000	0.001647	0.001730	28.0831	0.035271	0.001979	17.8181	-16.0779	-166.645	-0.070072	0.325528	-1.405951	-1.407267	-0.021883	17.8181	-1.405030	-6.033418E+18	3.627010E-21	NaN
1095	1.000000	0.338876	7.37576e+06	-54889.1	1055.82	-29742	0.000000	0.000000	6.338878	-0.018109	NaN	0.000000	0.001654	0.001705	28.0819	0.021495	0.002046	10.507	35.1996	-161.171	0.040586	0.337550	-1.393919	-1.395245	-0.018109	10.507	-1.392626	-4.121893E+18	4.393480E-21	NaN
1095	1.000000	0.350874	7.37576e+06	-54889.1	1055.82	-29742	0.000000	0.000000	6.350875	-0.035808	NaN	0.000000	0.001632	0.001723	28.0818	0.069957	0.001976	35.3965	-45.4128	-164.598	-0.037895	0.349578	-1.381921	-1.383217	-0.035808	35.3965	-1.381162	-2.898349E+18	1.235448E-20	NaN
1095	1.000000	0.362854	7.37576e+06	-54889.1	1055.82	-29742	0.000000	0.000000	6.362857	0.014290	NaN	0.000000	0.001619	0.001726	28.0815	0.080064	0.002012	39.796	25.3612	-169.501	0.015762	0.361552	-1.369941	-1.371243	0.014290	39.796	-1.370210	-2.070130E+18	-6.902974E-21	NaN
1095	1.000000	0.374880	7.37576e+06	-54889.1	1055.82	-29742	0.000000	0.000000	6.374885	0.066711	NaN	0.000000	0.001673	0.001721	28.0818	0.028917	0.001998	14.4731	154.011	-172.313	0.017570	0.373609	-1.357915	-1.359186	0.066711	14.4731	-1.361372	-1.577735E+18	-4.228301E-20	NaN
1095	1.000000	0.386896	7.37576e+06	-54889.1	1055.82	-29742	0.000000	0.000000	6.386896	-0.068278	NaN	0.000000	0.001639	0.001762	28.0818	0.083072	0.002012	41.2986	-40.1127	-164.121	-0.059282	0.385581	-1.345899	-1.347214	-0.068278	41.2986	-1.344659	-9.438822E+17	7.233779E-20	NaN
1095	1.000000	0.398898	7.37576e+06	-54889.1	1055.82	-29742	0.000000	0.000000	6.398901	0.023676	NaN	0.000000	0.001647	0.001704	28.0816	0.051067	0.002129	23.9825	92.2368	-166.765	-0.090966	0.397537	-1.333897	-1.335258	0.023676	23.9825	-1.334638	-6.935962E+17	-3.413516E-20	NaN
1095	1.000000	0.410899	7.37576e+06	-54889.1	1055.82	-29742	0.000000	0.000000	6.410902	0.023173	NaN	0.000000	0.001631	0.001738	28.0821	0.072529	0.001948	37.2407	-106.515	-162.153	0.020512	0.409570	-1.321896	-1.323225	0.023173	37.2407	-1.322363	-4.755169E+17	-4.873279E-20	NaN
1095	1.000000	0.422900	7.37576e+06	-54889.1	1055.82	-29742	0.000000	0.000000	6.422900	-0.044908	NaN	0.000000	0.001642	0.001706	28.0816	0.073288	0.002156	33.9987	-176.409	-164.861	0.005551	0.421585	-1.309895	-1.311210	-0.044908	33.9987	-1.308905	-3.143265E+17	1.428691E-19	NaN
1095	1.000000	0.434883	7.37576e+06	-54889.1	1055.82	-29742	0.000000	0.000000	6.434886	0.028301	NaN	0.000000	0.001626	0.001720	28.0818	0.048175	0.002000	24.0879	156.65	-162.474	-0.014317	0.433559	-1.297912	-1.299236	0.028301	24.0879	-1.298793	-2.302887E+17	-1.228924E-19	NaN
1095	1.000000	0.446901	7.37576e+06	-54889.1	1055.82	-29742	0.000000	0.000000	6.446904	0.015491	NaN	0.000000	0.001597	0.001707	28.0817	0.070698	0.002127	33.2357	-66.4057	-168.623	0.054179	0.445609	-1.285894	-1.287186	0.015491	33.2357	-1.286243	-1.565102E+17	-9.897618E-20	NaN
1095	1.000000	0.458907	7.37576e+06	-54889.1	1055.82	-29742	0.000000	0.000000	6.458908	-0.037275	NaN	0.000000	0.001590	0.001681	28.0817	0.063306	0.001894	33.42	-16.308	-161.654	-0.030068	0.457629	-1.273888	-1.275166	-0.037275	33.42	-1.273051	-1.042768E+17	3.574630E-19	NaN
1095	1.000000	0.470947	7.37576e+06	-54889.1	1055.82	-29742	0.000000	0.000000	6.470946	-0.082001	NaN	0.000000	0.001589	0.001716	28.0821	0.068695	0.001943	35.3572	-7.887361	-166.753	0.010397	0.469634	-1.261848	-1.263161	-0.082001	35.3572	-1.260109	-7.000397E+16	1.171374E-18	NaN
1095	1.000000	0.482941	7.37576e+06	-54889.1	1055.82	-29742	0.000000	0.000000	6.482945	0.039388	NaN	0.000000	0.001604	0.001747	28.0833	0.060810	0.002008	30.2813	-176.809	-166.898	-0.031810	0.481597	-1.249854	-1.251198	0.039388	30.2813	-1.250829	-5.260331E+16	-7.487826E-19	NaN
1095	1.000000	0.494947	7.37576e+06	-54889.1	1055.82	-29742	0.000000	0.000000	6.494952	0.043935	NaN	0.000000	0.001612	0.001718	28.0832	0.060841	0.001994	30.5071	9.905594	-167.341	-0.107714	0.493599	-1.237848	-1.239196	0.043935	30.5071	-1.238928	-3.645832E+16	-1.205067E-18	NaN
1095	1.000000	0.506933	7.37576e+06	-54889.1	1055.82	-29742	0.000000	0.000000	6.506936	0.009805	NaN	0.000000	0.001626	0.001698	28.083	0.032999	0.002038	16.1941	-170.801	-164.523	0.065900	0.505640	-1.225861	-1.227155	0.009805	16.1941	-1.226316	-2.471906E+16	-3.966728E-19	NaN
1095	1.000000	0.518933	7.37577e+06	-54889.1	1055.82	-29742	0.000000	0.000000	6.518934	-0.043398	NaN	0.000000	0.001714	0.001735	28.0832	0.085641	0.002005	42.7198	-36.6117	-170.583	0.014650	0.517619	-1.213862	-1.215176	-0.043398	42.7198	-1.213100	-1.644919E+16	2.638331E-18	NaN
1095	1.000000	0.530941	7.37577e+06	-54889.1	1055.82	-29742	0.000000	0.000000	6.530940	-0.078839	NaN	0.000000	0.001712	0.001754	28.0831	0.068998	0.001949	35.401	-113.243	-170.326	-0.061330	0.529656	-1.201854	-1.203139	-0.078839	35.401	-1.200184	-1.104622E+16	7.137160E-18	NaN
1095	1.000000	0.542946	7.37577e+06	-54889.1	1055.82	-29742	0.000000	0.000000	6.542948	-0.025571	NaN	0.000000	0.001679	0.001729	28.0829	0.085905	0.001947	44.128	-103.469	-169.573	-0.029819	0.541658	-1.189849	-1.191137	-0.025571	44.128	-1.189414	-7.924602E+15	3.226749E-18	NaN
1095	1.000000	0.554934	7.37577e+06	-54889.1	1055.82	-29742	0.000000	0.000000	6.554934	-0.065501	NaN	0.000000	0.001708	0.001730	28.0829	0.018502	0.002039	9.075177	-147.264	-167.259	-0.101692	0.553629	-1.177861	-1.179166	-0.065501	9.075177	-1.172447	-4.695488E+15	1.394975E-17	NaN
1095	1.000000	0.566941	7.37577e+06	-54889.1	1055.82	-29742	0.000000	0.000000	6.566940	-0.093869	NaN	0.000000	0.001700	0.001711	28.0831	0.022905	0.001989	11.5154	104.302	-166.347	-0.064899	0.565725	-1.165854	-1.167070	-0.093869	11.5154	-1.159740	-3.172374E+15	2.958958E-17	NaN
1095	1.000000	0.578980	7.37577e+06	-54889.1	1055.82	-29742	0.000000	0.000000	6.578981	-0.030888	NaN	0.000000	0.001684	0.001769	28.0831	0.022514	0.002122	10.6094	87.0409	-166.922	0.046558	0.577669	-1.153815	-1.155126	-0.030888	10.6094	-1.151631	-2.469947E+15	1.250550E-17	NaN
1095	1.000000	0.590983	7.37577e+06	-54889.1	1055.82	-29742	0.000000	0.000000	6.590981	-0.109904	NaN	0.000000	0.001718	0.001704	28.0831	0.076602	0.002068	37.0395	-142.713	-165.765	-0.106141	0.589702	-1.141812	-1.143093	-0.109904	37.0395	-1.139587	-1.702930E+15	6.453829E-17	NaN
1095	1.000000	0.602983	7.37577e+06	-54889.1	1055.82	-29742	0.000000	0.000000	6.602985	-0.002105	NaN	0.000000	0.001733	0.001726	28.0829	0.141207	0.002002	70.5178	63.6432	-165.949	0.010188	0.601659	-1.129812	-1.131136	-0.002105	70.5178	-1.129790	-1.258361E+15	1.672471E-18	NaN
1095	1.000000	0.614984	7.37577e+06	-54889.1	1055.82	-29742	0.000000	0.000000	6.614986	-0.001972	NaN	0.000000	0.001742	0.001728	28.0817	0.036782	0.002091	17.5946	-88.4562	-166.868	0.006712	0.613697	-1.117811	-1.119098	-0.001972	17.5946	-1.117727	-8.669070E+14	2.274746E-18	NaN
1095	1.000000	0.626989	7.37577e+06	-54889.1	1055.82	-29742	0.000000	0.000000	6.626992	0.013300	NaN	0.000000	0.001696	0.001755	28.0816	0.059038	0.001957	30.1599	-47.7531	-168.426	-0.017287	0.625626	-1.105806	-1.107169	0.013300	30.1599	-1.106137	-6.059599E+14	-2.194942E-17	NaN
1095	1.000000	0.638995	7.37577e+06	-54889.1	1055.82	-29742	0.000000	0.000000	6.638996	-0.032573	NaN	0.000000	0.001646	0.001756	28.0817	0.040919	0.002028	20.1738	85.2691	-169.989	-0.003869	0.637667	-1.093800	-1.095128	-0.032573	20.1738	-1.092589	-3.986301E+14	8.171182E-17	NaN
1095	1.000000	0.650980	7.37577e+06	-54889.1	1055.82	-29742	0.000000	0.000000	6.650982	0.005949	NaN	0.000000	0.001646	0.001724	28.0814	0.045864	0.002007	22.8526	-15.3739	-163.518	-0.054500	0.649715	-1.081815	-1.083080	0.005949	22.8526	-1.082011	-2.874233E+14	-2.069652E-17	NaN
1095	1.000000	0.663019	7.37577e+06	-54889.1	1055.82	-29742	0.000000	0.000000	6.663021	-0.029554	NaN	0.000000	0.001686	0.001736	28.082	0.061832	0.002021	30.601	-176.273	-165.814	-0.041239	0.661657	-1.069775	-1.071138	-0.029554	30.601	-1.069051	-1.925048E+14	1.535224E-16	NaN
1095	1.000000	0.674986	7.37577e+06	-54889.1	1055.82	-29742	0.000000	0.000000	6.674989	0.024185	NaN	0.000000	0.001683	0.001745	28.0818	0.015838	0.001913	8.277790	-26.5762	-165.768	0.006830	0.673655	-1.057809	-1.059140	0.024185	8.277790	-1.060001	-1.454886E+14	-1.662313E-16	NaN
1095	1.000000	0.686995	7.37577e+06	-54889.1	1055.82	-29742	0.000000	0.000000	6.686999	0.018939	NaN	0.000000	0.001677	0.001741	28.0816	0.065606	0.001951	33.6263	65.7698	-163.693	-0.004610	0.685697	-1.045800	-1.047098	0.018939	33.6263	-1.046222	-9.497840E+13	-1.994065E-16	NaN
1095	1.000000	0.698972	7.37577e+06	-54889.1	1055.82	-29742	0.000000	0.000000	6.698974	0.003133	NaN	0.000000	0.001672	0.001704	28.0816	0.032138	0.001999	16.0763	158.825	-166.664	0.000872	0.697708	-1.033823	-1.035087	0.003133	16.0763	-1.033970	-6.499368E+13	-4.819973E-17	NaN
1095	1.000000	0.710989	7.37577e+06	-54889.1	1055.82	-29742	0.000000	0.000000	6.710993	0.022162	NaN	0.000000	0.001675	0.001748	28.0814	0.031929	0.001914	16.6827	40.1722	-165.625	0.004293	0.709650	-1.021806	-1.023145	0.022162	16.6827	-1.022802	-4.598879E+13	-4.819073E-16	NaN
1095	1.000000	0.723006	7.37577e+06	-54889.1	1055.82	-29742	0.000000	0.000000	6.723007	-0.031011	NaN	0.000000	0.001642	0.001733	28.0814	0.080739	0.001928	41.8712	91.5663	-170.542	-0.064958	0.721725	-1.009789	-1.011070	-0.031011	41.8712	-1.009233	-3.020395E+13	1.026730E-15	NaN
1095	1.000000	0.735001	7.37577e+06	-54889.1	1055.82	-29742	0.000000	0.000000	6.735008	0.093685	NaN	0.000000	0.001633	0.001783	28.0816	0.133520	0.001940	68.8251	100.772	-168.153	0.042140	0.733716	-0.997794	-0.999079	0.093685	68.8251	-0.998815	-2.186798E+13	-4.284138E-15	NaN
1095	1.000000	0.747024	7.37577e+06	-54889.1	1055.82	-29742	0.000000	0.000000	6.747024	-0.040561	NaN	0.000000	0.001635	0.001719	28.0826	0.050878	0.002149	23.675	-34.7122	-168.463	0.024004	0.745746	-0.985771	-0.987049	-0.040561	23.675	-0.984486	-1.402325E+13	2.892437E-15	NaN
1095	1.000000	0.759040	7.37577e+06	-54889.1	1055.82	-29742	0.000000	0.000000	6.759043	-0.000817	NaN	0.000000	0.001583	0.001759	28.083	0.029053	0.001909	15.2151	138.547	-167.151	0.058580	0.757724	-0.973755	-0.975071	-0.000817	15.2151	-0.973715	-1.003969E+13	8.141050E-17	NaN
1095	1.000000	0.771056	7.37577e+06	-54889.1	1055.82	-29742	0.000000	0.000000	6.771057	-0.039303	NaN	0.000000	0.001565	0.001752	28.0827	0.065806	0.002137	30.7938	-9.390267	-166.218	0.040791	0.769674	-0.961739	-0.963121	-0.039303	30.7938	-0.960781	-6.720520E+12	5.848212E-15	NaN
1095	1.000000	0.783064	7.37577e+06	-54889.1	1055.82	-29742	0.000000	0.000000	6.783064	-0.063199	NaN	0.000000	0.001536	0.001782	28.0826	0.028597	0.001886	15.1617	123.035	-164.114	-0.005469	0.781742	-0.949731	-0.951053	-0.063199	15.1617	-0.946604	-4.327418E+12	1.460438E-14	NaN
1095	1.000000	0.795044	7.37577e+06	-54889.1	1055.82	-29742	0.000000	0.000000	6.795044	-0.052786	NaN	0.000000	0.001547	0.001742	28.0829	0.021813	0.002006	10.8761	-165.043	-166.111	-0.115846	0.793742	-0.937751	-0.939053	-0.052786	10.8761	-0.934111	-2.935469E+12	1.798200E-14	NaN
1095	1.000000	0.807046	7.37577e+06	-54889.1	1055.82	-29742	0.000000	0.000000	6.807047	-0.035408	NaN	0.000000	0.001527	0.001726	28.0827	0.048938	0.002166	22.5902	-43.7623	-169.562	-0.002306	0.805747	-0.925749	-0.927048	-0.035408	22.5902	-0.924573	-2.182472E+12	1.622370E-14	NaN
1095	1.000000	0.819063	7.37577e+06	-54889.1	1055.82	-29742	0.000000	0.000000	6.819067	0.034290	NaN	0.000000	0.001633	0.001756	28.0826	0.072400	0.002010	36.0147	127.455	-165.571	0.073288	0.817722	-0.913732	-0.915073	0.034290	36.0147	-0.914446	-1.592963E+12	-2.152600E-14	NaN
1095	1.000000	0.831041	7.37577e+06	-54889.1	1055.82	-29742	0.000000	0.000000	6.831042	-0.037349	NaN	0.000000	0.001604	0.001731	28.0828	0.077005	0.001877	41.0181	-64.5152	-164.656	-0.027294	0.829702	-0.901754	-0.903093	-0.037349	41.0181	-0.901071	-1.050848E+12	3.554135E-14	NaN
1095	1.000000	0.843074	7.37577e+06	-54889.1	1055.82	-29742	0.000000	0.000000	6.843079	0.063140	NaN	0.000000	0.001549	0.001756	28.0829	0.032036	0.002016	15.8924	-82.6799	-164.957	0.012252	0.841813	-0.889721	-0.890982	0.063140	15.8924	-0.892701	-8.098829E+11	-7.796214E-14	NaN
1095	1.000000	0.855086	7.37577e+06	-54889.1	1055.82	-29742	0.000000	0.000000	6.855088	-0.012245	NaN	0.000000	0.001534	0.001741	28.0831	0.057896	0.002002	28.9192	113.768	-169.164	-0.075066	0.853759	-0.877709	-0.879036	-0.012245	28.9192	-0.877392	-5.028422E+11	2.435114E-14	NaN
1095	1.000000	0.867083	7.37577e+06	-54889.1	1055.82	-29742	0.000000	0.000000	6.867087	0.050681	NaN	0.000000	0.001554	0.001760	28.083	0.027377	0.002128	12.8629	120.395	-166.329	0.026994	0.865816	-0.865712	-0.866979	0.050681	12.8629	-0.868667	-3.831885E+11	-1.322612E-13	NaN
1095	1.000000	0.879082	7.37577e+06	-54889.1	1055.82	-29742	0.000000	0.000000	6.879083	-0.041630	NaN	0.000000	0.001512	0.001723	28.0831	0.065619	0.001853	35.4198	-42.4741	-167.058	-0.113549	0.877834	-0.853713	-0.854961	-0.041630	35.4198	-0.852831	-2.339248E+11	1.779639E-13	NaN
1095	1.000000	0.891117	7.37577e+06	-54889.1	1055.82	-29742	0.000000	0.000000	6.891117	-0.055304	NaN	0.000000	0.001514	0.001771	28.0815	0.095639	0.002050	46.6444	-65.1965	-164.652	-0.026755	0.889788	-0.841678	-0.843007	-0.055304	46.6444	-0.840789	-1.606858E+11	3.441730E-13	NaN
1095	1.000000	0.903102	7.37577e+06	-54889.1	1055.82	-29742	0.000000	0.000000	6.903104	-0.003761	NaN	0.000000	0.001514	0.001762	28.0815	0.039667	0.001929	20.5612	99.5681	-164.766	-0.028557	0.901818	-0.829693	-0.830977	-0.003761	20.5612	-0.829556	-1.131791E+11	3.322903E-14	NaN
1095	1.000000	0.915084	7.37577e+06	-54889.1	1055.82	-29742	0.000000	0.000000	6.915085	-0.052592	NaN	0.000000	0.001543	0.001731	28.0816	0.128971	0.001996	64.6199	-80.2511	-165.983	0.000251	0.913792	-0.817711	-0.819003	-0.052592	64.6199	-0.817100	-7.671608E+10	6.855359E-13	NaN
1095	1.000000	0.927100	7.37577e+06	-54889.1	1055.82	-29742	0.000000	0.000000	6.927100	-0.079461	NaN	0.000000	0.001528	0.001730	28.0817	0.065905	0.002040	32.3008	-138.287	-168.047	-0.050366	0.925787	-0.805695	-0.807008	-0.079461	32.3008	-0.803849	-5.071211E+10	1.566909E-12	NaN
1095	1.000000	0.939121	7.37577e+06	-54889.1	1055.82	-29742	0.000000	0.000000	6.939121	-0.072701	NaN	0.000000	0.001560	0.001728	28.0816	0.025901	0.001991	13.007	70.9553	-168.638	-0.171944	0.937814	-0.793673	-0.794981	-0.072701	13.007	-0.789481	-3.236241E+10	2.246465E-12	NaN
1095	1.000000	0.951114	7.37577e+06	-54889.1	1055.82	-29742	0.000000	0.000000	6.951111	-0.121286	NaN	0.000000	0.001568	0.001761	28.0826	0.040495	0.002048	19.7755	53.751	-163.703	-0.054754	0.949747	-0.781681	-0.783048	-0.121286	19.7755	-0.777082	-2.195691E+10	5.523798E-12	NaN
1095	1.000000	0.963137	7.37577e+06	-54889.1	1055.82	-29742	0.000000	0.000000	6.963137	-0.051592	NaN	0.000000	0.001590	0.001743	28.0819	0.053781	0.001961	27.4231	115.694	-163.794	-0.135101	0.961843	-0.769658	-0.770952	-0.051592	27.4231	-0.768247	-1.665209E+10	3.098246E-12	NaN
1095	1.000000	0.975142	7.37577e+06	-54889.1	1055.82	-29742	0.000000	0.000000	6.975142	-0.061089	NaN	0.000000	0.001599	0.001762	28.0817	0.088873	0.001908	46.5862	-41.9392	-166.626	-0.082366	0.973802	-0.757653	-0.758993	-0.061089	46.5862	-0.756669	-1.158744E+10	5.271979E-12	NaN
1095	1.000000	0.987110	7.37577e+06	-54889.1	1055.82	-29742	0.000000	0.000000	6.987111	-0.033618	NaN	0.000000	0.001553	0.001732	28.0817	0.167969	0.001795	93.564	-65.4455	-168.468	-0.000370	0.985796	-0.745685	-0.746999	-0.033618	93.564	-0.745416	-8.143421E+9	4.128187E-12	NaN
1095	1.000000	0.999137	7.37577e+06	-54889.1	1055.82	-29742	0.000000	0.000000	6.999138	-0.035934	NaN	0.000000	0.001535	0.001776	28.0817	0.045871	0.001980	23.1698	-31.6357	-169.363	-0.075109	0.997831	-0.733658	-0.734964	-0.035934	23.1698	-0.732495	-5.430169E+9	6.617526E-12	NaN
1095	1.000000	1.011139	7.37577e+06	-54889.1	1055.82	-29742	0.000000	0.000000	7.011142	-0.001098	NaN	0.000000	0.001546	0.001768	28.0817	0.080555	0.001973	40.836	-150.807	-166.474	0.052168	1.009839	-0.721656	-0.722956	-0.001098	40.836	-0.721636	-3.861705E+9	2.842227E-13	NaN
1095	1.000000	1.023138	7.37577e+06	-54889.1	1055.82	-29742	0.000000	0.000000	7.023138	-0.074414	NaN	0.000000	0.001556	0.001758	28.0828	0.126128	0.001964	64.22	-69.2386	-163.986	0.011736	1.021857	-0.709657	-0.710938	-0.074414	64.22	-0.708788	-2.579306E+9	2.885053E-11	NaN
1095	1.000000	1.035163	7.37577e+06	-54889.1	1055.82	-29742	0.000000	0.000000	7.035164	-0.039369	NaN	0.000000	0.001524	0.001712	28.083	0.112089	0.002023	55.4202	-157.36	-164.119	0.019009	1.033824	-0.697632	-0.698971	-0.039369	55.4202	-0.697099	-1.786133E+9	2.204151E-11	NaN
1095	1.000000	1.047148	7.37577e+06	-54889.1	1055.82	-29742	0.000000	0.000000	7.047149	-0.035198	NaN	0.000000	0.001531	0.001763	28.0833	0.026405	0.002095	12.6025	148.682	-164.274	0.000426	1.045846	-0.685647	-0.686949	-0.035198	12.6025	-0.683552	-1.166216E+9	3.018101E-11	NaN
1095	1.000000	1.059170	7.37577e+06	-54889.1	1055.82	-29742	0.000000	0.000000	7.059175	0.045001	NaN	0.000000	0.001523	0.001756	28.0828	0.144039	0.001869	77.0477	4.850457	-168.556	0.000949	1.057875	-0.673625	-0.674920	0.045001	77.0477	-0.674063	-8.649425E+8	-5.202757E-11	NaN
1095	1.000000	1.071168	7.37577e+06	-54889.1	1055.82	-29742	0.000000	0.000000	7.071172	0.041692	NaN	0.000000	0.001526	0.001756	28.0828	0.037317	0.002137	17.4589	-137.211	-159.872	0.031288	1.069890	-0.661627	-0.662905	0.041692	17.4589	-0.663418	-6.184224E+8	-6.741655E-11	NaN
1095	1.000000	1.083173	7.37577e+06	-54889.1	1055.82	-29742	0.000000	0.000000	7.083174	-0.015006	NaN	0.000000	0.001512	0.001759	28.0829	0.091198	0.001980	46.0635	136.666	-167.476	0.040746	1.081832	-0.649622	-0.650963	-0.015006	46.0635	-0.649378	-3.971095E+8	3.778792E-11	NaN
1095	1.000000	1.095153	7.37577e+06	-54889.1	1055.82	-29742	0.000000	0.000000	7.095154	-0.036286	NaN	0.000000	0.001591	0.001747	28.0829	0.027031	0.002013	13.426	14.0031	-170.382	-0.015778	1.093838	-0.637642	-0.638957	-0.036286	13.426	-0.635615	-2.571061E+8	1.411320E-10	NaN
1095	1.000000	1.107175	7.37577e+06	-54889.1	1055.82	-29742	0.000000	0.000000	7.107176	-0.040607	NaN	0.000000	0.001581	0.001735	28.0832	0.056756	0.001883	30.1357	9.846317	-165.145	-0.057628	1.105899	-0.625620	-0.626896	-0.040607	30.1357	-0.624609	-1.815401E+8	2.236810E-10	NaN
1095	1.000000	1.119187	7.37577e+06	-54889.1	1055.82	-29742	0.000000	0.000000	7.119187	-0.048432	NaN	0.000000	0.001629	0.001755	28.0829	0.074352	0.001953	38.0788	27.7372	-167.531	-0.004042	1.117894	-0.613608	-0.614901	-0.048432	38.0788	-0.612654	-1.243441E+8	3.894971E-10	NaN
1095	1.000000	1.131208	7.37577e+06	-54889.1	1055.82	-29742	0.000000	0.000000	7.131212	0.014856	NaN	0.000000	0.001603	0.001732	28.083	0.111870	0.001838	60.8797	59.6553	-165.969	-0.053611	1.129889	-0.601587	-0.602906	0.014856	60.8797	-0.601770	-8.807014E+7	-1.686868E-10	NaN
1095	1.000000	1.143224	7.37577e+06	-54889.1	1055.82	-29742	0.000000	0.000000	7.143227	0.015791	NaN	0.000000	0.001653	0.001744	28.0831	0.081687	0.002101	38.8853	164.12	-167.25	-0.006390	1.141944	-0.589571	-0.590851	0.015791	38.8853	-0.589875	-6.038753E+7	-2.614984E-10	NaN
1095	1.000000	1.155191	7.37577e+06	-54889.1	1055.82	-29742	0.000000	0.000000	7.155192	-0.027226	NaN	0.000000	0.001634	0.001729	28.0819	0.104455	0.002109	49.5293	115.423	-167.917	-0.004325	1.153885	-0.577604	-0.578910	-0.027226	49.5293	-0.577192	-4.036126E+7	6.745470E-10	NaN
1095	1.000000	1.167206	7.37577e+06	-54889.1	1055.82	-29742	0.000000	0.000000	7.167208	-0.004106	NaN	0.000000	0.001633	0.001737	28.0817	0.119804	0.001842	65.0257	8.267067	-162.84	0.029195	1.165908	-0.565589	-0.566886	-0.004106	65.0257	-0.565542	-2.786238E+7	1.473698E-10	NaN
1095	1.000000	1.179211	7.37577e+06	-54889.1	1055.82	-29742	0.000000	0.000000	7.179214	0.007078	NaN	0.000000	0.001654	0.001766	28.0817	0.106465	0.002002	53.1885	61.9237	-165.72	0.041953	1.177916	-0.553584	-0.554879	0.007078	53.1885	-0.553683	-1.909684E+7	-3.706443E-10	NaN
1095	1.000000	1.191182	7.37577e+06	-54889.1	1055.82	-29742	0.000000	0.000000	7.191186	0.056393	NaN	0.000000	0.001615	0.001761	28.0817	0.023284	0.002045	11.3853	-77.0502	-165.245	0.070541	1.189916	-0.541613	-0.542879	0.056393	11.3853	-0.545328	-1.462950E+7	-3.854730E-9	NaN
1095	1.000000	1.203202	7.37577e+06	-54889.1	1055.82	-29742	0.000000	0.000000	7.203205	0.001998	NaN	0.000000	0.001677	0.001750	28.0818	0.064123	0.002109	30.4095	-64.9909	-170.356	0.023813	1.201897	-0.529593	-0.530898	0.001998	30.4095	-0.529642	-8.86341e+06	-2.253947E-10	NaN
1095	1.000000	1.215219	7.37577e+06	-54889.1	1055.82	-29742	0.000000	0.000000	7.215220	-0.055649	NaN	0.000000	0.001642	0.001764	28.0817	0.077527	0.002016	38.4609	115.758	-167.224	-0.044568	1.213910	-0.517576	-0.518885	-0.055649	38.4609	-0.516490	-5.81801e+06	9.564943E-9	NaN
1095	1.000000	1.227239	7.37577e+06	-54889.1	1055.82	-29742	0.000000	0.000000	7.227240	-0.036446	NaN	0.000000	0.001578	0.001775	28.0819	0.060690	0.002035	29.8301	-12.5476	-165.373	0.014209	1.225900	-0.505556	-0.506895	-0.036446	29.8301	-0.504639	-3.97847e+06	9.160803E-9	NaN
1095	1.000000	1.239221	7.37577e+06	-54889.1	1055.82	-29742	0.000000	0.000000	7.239220	-0.081445	NaN	0.000000	0.001565	0.001736	28.0818	0.021316	0.001908	11.1744	-177.051	-163.861	-0.056615	1.237885	-0.493574	-0.494910	-0.081445	11.1744	-0.488108	-2.33855e+06	3.482701E-8	NaN
1095	1.000000	1.251245	7.37577e+06	-54889.1	1055.82	-29742	0.000000	0.000000	7.251247	-0.001859	NaN	0.000000	0.001614	0.001770	28.0816	0.078221	0.001899	41.1878	-26.6205	-167.71	-0.067808	1.249940	-0.481550	-0.482855	-0.001859	41.1878	-0.481516	-1.89125e+06	9.831083E-10	NaN
1095	1.000000	1.263231	7.37577e+06	-54889.1	1055.82	-29742	0.000000	0.000000	7.263232	-0.033222	NaN	0.000000	0.001584	0.001662	28.0817	0.055442	0.001986	27.9225	-103.806	-168.951	0.000837	1.261993	-0.469564	-0.470802	-0.033222	27.9225	-0.468671	-1.24959e+06	2.658606E-8	NaN
1095	1.000000	1.275245	7.37577e+06	-54889.1	1055.82	-29742	0.000000	0.000000	7.275250	0.082766	NaN	0.000000	0.001571	0.001714	28.0815	0.024768	0.001976	12.534	65.3372	-166.755	0.121175	1.273946	-0.457550	-0.458849	0.082766	12.534	-0.462503	-1.02372e+06	-8.084786E-8	NaN
1095	1.000000	1.287255	7.37577e+06	-54889.1	1055.82	-29742	0.000000	0.000000	7.287254	-0.080033	NaN	0.000000	0.001619	0.001694	28.0816	0.130926	0.001981	66.0903	-88.1079	-163.906	-0.064093	1.285995	-0.445540	-0.446800	-0.080033	66.0903	-0.444632	-573729	1.394957E-7	NaN
1095	1.000000	1.299268	7.37577e+06	-54889.1	1055.82	-29742	0.000000	0.000000	7.299269	-0.031493	NaN	0.000000	0.001501	0.001729	28.083	0.092510	0.002029	45.5866	-95.2476	-168.253	-0.069320	1.297980	-0.433527	-0.434815	-0.031493	45.5866	-0.433009	-393198	8.009355E-8	NaN
1095	1.000000	1.311285	7.37577e+06	-54889.1	1055.82	-29742	0.000000	0.000000	7.311287	-0.012138	NaN	0.000000	0.001548	0.001689	28.0828	0.088724	0.001905	46.564	57.2066	-163.245	-0.098927	1.309918	-0.421510	-0.422877	-0.012138	46.564	-0.421315	-268569	4.519562E-8	NaN
1095	1.000000	1.323289	7.37577e+06	-54889.1	1055.82	-29742	0.000000	0.000000	7.323290	-0.033519	NaN	0.000000	0.001571	0.001722	28.083	0.094890	0.002106	45.0474	152.499	-166.251	-0.064821	1.321964	-0.409506	-0.410831	-0.033519	45.0474	-0.408948	-179239	1.870071E-7	NaN
1095	1.000000	1.335287	7.37577e+06	-54889.1	1055.82	-29742	0.000000	0.000000	7.335291	0.042941	NaN	0.000000	0.001556	0.001682	28.0829	0.084877	0.001805	47.0129	92.9607	-166.892	-0.012706	1.333974	-0.397508	-0.398821	0.042941	47.0129	-0.398193	-125957	-3.409169E-7	NaN
1095	1.000000	1.347284	7.37577e+06	-54889.1	1055.82	-29742	0.000000	0.000000	7.347284	-0.050894	NaN	0.000000	0.001566	0.001679	28.083	0.058391	0.002029	28.7752	137.715	-166.711	-0.182790	1.346006	-0.385511	-0.386789	-0.050894	28.7752	-0.384185	-79414.7	6.408612E-7	NaN
1095	1.000000	1.359267	7.37577e+06	-54889.1	1055.82	-29742	0.000000	0.000000	7.359267	-0.060391	NaN	0.000000	0.001579	0.001740	28.0829	0.064591	0.001937	33.3535	-29.3609	-165.902	-0.083801	1.357972	-0.373528	-0.374822	-0.060391	33.3535	-0.372170	-53377.8	1.131396E-6	NaN
1095	1.000000	1.371300	7.37577e+06	-54889.1	1055.82	-29742	0.000000	0.000000	7.371300	-0.047165	NaN	0.000000	0.001590	0.001724	28.0827	0.039298	0.001991	19.7368	24.0284	-164.338	-0.037188	1.369985	-0.361495	-0.362810	-0.047165	19.7368	-0.359703	-35281.7	1.336802E-6	NaN
1095	1.000000	1.383303	7.37577e+06	-54889.1	1055.82	-29742	0.000000	0.000000	7.383306	0.008503	NaN	0.000000	0.001627	0.001732	28.0828	0.101527	0.001980	51.2875	-81.8951	-166.089	0.035240	1.381977	-0.349492	-0.350818	0.008503	51.2875	-0.349616	-25202	-3.374118E-7	NaN
1095	1.000000	1.395325	7.37577e+06	-54889.1	1055.82	-29742	0.000000	0.000000	7.395326	-0.027589	NaN	0.000000	0.001577	0.001699	28.0827	0.038843	0.002070	18.7616	14.3021	-167.956	0.036815	1.394018	-0.337470	-0.338777	-0.027589	18.7616	-0.336367	-16164.2	1.706778E-6	NaN
1095	1.000000	1.407321	7.37577e+06	-54889.1	1055.82	-29742	0.000000	0.000000	7.407320	-0.073725	NaN	0.000000	0.001630	0.001647	28.083	0.025833	0.001933	13.3678	138.613	-167.489	-0.070482	1.406014	-0.325474	-0.326781	-0.073725	13.3678	-0.321338	-9734.68	7.573404E-6	NaN
1095	1.000000	1.419287	7.37577e+06	-54889.1	1055.82	-29742	0.000000	0.000000	7.419287	-0.066694	NaN	0.000000	0.001654	0.001654	28.0829	0.022045	0.001898	11.6146	67.3397	-162.156	-0.079582	1.418025	-0.313508	-0.314770	-0.066694	11.6146	-0.309201	-6445.06	1.034807E-5	NaN
1095	1.000000	1.431340	7.37577e+06	-54889.1	1055.82	-29742	0.000000	0.000000	7.431342	-0.013646	NaN	0.000000	0.001625	0.001648	28.0816	0.024643	0.002104	11.7133	-174.901	-164.637	-0.040232	1.429989	-0.301455	-0.302806	-0.013646	11.7133	-0.300581	-4800.44	2.842684E-6	NaN
1095	1.000000	1.443303	7.37577e+06	-54889.1	1055.82	-29742	0.000000	0.000000	7.443303	-0.059607	NaN	0.000000	0.001666	0.001641	28.0814	0.106869	0.001953	54.7158	32.0304	-164.284	-0.047464	1.441989	-0.289492	-0.290806	-0.059607	54.7158	-0.288675	-3187.43	1.870065E-5	NaN
1095	1.000000	1.455337	7.37577e+06	-54889.1	1055.82	-29742	0.000000	0.000000	7.455340	0.028340	NaN	0.000000	0.001607	0.001676	28.0817	0.097652	0.001845	52.9249	144.737	-165.66	0.034902	1.454002	-0.277458	-0.278793	0.028340	52.9249	-0.277860	-2191.08	-1.293423E-5	NaN
1095	1.000000	1.467363	7.37577e+06	-54889.1	1055.82	-29742	0.000000	0.000000	7.467364	-0.031504	NaN	0.000000	0.001622	0.001692	28.0814	0.089132	0.002024	44.0413	31.7588	-163.663	-0.037849	1.466036	-0.265432	-0.266759	-0.031504	44.0413	-0.264895	-1392.49	2.262429E-5	NaN
1095	1.000000	1.479332	7.37577e+06	-54889.1	1055.82	-29742	0.000000	0.000000	7.479334	-0.016962	NaN	0.000000	0.001652	0.001669	28.0814	0.059783	0.002056	29.0815	111.908	-165.317	-0.085525	1.478005	-0.253463	-0.254790	-0.016962	29.0815	-0.253025	-915.561	1.852650E-5	NaN
1095	1.000000	1.491355	7.37577e+06	-54889.1	1055.82	-29742	0.000000	0.000000	7.491358	0.002483	NaN	0.000000	0.001640	0.001644	28.0815	0.022516	0.002089	10.7761	94.6768	-161.755	-0.046264	1.490041	-0.241440	-0.242754	0.002483	10.7761	-0.241613	-609.148	-4.075756E-6	NaN
1095	1.000000	1.503365	7.37577e+06	-54889.1	1055.82	-29742	0.000000	0.000000	7.503364	-0.090064	NaN	0.000000	0.001643	0.001682	28.0814	0.096576	0.002044	47.2585	129.506	-168.863	-0.078395	1.502078	-0.229430	-0.230717	-0.090064	47.2585	-0.228000	-372.312	0.000242	NaN
1095	1.000000	1.515337	7.37577e+06	-54889.1	1055.82	-29742	0.000000	0.000000	7.515338	-0.018484	NaN	0.000000	0.001651	0.001663	28.0818	0.029981	0.002039	14.7004	134.665	-163.733	-0.006824	1.514063	-0.217458	-0.218732	-0.018484	14.7004	-0.216515	-244.266	7.566992E-5	NaN
1095	1.000000	1.527394	7.37577e+06	-54889.1	1055.82	-29742	0.000000	0.000000	7.527396	-0.009517	NaN	0.000000	0.001643	0.001694	28.0816	0.076309	0.002061	37.0275	-93.3705	-162.623	-0.061316	1.526139	-0.205401	-0.206656	-0.009517	37.0275	-0.205208	-160.308	5.936540E-5	NaN
1095	1.000000	1.539349	7.37577e+06	-54889.1	1055.82	-29742	0.000000	0.000000	7.539350	-0.031178	NaN	0.000000	0.001634	0.001657	28.0815	0.018592	0.001983	9.375032	-49.6394	-163.995	-0.002663	1.538109	-0.193446	-0.194686	-0.031178	9.375032	-0.190952	-93.3086	0.000334	NaN
1095	1.000000	1.551344	7.37577e+06	-54889.1	1055.82	-29742	0.000000	0.000000	7.551349	0.044696	NaN	0.000000	0.001648	0.001659	28.0818	0.051105	0.002104	24.2909	-128.665	-165.158	0.018526	1.550028	-0.181451	-0.182767	0.044696	24.2909	-0.182831	-68.1546	-0.000656	NaN
1095	1.000000	1.563390	7.37577e+06	-54889.1	1055.82	-29742	0.000000	0.000000	7.563387	-0.114503	NaN	0.000000	0.001603	0.001662	28.0816	0.025877	0.001917	13.5015	56.6121	-165.503	-0.114682	1.562041	-0.169405	-0.170754	-0.114503	13.5015	-0.163045	-31.0379	0.003689	NaN
1095	1.000000	1.575408	7.37577e+06	-54889.1	1055.82	-29742	0.000000	0.000000	7.575409	-0.042742	NaN	0.000000	0.001591	0.001662	28.0827	0.137306	0.002079	66.0463	-179.132	-166.712	-0.009292	1.574112	-0.157387	-0.158683	-0.042742	66.0463	-0.156901	-24.1386	0.001771	NaN
1095	1.000000	1.587430	7.37577e+06	-54889.1	1055.82	-29742	0.000000	0.000000	7.587429	-0.083226	NaN	0.000000	0.001669	0.001658	28.0828	0.100331	0.001973	50.8464	129.012	-164.678	-0.064951	1.586093	-0.145365	-0.146702	-0.083226	50.8464	-0.144137	-14.1315	0.005889	NaN
1095	1.000000	1.599416	7.37577e+06	-54889.1	1055.82	-29742	0.000000	0.000000	7.599417	-0.041921	NaN	0.000000	0.001646	0.001653	28.0828	0.015977	0.001944	8.216865	173.666	-160.677	-0.074649	1.598129	-0.133379	-0.134666	-0.041921	8.216865	-0.129553	-7.469871	0.005612	NaN
1095	1.000000	1.611425	7.37577e+06	-54889.1	1055.82	-29742	0.000000	0.000000	7.611426	-0.032142	NaN	0.000000	0.001610	0.001676	28.0831	0.011229	0.002006	5.598870	-152.135	-161.979	-0.025163	1.610137	-0.121370	-0.122658	-0.032142	5.598870	-0.117065	-4.211894	0.007631	NaN
1095	1.000000	1.623408	7.37577e+06	-54889.1	1055.82	-29742	0.000000	0.000000	7.623411	0.001324	NaN	0.000000	0.001610	0.001687	28.0831	0.030134	0.002079	14.4936	114.909	-164.196	-0.003440	1.622085	-0.109387	-0.110710	0.001324	14.4936	-0.109455	-2.926661	-0.000452	NaN
1095	1.000000	1.635425	7.37577e+06	-54889.1	1055.82	-29742	0.000000	0.000000	7.635427	-0.015059	NaN	0.000000	0.001587	0.001636	28.0831	0.064512	0.001916	33.6739	-12.0725	-160.017	0.037800	1.634143	-0.097370	-0.098652	-0.015059	33.6739	-0.097034	-1.568555	0.009601	NaN
1095	1.000000	1.647426	7.37577e+06	-54889.1	1055.82	-29742	0.000000	0.000000	7.647426	-0.040518	NaN	0.000000	0.001550	0.001658	28.0828	0.058334	0.001991	29.2998	-170.175	-163.41	-0.041352	1.646129	-0.085369	-0.086666	-0.040518	29.2998	-0.084332	-0.791555	0.051188	NaN
1095	1.000000	1.659399	7.37577e+06	-54889.1	1055.82	-29742	0.000000	0.000000	7.659398	-0.082422	NaN	0.000000	0.001597	0.001697	28.0831	0.007113	0.002007	3.545072	-90.8205	-166.654	0.009680	1.658171	-0.073396	-0.074624	-0.082422	3.545072	-0.055959	-0.137442	0.599684	NaN
1095	1.000000	1.671445	7.37577e+06	-54889.1	1055.82	-29742	0.000000	0.000000	7.671446	-0.034426	NaN	0.000000	0.001587	0.001663	28.0831	0.112261	0.002043	54.9607	-139.444	-164.795	-0.079391	1.670109	-0.061350	-0.062686	-0.034426	54.9607	-0.060880	-0.190840	0.180390	NaN
1095	1.000000	1.683434	7.37577e+06	-54889.1	1055.82	-29742	0.000000	0.000000	7.683438	0.035627	NaN	0.000000	0.001618	0.001670	28.083	0.091275	0.001871	48.773	153.739	-162.579	-0.056997	1.682180	-0.049361	-0.050615	0.035627	48.773	-0.049908	-0.090671	-0.392924	NaN
1095	1.000000	1.695448	7.37577e+06	-54889.1	1055.82	-29742	0.000000	0.000000	7.695450	-0.002962	NaN	0.000000	0.001543	0.001685	28.0831	0.010436	0.002090	4.993716	-68.3445	-163.984	-0.089759	1.694171	-0.037347	-0.038624	-0.002962	4.993716	-0.036903	-0.036471	0.081215	NaN
1095	1.000000	1.707458	7.37577e+06	-54889.1	1055.82	-29742	0.000000	0.000000	7.707457	-0.072666	NaN	0.000000	0.001502	0.001664	28.082	0.015189	0.001809	8.397911	-10.8268	-162.825	-0.100755	1.706161	-0.025337	-0.026634	-0.072666	8.397911	-0.018847	-0.011738	6.190508	NaN
1095	1.000000	1.719425	7.37577e+06	-54889.1	1055.82	-29742	0.000000	0.000000	7.719428	0.008878	NaN	0.000000	0.001530	0.001667	28.0818	0.035785	0.001972	18.1494	-19.2112	-164.997	0.039171	1.718146	-0.013370	-0.014649	0.008878	18.1494	-0.013737	-0.008529	-1.040897	NaN
1095	1.000000	1.731414	7.37577e+06	-54889.1	1055.82	-29742	0.000000	0.000000	7.731590	4.224372	NaN	0.000000	0.001544	0.001631	28.0819	4.902289	0.001774	2762.81	13.5985	-169.645	3.317964	1.730135	-0.001381	-0.002660	4.224372	2762.81	-0.002528	-0.001802	-2344.26	NaN
1095	2.000000	1.738066	7.37577e+06	-54889.1	1055.82	-29742	0.000000	0.000000	7.738514	10.8424	NaN	0.000000	0.001579	0.001681	28.082	10.6244	0.001595	6659.5	5.735230	-172.283	10.591	1.737702	0.005271	0.004907	10.8424	6659.5	0.004050	0.003282	3303.13	106198
1095	2.000000	1.740997	7.37577e+06	-54889.1	1055.82	-29742	0.000000	0.000000	7.741603	14.6796	NaN	0.000000	0.001570	0.001671	28.0818	14.0463	0.001725	8144.29	7.497817	-175.36	13.7811	1.740736	0.008202	0.007941	14.6796	8144.29	0.006850	0.005886	2493.96	96987.3
1095	2.000000	1.743968	7.37577e+06	-54889.1	1055.82	-29742	0.000000	0.000000	7.744751	18.9571	NaN	0.000000	0.001550	0.001710	28.0819	17.2175	0.001752	9828.72	4.302406	-173.704	18.6349	1.743691	0.011173	0.010896	18.9571	9828.72	0.009727	0.008879	2134.94	95296.6
1095	2.000000	1.746985	7.37577e+06	-54889.1	1055.82	-29742	0.000000	0.000000	7.748153	28.3297	NaN	0.000000	0.001518	0.001683	28.0817	20.8372	0.001754	11878.7	7.482712	-179.19	27.1543	1.746633	0.014190	0.013839	28.3297	11878.7	0.012401	0.011974	2365.87	99178.6
1095	2.000000	1.749941	7.37577e+06	-54889.1	1055.82	-29742	0.000000	0.000000	7.751156	29.4804	NaN	0.000000	0.001517	0.001668	28.0819	23.3188	0.001795	12990.3	9.814907	178.114	28.3197	1.749706	0.017146	0.016911	29.4804	12990.3	0.015444	0.015882	1856.23	94176.4
1095	2.000000	1.752970	7.37577e+06	-54889.1	1055.82	-29742	0.000000	0.000000	7.754426	35.3415	NaN	0.000000	0.001516	0.001693	28.0817	25.6494	0.001796	14281.2	4.894726	-177.145	35.8711	1.752667	0.020175	0.019872	35.3415	14281.2	0.018319	0.019969	1769.84	92334
1095	2.000000	1.756028	7.37577e+06	-54889.1	1055.82	-29742	0.000000	0.000000	7.757625	38.7575	NaN	0.000000	0.001550	0.001708	28.0818	28.4429	0.001793	15866.2	6.089764	-178.794	42.5988	1.755734	0.023233	0.022939	38.7575	15866.2	0.021401	0.024792	1563.33	92064.6
1095	2.000000	1.758980	7.37577e+06	-54889.1	1055.82	-29742	0.000000	0.000000	7.760979	48.5325	NaN	0.000000	0.001555	0.001713	28.0818	30.4126	0.001677	18136.2	3.992164	-178.023	48.9373	1.758687	0.026185	0.025892	48.5325	18136.2	0.024178	0.029538	1643.07	96411.8
1095	2.000000	1.761958	7.37577e+06	-54889.1	1055.82	-29742	0.000000	0.000000	7.764301	56.8921	NaN	0.000000	0.001541	0.001735	28.0833	33.1708	0.001697	19544.7	5.504648	179.831	57.4635	1.761614	0.029163	0.028819	56.8921	19544.7	0.026980	0.034716	1638.79	95838.3
1095	2.000000	1.764898	7.37577e+06	-54889.1	1055.82	-29742	0.000000	0.000000	7.767673	67.4096	NaN	0.000000	0.001537	0.001683	28.0835	36.1262	0.001727	20917.3	2.706496	-178.444	66.2003	1.764589	0.032103	0.031794	67.4096	20917.3	0.029686	0.040095	1681.26	95441
1095	2.000000	1.767896	7.37577e+06	-54889.1	1055.82	-29742	0.000000	0.000000	7.770902	73.017	NaN	0.000000	0.001580	0.001691	28.0828	38.7105	0.001695	22841.4	0.436029	-177.836	70.5648	1.767662	0.035101	0.034867	73.017	22841.4	0.032704	0.046534	1569.11	96741.1
1095	2.000000	1.770932	7.37577e+06	-54889.1	1055.82	-29742	0.000000	0.000000	7.774585	88.7449	NaN	0.000000	0.001608	0.001710	28.0828	42.9725	0.001804	23820.9	5.812417	177.288	87.6223	1.770599	0.038137	0.037804	88.7449	23820.9	0.035343	0.052548	1688.84	94940.8
1095	2.000000	1.773948	7.37577e+06	-54889.1	1055.82	-29742	0.000000	0.000000	7.778064	99.9885	NaN	0.000000	0.001642	0.001691	28.0834	45.9028	0.001724	26620.9	6.573847	176.036	100.806	1.773570	0.041153	0.040775	99.9885	26620.9	0.038336	0.059800	1672.06	99459.8
1095	2.000000	1.776883	7.37577e+06	-54889.1	1055.82	-29742	0.000000	0.000000	7.781518	112.616	NaN	0.000000	0.001603	0.001677	28.0829	49.6157	0.001653	30010.7	6.875552	174.441	112.463	1.776521	0.044088	0.043726	112.616	30010.7	0.041274	0.067361	1671.82	105644
1095	2.000000	1.779895	7.37577e+06	-54889.1	1055.82	-29742	0.000000	0.000000	7.785044	125.095	NaN	0.000000	0.001628	0.001687	28.0843	53.5727	0.001879	28512.7	4.301149	177.492	123.935	1.779597	0.047101	0.046802	125.095	28512.7	0.043810	0.074245	1684.89	95604.3
1095	2.000000	1.782856	7.37577e+06	-54889.1	1055.82	-29742	0.000000	0.000000	7.788829	145.125	NaN	0.000000	0.001629	0.001671	28.083	55.7807	0.001684	33125.5	1.729646	178.722	142.179	1.782452	0.050061	0.049657	145.125	33125.5	0.046776	0.082708	1754.68	105236
1095	2.000000	1.785980	7.37577e+06	-54889.1	1055.82	-29742	0.000000	0.000000	7.792559	159.878	NaN	0.000000	0.001620	0.001706	28.083	60.4923	0.001661	36423.1	5.847041	174.021	165.445	1.785573	0.053185	0.052778	159.878	36423.1	0.049893	0.092083	1736.25	109663
1095	2.000000	1.788884	7.37577e+06	-54889.1	1055.82	-29742	0.000000	0.000000	7.796451	183.899	NaN	0.000000	0.001591	0.001679	28.0831	62.4131	0.001619	38552.5	2.568683	176.38	181.296	1.788564	0.056089	0.055769	183.899	38552.5	0.052511	0.100333	1832.88	111200
1095	2.000000	1.791860	7.37577e+06	-54889.1	1055.82	-29742	0.000000	0.000000	7.800356	206.481	NaN	0.000000	0.001592	0.001711	28.0831	64.892	0.001675	38743.3	1.836917	177.586	204.732	1.791572	0.059065	0.058777	206.481	38743.3	0.055068	0.108719	1899.21	107353
1095	2.000000	1.794804	7.37577e+06	-54889.1	1055.82	-29742	0.000000	0.000000	7.804351	232.025	NaN	0.000000	0.001628	0.001670	28.083	68.5662	0.001758	39004.8	5.835799	173.086	227.658	1.794501	0.062009	0.061706	232.025	39004.8	0.057548	0.117162	1980.39	104112
1095	2.000000	1.797880	7.37577e+06	-54889.1	1055.82	-29742	0.000000	0.000000	7.808353	254.534	NaN	0.000000	0.001603	0.001695	28.0817	71.843	0.001784	40268.5	3.007382	175.956	254.307	1.797619	0.065085	0.064824	254.534	40268.5	0.060344	0.127046	2003.48	103219
1095	2.000000	1.800752	7.37577e+06	-54889.1	1055.82	-29742	0.000000	0.000000	7.812530	286.248	NaN	0.000000	0.001545	0.001692	28.0816	74.9835	0.001740	43098.9	6.221965	171.876	280.886	1.800581	0.067957	0.067786	286.248	43098.9	0.062976	0.136695	2094.06	106503
1095	2.000000	1.803857	7.37577e+06	-54889.1	1055.82	-29742	0.000000	0.000000	7.816946	318.125	NaN	0.000000	0.001647	0.001646	28.0819	78.0642	0.001690	46198.8	5.070387	172.878	316.105	1.803504	0.071062	0.070709	318.125	46198.8	0.065898	0.147803	2152.36	109790
1095	2.000000	1.806821	7.37577e+06	-54889.1	1055.82	-29742	0.000000	0.000000	7.821026	345.239	NaN	0.000000	0.001585	0.001667	28.0815	80.9658	0.001818	44545.2	1.858136	175.965	341.9	1.806574	0.074026	0.073779	345.239	44545.2	0.068214	0.156897	2200.41	102746
1095	2.000000	1.809937	7.37577e+06	-54889.1	1055.82	-29742	0.000000	0.000000	7.825150	369.78	NaN	0.000000	0.001675	0.001733	28.0815	84.7767	0.001757	48245.8	6.465645	171.161	374.026	1.809612	0.077142	0.076817	369.78	48245.8	0.071393	0.169802	2177.71	106970
1095	2.000000	1.812764	7.37577e+06	-54889.1	1055.82	-29742	0.000000	0.000000	7.829625	409.826	NaN	0.000000	0.001659	0.001689	28.0816	87.7897	0.001785	49182.4	3.827423	173.69	404.539	1.812521	0.079969	0.079726	409.826	49182.4	0.073720	0.179547	2282.56	106046
1095	2.000000	1.815809	7.37577e+06	-54889.1	1055.82	-29742	0.000000	0.000000	7.833975	441.553	NaN	0.000000	0.001637	0.001687	28.0819	93.0897	0.001879	49534.7	8.853710	168.716	438.965	1.815465	0.083014	0.082670	441.553	49534.7	0.076328	0.190780	2314.46	103613
1095	2.000000	1.818878	7.37577e+06	-54889.1	1055.82	-29742	0.000000	0.000000	7.837971	464.083	NaN	0.000000	0.001653	0.001709	28.0821	94.9708	0.001880	50516.2	6.905097	170.549	463.807	1.818561	0.086083	0.085766	464.083	50516.2	0.079193	0.203480	2280.73	102316
1095	2.000000	1.821944	7.37577e+06	-54889.1	1055.82	-29742	0.000000	0.000000	7.842122	490.463	NaN	0.000000	0.001666	0.001672	28.0816	96.0859	0.001736	55353.9	7.039181	169.494	494.564	1.821721	0.089149	0.088926	490.463	55353.9	0.082504	0.218638	2243.27	108158
1095	2.000000	1.824808	7.37577e+06	-54889.1	1055.82	-29742	0.000000	0.000000	7.846502	527.309	NaN	0.000000	0.001628	0.001659	28.0816	97.9505	0.001758	55727.3	4.763621	171.707	524.095	1.824482	0.092013	0.091687	527.309	55727.3	0.084916	0.230002	2292.63	106164
1095	2.000000	1.827772	7.37577e+06	-54889.1	1055.82	-29742	0.000000	0.000000	7.850842	560.776	NaN	0.000000	0.001641	0.001687	28.0814	99.9703	0.001757	56891.9	4.995778	171.749	556.778	1.827471	0.094977	0.094676	560.776	56891.9	0.087584	0.242883	2308.83	105469
1095	2.000000	1.830770	7.37577e+06	-54889.1	1055.82	-29742	0.000000	0.000000	7.855193	593.651	NaN	0.000000	0.001626	0.001639	28.0828	102.072	0.001733	58914.5	4.522070	171.75	589.907	1.830486	0.097975	0.097691	593.651	58914.5	0.090418	0.256924	2310.61	106192
1095	2.000000	1.833855	7.37577e+06	-54889.1	1055.82	-29742	0.000000	0.000000	7.859135	614.491	NaN	0.000000	0.001644	0.001624	28.0831	105.325	0.001726	61027	4.510813	171.284	614.014	1.833621	0.101060	0.100826	614.491	61027	0.093508	0.272652	2253.75	106780
1095	2.000000	1.834843	7.37577e+06	-54889.1	1055.82	-29742	0.000000	0.000000	7.860659	627.532	NaN	0.000000	0.001634	0.001631	28.0828	106.185	0.001794	59178.6	7.231076	168.682	626.29	1.834497	0.102048	0.101702	627.532	59178.6	0.094095	0.275689	2276.23	102974