File: remote_trans/data/nanoindenter/0828-1/data/Data_2025-08-06,11h17m57s/2025-07-22_16-23-58_1_742.txt
2025-07-22, 16:23:58, 1
Index	Phase	Displacement	Time	Pos X	Pos Y	Pos Z	Rot A	Rot B	Piezo Z	Force A	Force B	Gripper	Voltage A	Voltage B	Temperature	Amplitude force	Amplitude pos	Stiffness	Phase shift	Phase excitation	Force A raw	Displacement raw	HMax	HMax raw	Real Force	Real Stiffness	Contact Depth	Area	Hardness	Reduced Mod.
[#]	[#]	[um]	[s]	[um]	[um]	[um]	[m°]	[m°]	[um]	[uN]	[uN]	[V]	[V]	[V]	[°C]	[uN]	[um]	[N/m]	[°]	[°]	[uN]	[um]	[um]	[um]	[uN]	[N/m]	[um]	[um^2]	[MPa]	[MPa]
742	1.000000	0.002982	7.37231e+06	-39989.1	1005.82	-29791.7	0.000000	0.000000	6.002818	0.014393	NaN	0.000000	0.001604	0.001729	28.0823	0.100548	0.000956	105.138	119.344	-172.202	-0.034297	0.001734	-1.114713	-1.115960	0.014393	105.138	-1.114815	-7.923321E+14	-1.816532E-17	NaN
742	1.000000	0.013027	7.37231e+06	-39989.1	1005.82	-29791.7	0.000000	0.000000	6.012860	-0.060325	NaN	0.000000	0.001606	0.001714	28.0821	0.059208	0.001266	46.7717	-141.205	16.6336	0.035131	0.011588	-1.104667	-1.106107	-0.060325	46.7717	-1.103700	-5.619977E+14	1.073405E-16	NaN
742	1.000000	0.022930	7.37231e+06	-39989.1	1005.82	-29791.7	0.000000	0.000000	6.022766	0.024198	NaN	0.000000	0.001591	0.001749	28.082	0.105337	0.001852	56.8708	110.503	-169.024	0.058360	0.021544	-1.094765	-1.096151	0.024198	56.8708	-1.095084	-4.305957E+14	-5.619725E-17	NaN
742	1.000000	0.032909	7.37231e+06	-39989.1	1005.82	-29791.7	0.000000	0.000000	6.032741	-0.065446	NaN	0.000000	0.001612	0.001701	28.0822	0.107373	0.001894	56.7037	-118.062	16.3386	-0.103052	0.031557	-1.084786	-1.086138	-0.065446	56.7037	-1.083920	-3.049092E+14	2.146396E-16	NaN
742	1.000000	0.042934	7.37231e+06	-39989.1	1005.82	-29791.7	0.000000	0.000000	6.042769	0.002756	NaN	0.000000	0.001629	0.001696	28.0821	0.032808	0.001978	16.5878	-80.6681	-166.786	0.059903	0.041630	-1.074761	-1.076065	0.002756	16.5878	-1.074886	-2.305823E+14	-1.195345E-17	NaN
742	1.000000	0.052902	7.37231e+06	-39989.1	1005.82	-29791.7	0.000000	0.000000	6.052736	-0.031493	NaN	0.000000	0.001630	0.001687	28.0821	0.023407	0.001941	12.0615	130.081	12.5911	-0.024293	0.051566	-1.064793	-1.066129	-0.031493	12.0615	-1.062835	-1.588239E+14	1.982864E-16	NaN
742	1.000000	0.062938	7.37231e+06	-39989.1	1005.82	-29791.7	0.000000	0.000000	6.062773	0.004551	NaN	0.000000	0.001625	0.001727	28.0821	0.090184	0.002092	43.1009	129.627	-164.219	0.023072	0.061602	-1.054757	-1.056092	0.004551	43.1009	-1.054836	-1.239988E+14	-3.670248E-17	NaN
742	1.000000	0.072912	7.37231e+06	-39989.1	1005.82	-29791.7	0.000000	0.000000	6.072750	0.091975	NaN	0.000000	0.001619	0.001715	28.0832	0.033046	0.002070	15.9613	-137.175	13.22	0.040342	0.071577	-1.044783	-1.046118	0.091975	15.9613	-1.049105	-1.038446E+14	-8.857017E-16	NaN
742	1.000000	0.082949	7.37231e+06	-39989.1	1005.82	-29791.7	0.000000	0.000000	6.082782	-0.049101	NaN	0.000000	0.001576	0.001715	28.0835	0.016712	0.002045	8.171532	55.5884	-165.568	-0.007438	0.081559	-1.034746	-1.036136	-0.049101	8.171532	-1.030239	-5.790221E+13	8.479952E-16	NaN
742	1.000000	0.092925	7.37231e+06	-39989.1	1005.82	-29791.7	0.000000	0.000000	6.092759	-0.011587	NaN	0.000000	0.001602	0.001734	28.0837	0.062127	0.002064	30.0969	-172.806	12.9773	0.052475	0.091550	-1.024770	-1.026145	-0.011587	30.0969	-1.024481	-4.844453E+13	2.391726E-16	NaN
742	1.000000	0.102916	7.37231e+06	-39989.1	1005.82	-29791.7	0.000000	0.000000	6.102749	-0.045044	NaN	0.000000	0.001613	0.001681	28.0834	0.064548	0.001949	33.1111	-112.958	-163.382	-0.043788	0.101582	-1.014779	-1.016113	-0.045044	33.1111	-1.013759	-3.475117E+13	1.296174E-15	NaN
742	1.000000	0.112936	7.37231e+06	-39989.1	1005.82	-29791.7	0.000000	0.000000	6.112767	-0.082028	NaN	0.000000	0.001603	0.001712	28.0833	0.141785	0.002019	70.2361	92.7103	13.6552	-0.054018	0.111553	-1.004759	-1.006142	-0.082028	70.2361	-1.003883	-2.558872E+13	3.205617E-15	NaN
742	1.000000	0.122938	7.37231e+06	-39989.1	1005.82	-29791.7	0.000000	0.000000	6.122775	0.038723	NaN	0.000000	0.001646	0.001711	28.0834	0.011148	0.001959	5.690530	81.5476	-170.251	-0.029007	0.121642	-0.994757	-0.996053	0.038723	5.690530	-0.999861	-2.258868E+13	-1.714270E-15	NaN
742	1.000000	0.132946	7.37231e+06	-39989.1	1005.82	-29791.7	0.000000	0.000000	6.132779	-0.040923	NaN	0.000000	0.001672	0.001690	28.0833	0.036213	0.001933	18.7307	-30.1552	13.698	-0.088182	0.131590	-0.984749	-0.986105	-0.040923	18.7307	-0.983110	-1.343732E+13	3.045491E-15	NaN
742	1.000000	0.142947	7.37231e+06	-39989.1	1005.82	-29791.7	0.000000	0.000000	6.142781	-0.025303	NaN	0.000000	0.001668	0.001715	28.0832	0.086646	0.002048	42.3166	-58.1602	-165.888	-0.011399	0.141649	-0.974748	-0.976046	-0.025303	42.3166	-0.974299	-1.022355E+13	2.474943E-15	NaN
742	1.000000	0.152944	7.37231e+06	-39989.1	1005.82	-29791.7	0.000000	0.000000	6.152780	0.009633	NaN	0.000000	0.001667	0.001699	28.0835	0.113706	0.001888	60.2297	-15.3605	15.0689	0.037571	0.151596	-0.964751	-0.966099	0.009633	60.2297	-0.964871	-7.630042E+12	-1.262504E-15	NaN
742	1.000000	0.162950	7.37231e+06	-39989.1	1005.82	-29791.7	0.000000	0.000000	6.162787	0.061334	NaN	0.000000	0.001663	0.001688	28.0836	0.019425	0.002009	9.668016	-133.252	-167.314	0.137213	0.161621	-0.954745	-0.956074	0.061334	9.668016	-0.959503	-6.459087E+12	-9.495811E-15	NaN
742	1.000000	0.172942	7.37231e+06	-39989.1	1005.82	-29791.7	0.000000	0.000000	6.172774	-0.068149	NaN	0.000000	0.001631	0.001730	28.0833	0.036903	0.002008	18.3738	146.781	16.3077	-0.068308	0.171602	-0.944753	-0.946093	-0.068149	18.3738	-0.941971	-3.747436E+12	1.818557E-14	NaN
742	1.000000	0.182982	7.37231e+06	-39989.1	1005.82	-29791.7	0.000000	0.000000	6.182815	-0.046413	NaN	0.000000	0.001651	0.001733	28.0834	0.082529	0.001953	42.2495	-139.276	-164.069	0.017665	0.181610	-0.934713	-0.936085	-0.046413	42.2495	-0.933889	-2.915307E+12	1.592044E-14	NaN
742	1.000000	0.192975	7.37231e+06	-39989.1	1005.82	-29791.7	0.000000	0.000000	6.192807	-0.073657	NaN	0.000000	0.001620	0.001694	28.0835	0.038866	0.001950	19.933	98.324	16.1021	-0.007476	0.191681	-0.924720	-0.926014	-0.073657	19.933	-0.921949	-2.011478E+12	3.661837E-14	NaN
742	1.000000	0.202984	7.37231e+06	-39989.1	1005.82	-29791.7	0.000000	0.000000	6.202817	-0.034108	NaN	0.000000	0.001650	0.001714	28.0834	0.073051	0.001979	36.9093	-109.846	-167.434	-0.126674	0.201689	-0.914711	-0.916006	-0.034108	36.9093	-0.914018	-1.571921E+12	2.169860E-14	NaN
742	1.000000	0.212973	7.37231e+06	-39989.1	1005.82	-29791.7	0.000000	0.000000	6.212806	-0.043716	NaN	0.000000	0.001647	0.001713	28.0823	0.037416	0.001998	18.7222	-116.255	16.0638	0.001322	0.211603	-0.904722	-0.906092	-0.043716	18.7222	-0.902970	-1.114812E+12	3.921419E-14	NaN
742	1.000000	0.222986	7.37231e+06	-39989.1	1005.82	-29791.7	0.000000	0.000000	6.222820	-0.009358	NaN	0.000000	0.001606	0.001703	28.0822	0.111129	0.001900	58.5006	-31.1862	-171.336	-0.094299	0.221676	-0.894709	-0.896019	-0.009358	58.5006	-0.894589	-8.589098E+11	1.089550E-14	NaN
742	1.000000	0.232975	7.37231e+06	-39989.1	1005.82	-29791.7	0.000000	0.000000	6.232806	-0.086657	NaN	0.000000	0.001623	0.001686	28.0827	0.118079	0.002052	57.5454	71.4632	12.4495	-0.020604	0.231611	-0.884720	-0.886084	-0.086657	57.5454	-0.883591	-6.099088E+11	1.420825E-13	NaN
742	1.000000	0.242965	7.37231e+06	-39989.1	1005.82	-29791.7	0.000000	0.000000	6.242799	-0.039556	NaN	0.000000	0.001579	0.001737	28.0823	0.074542	0.002000	37.2675	-4.697072	-164.25	-0.060188	0.241663	-0.874730	-0.876032	-0.039556	37.2675	-0.873934	-4.515006E+11	8.760964E-14	NaN
742	1.000000	0.253038	7.37231e+06	-39989.1	1005.82	-29791.7	0.000000	0.000000	6.252872	-0.007224	NaN	0.000000	0.001581	0.001728	28.0825	0.039740	0.001918	20.7156	68.1207	17.9366	-0.066503	0.251658	-0.864657	-0.866037	-0.007224	20.7156	-0.864396	-3.354384E+11	2.153497E-14	NaN
742	1.000000	0.263016	7.37231e+06	-39989.1	1005.82	-29791.7	0.000000	0.000000	6.262848	-0.075000	NaN	0.000000	0.001563	0.001739	28.0823	0.040370	0.001999	20.1976	-28.1206	-161.243	-0.082466	0.261684	-0.854679	-0.856010	-0.075000	20.1976	-0.851894	-2.271893E+11	3.301210E-13	NaN
742	1.000000	0.273033	7.37231e+06	-39989.1	1005.82	-29791.7	0.000000	0.000000	6.272868	-0.009451	NaN	0.000000	0.001571	0.001758	28.0825	0.069222	0.002021	34.2429	-139.639	15.7961	-0.062493	0.271626	-0.844662	-0.846069	-0.009451	34.2429	-0.844455	-1.801525E+11	5.245921E-14	NaN
742	1.000000	0.283018	7.37231e+06	-39989.1	1005.82	-29791.7	0.000000	0.000000	6.282853	-0.009489	NaN	0.000000	0.001587	0.001680	28.0822	0.016064	0.002006	8.008389	101.954	-165.305	0.017831	0.281660	-0.834677	-0.836035	-0.009489	8.008389	-0.833788	-1.291586E+11	7.346405E-14	NaN
742	1.000000	0.292986	7.37231e+06	-39989.1	1005.82	-29791.7	0.000000	0.000000	6.292822	0.018196	NaN	0.000000	0.001579	0.001694	28.0824	0.080915	0.001992	40.626	115.059	12.2869	-0.036287	0.291583	-0.824709	-0.826111	0.018196	40.626	-0.825045	-9.831285E+10	-1.850867E-13	NaN
742	1.000000	0.303025	7.37231e+06	-39989.1	1005.82	-29791.7	0.000000	0.000000	6.302861	0.025432	NaN	0.000000	0.001552	0.001696	28.0822	0.020275	0.001998	10.1494	109.951	-165.524	0.063616	0.301664	-0.814670	-0.816030	0.025432	10.1494	-0.816549	-7.540758E+10	-3.372595E-13	NaN
742	1.000000	0.313020	7.37231e+06	-39989.1	1005.82	-29791.7	0.000000	0.000000	6.312854	-0.041606	NaN	0.000000	0.001550	0.001713	28.0823	0.062587	0.001946	32.1628	-113.463	12.5811	-0.031732	0.311651	-0.804675	-0.806044	-0.041606	32.1628	-0.803705	-5.048288E+10	8.241691E-13	NaN
742	1.000000	0.323040	7.37231e+06	-39989.1	1005.82	-29791.7	0.000000	0.000000	6.322874	-0.040064	NaN	0.000000	0.001578	0.001667	28.0821	0.048336	0.002042	23.6729	139.268	-164.986	-0.053720	0.321686	-0.794655	-0.796008	-0.040064	23.6729	-0.793385	-3.656419E+10	1.095727E-12	NaN
742	1.000000	0.333023	7.37231e+06	-39989.1	1005.82	-29791.7	0.000000	0.000000	6.332856	-0.038210	NaN	0.000000	0.001583	0.001724	28.0821	0.037919	0.002114	17.9393	151.456	11.834	-0.034291	0.331637	-0.784672	-0.786058	-0.038210	17.9393	-0.783075	-2.648574E+10	1.442653E-12	NaN
742	1.000000	0.343062	7.37231e+06	-39989.1	1005.82	-29791.7	0.000000	0.000000	6.342898	0.012587	NaN	0.000000	0.001644	0.001711	28.0829	0.040483	0.002078	19.4809	-5.149976	-166.885	0.048371	0.341716	-0.774633	-0.775979	0.012587	19.4809	-0.775117	-2.064776E+10	-6.095822E-13	NaN
742	1.000000	0.353051	7.37231e+06	-39989.1	1005.82	-29791.7	0.000000	0.000000	6.352885	-0.021192	NaN	0.000000	0.001633	0.001724	28.0836	0.040042	0.002167	18.4775	-113.347	16.3566	0.072954	0.351675	-0.764644	-0.766020	-0.021192	18.4775	-0.763784	-1.448016E+10	1.463493E-12	NaN
742	1.000000	0.363048	7.37231e+06	-39989.1	1005.82	-29791.7	0.000000	0.000000	6.362882	-0.029523	NaN	0.000000	0.001622	0.001746	28.0833	0.072244	0.002006	36.0145	37.4653	-165.77	-0.072277	0.361767	-0.754647	-0.755928	-0.029523	36.0145	-0.754032	-1.066839E+10	2.767374E-12	NaN
742	1.000000	0.373045	7.37231e+06	-39989.1	1005.82	-29791.7	0.000000	0.000000	6.372880	0.003397	NaN	0.000000	0.001609	0.001699	28.0832	0.055509	0.001835	30.2427	-31.4062	12.7997	0.023125	0.371723	-0.744650	-0.745972	0.003397	30.2427	-0.744734	-7.971312E+9	-4.262145E-13	NaN
742	1.000000	0.383060	7.37231e+06	-39989.1	1005.82	-29791.7	0.000000	0.000000	6.382896	0.009900	NaN	0.000000	0.001642	0.001703	28.0837	0.016894	0.001881	8.979772	63.8809	-165.034	-0.043669	0.381738	-0.734635	-0.735957	0.009900	8.979772	-0.735462	-5.959795E+9	-1.661140E-12	NaN
742	1.000000	0.393035	7.37231e+06	-39989.1	1005.82	-29791.7	0.000000	0.000000	6.392869	-0.027843	NaN	0.000000	0.001630	0.001691	28.0834	0.047481	0.001946	24.4047	-130.73	12.8314	0.003520	0.391640	-0.724660	-0.726055	-0.027843	24.4047	-0.723804	-4.133744E+9	6.735569E-12	NaN
742	1.000000	0.403043	7.37231e+06	-39989.1	1005.82	-29791.7	0.000000	0.000000	6.402878	-0.018311	NaN	0.000000	0.001640	0.001705	28.0833	0.074144	0.001892	39.1842	-154.165	-165.823	-0.017624	0.401720	-0.714651	-0.715975	-0.018311	39.1842	-0.714301	-3.067149E+9	5.969993E-12	NaN
742	1.000000	0.413056	7.37231e+06	-39989.1	1005.82	-29791.7	0.000000	0.000000	6.412892	0.019375	NaN	0.000000	0.001626	0.001712	28.0835	0.042754	0.001940	22.0423	34.2881	15.598	-0.034739	0.411760	-0.704639	-0.705934	0.019375	22.0423	-0.705298	-2.311404E+9	-8.382328E-12	NaN
742	1.000000	0.423058	7.37231e+06	-39989.1	1005.82	-29791.7	0.000000	0.000000	6.422894	-0.002312	NaN	0.000000	0.001659	0.001687	28.0838	0.073108	0.001941	37.6618	51.8512	-168.663	0.049578	0.421752	-0.694636	-0.695943	-0.002312	37.6618	-0.694590	-1.650594E+9	1.400527E-12	NaN
742	1.000000	0.433087	7.37231e+06	-39989.1	1005.82	-29791.7	0.000000	0.000000	6.432923	0.007853	NaN	0.000000	0.001632	0.001724	28.0835	0.047610	0.001827	26.0536	-141.978	18.388	0.085814	0.431742	-0.684608	-0.685952	0.007853	26.0536	-0.684834	-1.214236E+9	-6.467508E-12	NaN
742	1.000000	0.443092	7.37231e+06	-39989.1	1005.82	-29791.7	0.000000	0.000000	6.442923	-0.104683	NaN	0.000000	0.001660	0.001712	28.0835	0.025598	0.002081	12.2983	148.132	-165.44	-0.050658	0.441754	-0.674603	-0.675941	-0.104683	12.2983	-0.668219	-7.194674E+8	1.455012E-10	NaN
742	1.000000	0.453095	7.37231e+06	-39989.1	1005.82	-29791.7	0.000000	0.000000	6.452932	0.034679	NaN	0.000000	0.001623	0.001675	28.0837	0.154609	0.002054	75.2713	144.496	14.5421	0.002483	0.451722	-0.664599	-0.665972	0.034679	75.2713	-0.664945	-6.489181E+8	-5.344197E-11	NaN
742	1.000000	0.463087	7.37231e+06	-39989.1	1005.82	-29791.7	0.000000	0.000000	6.462921	-0.023470	NaN	0.000000	0.001637	0.001678	28.0839	0.096799	0.001957	49.4553	168.377	-164.805	-0.027381	0.461774	-0.654608	-0.655921	-0.023470	49.4553	-0.654252	-4.631392E+8	5.067608E-11	NaN
742	1.000000	0.473068	7.37231e+06	-39989.1	1005.82	-29791.7	0.000000	0.000000	6.472902	-0.050725	NaN	0.000000	0.001624	0.001749	28.0835	0.008401	0.002005	4.189191	69.4852	15.9971	0.038392	0.471730	-0.644626	-0.645965	-0.050725	4.189191	-0.635545	-2.565388E+8	1.977266E-10	NaN
742	1.000000	0.483085	7.37231e+06	-39989.1	1005.82	-29791.7	0.000000	0.000000	6.482919	-0.022304	NaN	0.000000	0.001668	0.001750	28.0823	0.073330	0.001782	41.1564	-115.508	-166.235	-0.004118	0.481786	-0.634610	-0.635909	-0.022304	41.1564	-0.634203	-2.458860E+8	9.070871E-11	NaN
742	1.000000	0.493104	7.37231e+06	-39989.1	1005.82	-29791.7	0.000000	0.000000	6.492938	-0.027722	NaN	0.000000	0.001576	0.001777	28.0825	0.059676	0.001960	30.4418	-104.913	12.4344	-0.044990	0.491725	-0.624590	-0.625970	-0.027722	30.4418	-0.623907	-1.775551E+8	1.561322E-10	NaN
742	1.000000	0.503108	7.37231e+06	-39989.1	1005.82	-29791.7	0.000000	0.000000	6.502942	-0.015711	NaN	0.000000	0.001607	0.001726	28.0824	0.014628	0.001947	7.512162	-21.5715	-164.075	-0.016340	0.501792	-0.614587	-0.615903	-0.015711	7.512162	-0.613019	-1.257880E+8	1.248975E-10	NaN
742	1.000000	0.513110	7.37231e+06	-39989.1	1005.82	-29791.7	0.000000	0.000000	6.512944	-0.026558	NaN	0.000000	0.001617	0.001722	28.0823	0.076778	0.001921	39.9613	-97.516	13.8495	-0.112245	0.511729	-0.604585	-0.605966	-0.026558	39.9613	-0.604086	-9.478219E+7	2.801967E-10	NaN
742	1.000000	0.523112	7.37231e+06	-39989.1	1005.82	-29791.7	0.000000	0.000000	6.522946	-0.034865	NaN	0.000000	0.001590	0.001705	28.0824	0.118513	0.002016	58.7947	46.6202	-166.209	-0.059019	0.521844	-0.594583	-0.595851	-0.034865	58.7947	-0.594138	-6.913551E+7	5.043059E-10	NaN
742	1.000000	0.533117	7.37231e+06	-39989.1	1005.82	-29791.7	0.000000	0.000000	6.532952	0.019809	NaN	0.000000	0.001601	0.001700	28.0825	0.095041	0.001950	48.7424	-13.3199	10.2979	0.048251	0.531763	-0.584578	-0.585932	0.019809	48.7424	-0.584883	-5.153503E+7	-3.843754E-10	NaN
742	1.000000	0.543119	7.37231e+06	-39989.1	1005.82	-29791.7	0.000000	0.000000	6.542953	-0.022162	NaN	0.000000	0.001594	0.001688	28.0823	0.080085	0.001927	41.5669	-64.1403	-167.837	-0.035124	0.541829	-0.574576	-0.575866	-0.022162	41.5669	-0.574176	-3.667084E+7	6.043495E-10	NaN
742	1.000000	0.553121	7.37231e+06	-39989.1	1005.82	-29791.7	0.000000	0.000000	6.552957	0.013173	NaN	0.000000	0.001559	0.001726	28.0822	0.044281	0.002083	21.2553	-153.756	13.5529	0.027455	0.551768	-0.564574	-0.565927	0.013173	21.2553	-0.565039	-2.741947E+7	-4.804265E-10	NaN
742	1.000000	0.563127	7.37231e+06	-39989.1	1005.82	-29791.7	0.000000	0.000000	6.562961	-0.032926	NaN	0.000000	0.001583	0.001699	28.0823	0.121048	0.001990	60.8375	-179.301	-166.779	-0.043041	0.561848	-0.554568	-0.555847	-0.032926	60.8375	-0.554162	-1.939039E+7	1.698054E-9	NaN
742	1.000000	0.573111	7.37231e+06	-39989.1	1005.82	-29791.7	0.000000	0.000000	6.572942	-0.082905	NaN	0.000000	0.001618	0.001726	28.0825	0.089212	0.002095	42.5819	102.786	15.1435	-0.027524	0.571729	-0.544584	-0.545966	-0.082905	42.5819	-0.543124	-1.363568E+7	6.079997E-9	NaN
742	1.000000	0.583130	7.37231e+06	-39989.1	1005.82	-29791.7	0.000000	0.000000	6.582965	0.000773	NaN	0.000000	0.001598	0.001723	28.0822	0.065359	0.002096	31.1755	18.1557	-166.146	-0.057717	0.581779	-0.534565	-0.535916	0.000773	31.1755	-0.534583	-1.038019E+7	-7.442716E-11	NaN
742	1.000000	0.593117	7.37231e+06	-39989.1	1005.82	-29791.7	0.000000	0.000000	6.592953	0.013246	NaN	0.000000	0.001598	0.001697	28.0822	0.123462	0.001846	66.8761	127.218	14.7532	0.032724	0.591734	-0.524578	-0.525960	0.013246	66.8761	-0.524726	-7.57367e+06	-1.748957E-9	NaN
742	1.000000	0.603169	7.37231e+06	-39989.1	1005.82	-29791.7	0.000000	0.000000	6.603003	-0.031367	NaN	0.000000	0.001613	0.001704	28.0823	0.150733	0.002025	74.444	177.991	-166.71	0.053136	0.601825	-0.514525	-0.515870	-0.031367	74.444	-0.514209	-5.40789e+06	5.800165E-9	NaN
742	1.000000	0.613157	7.37231e+06	-39989.1	1005.82	-29791.7	0.000000	0.000000	6.612993	0.000649	NaN	0.000000	0.001610	0.001724	28.0822	0.056281	0.002098	26.8272	128.625	12.9377	-0.034219	0.611750	-0.504537	-0.505944	0.000649	26.8272	-0.504556	-3.9678e+06	-1.635572E-10	NaN
742	1.000000	0.623165	7.37231e+06	-39989.1	1005.82	-29791.7	0.000000	0.000000	6.623000	-0.011458	NaN	0.000000	0.001599	0.001720	28.0834	0.059286	0.001938	30.5975	-163.222	-168.427	0.061570	0.621842	-0.494529	-0.495852	-0.011458	30.5975	-0.494249	-2.84932e+06	4.021151E-9	NaN
742	1.000000	0.633149	7.37231e+06	-39989.1	1005.82	-29791.7	0.000000	0.000000	6.632982	-0.056464	NaN	0.000000	0.001620	0.001721	28.0835	0.057839	0.001999	28.93	-136.525	15.7588	0.005475	0.631799	-0.484545	-0.485896	-0.056464	28.93	-0.483082	-1.98909e+06	2.838681E-8	NaN
742	1.000000	0.643152	7.37231e+06	-39989.1	1005.82	-29791.7	0.000000	0.000000	6.642988	0.019347	NaN	0.000000	0.001588	0.001724	28.0833	0.055464	0.001953	28.3982	62.3627	-168.292	0.045220	0.641901	-0.474543	-0.475794	0.019347	28.3982	-0.475054	-1.53553e+06	-1.259963E-8	NaN
742	1.000000	0.653182	7.37231e+06	-39989.1	1005.82	-29791.7	0.000000	0.000000	6.653016	-0.020310	NaN	0.000000	0.001595	0.001694	28.0835	0.085359	0.002007	42.5259	162.909	12.7143	-0.032785	0.651844	-0.464513	-0.465850	-0.020310	42.5259	-0.464155	-1.0799e+06	1.880765E-8	NaN
742	1.000000	0.663184	7.37231e+06	-39989.1	1005.82	-29791.7	0.000000	0.000000	6.663020	0.033326	NaN	0.000000	0.001602	0.001729	28.0835	0.136747	0.002013	67.9262	20.8187	-166.057	-0.062017	0.661824	-0.454511	-0.455871	0.033326	67.9262	-0.454879	-799859	-4.166487E-8	NaN
742	1.000000	0.673187	7.37231e+06	-39989.1	1005.82	-29791.7	0.000000	0.000000	6.673021	-0.030356	NaN	0.000000	0.001562	0.001727	28.0835	0.152387	0.002020	75.4254	51.4555	13.8691	0.016650	0.671845	-0.444508	-0.445850	-0.030356	75.4254	-0.444206	-565842	5.364683E-8	NaN
742	1.000000	0.683210	7.37231e+06	-39989.1	1005.82	-29791.7	0.000000	0.000000	6.683048	0.075057	NaN	0.000000	0.001591	0.001690	28.0834	0.030837	0.001951	15.807	109.154	-167.789	0.073345	0.681868	-0.434485	-0.435827	0.075057	15.807	-0.438046	-463210	-1.620375E-7	NaN
742	1.000000	0.693192	7.37232e+06	-39989.1	1005.82	-29791.7	0.000000	0.000000	6.693025	-0.053579	NaN	0.000000	0.001597	0.001688	28.0835	0.023023	0.002030	11.3421	170.548	12.1037	-0.007566	0.691825	-0.424503	-0.425870	-0.053579	11.3421	-0.420960	-265478	2.018194E-7	NaN
742	1.000000	0.703177	7.37232e+06	-39989.1	1005.82	-29791.7	0.000000	0.000000	6.703012	0.004809	NaN	0.000000	0.001576	0.001709	28.0834	0.049956	0.001967	25.3954	106.998	-168.487	0.041955	0.701873	-0.414518	-0.415822	0.004809	25.3954	-0.414660	-216088	-2.225606E-8	NaN
742	1.000000	0.713184	7.37232e+06	-39989.1	1005.82	-29791.7	0.000000	0.000000	6.713018	-0.037681	NaN	0.000000	0.001599	0.001673	28.0836	0.076711	0.001964	39.0646	-176.278	14.676	-0.000698	0.711807	-0.404510	-0.405887	-0.037681	39.0646	-0.403787	-151346	2.489744E-7	NaN
742	1.000000	0.723194	7.37232e+06	-39989.1	1005.82	-29791.7	0.000000	0.000000	6.723033	0.110597	NaN	0.000000	0.001601	0.001720	28.0834	0.084713	0.002015	42.0308	-129.58	-166.813	0.075747	0.721855	-0.394501	-0.395840	0.110597	42.0308	-0.396475	-119040	-9.290714E-7	NaN
742	1.000000	0.733230	7.37232e+06	-39989.1	1005.82	-29791.7	0.000000	0.000000	6.733063	-0.056952	NaN	0.000000	0.001584	0.001714	28.0835	0.096436	0.001965	49.0702	0.108921	15.2225	-0.059767	0.731834	-0.384465	-0.385861	-0.056952	49.0702	-0.383595	-77883.5	7.312456E-7	NaN
742	1.000000	0.743220	7.37232e+06	-39989.1	1005.82	-29791.7	0.000000	0.000000	6.743053	-0.058468	NaN	0.000000	0.001640	0.001750	28.0834	0.053662	0.002006	26.7524	-42.7502	-166.143	-0.048148	0.741932	-0.374475	-0.375763	-0.058468	26.7524	-0.372836	-54568.7	1.071454E-6	NaN
742	1.000000	0.753208	7.37232e+06	-39989.1	1005.82	-29791.7	0.000000	0.000000	6.753041	-0.041872	NaN	0.000000	0.001569	0.001750	28.0831	0.035783	0.002049	17.4632	-149.28	12.8356	-0.022044	0.751814	-0.364487	-0.365880	-0.041872	17.4632	-0.362689	-38966.8	1.074565E-6	NaN
742	1.000000	0.763215	7.37232e+06	-39989.1	1005.82	-29791.7	0.000000	0.000000	6.763049	-0.030169	NaN	0.000000	0.001550	0.001725	28.0822	0.089427	0.001992	44.894	-174.514	-165.88	-0.039644	0.761930	-0.354479	-0.355765	-0.030169	44.894	-0.353975	-29151	1.034923E-6	NaN
742	1.000000	0.773181	7.37232e+06	-39989.1	1005.82	-29791.7	0.000000	0.000000	6.773018	0.043844	NaN	0.000000	0.001592	0.001728	28.0826	0.088617	0.001953	45.3696	133.424	12.1724	0.026521	0.771858	-0.344514	-0.345836	0.043844	45.3696	-0.345239	-21768.7	-2.014070E-6	NaN
742	1.000000	0.783236	7.37232e+06	-39989.1	1005.82	-29791.7	0.000000	0.000000	6.783067	-0.116031	NaN	0.000000	0.001623	0.001729	28.0825	0.091959	0.002084	44.1321	0.799004	-168.26	-0.121691	0.781916	-0.334458	-0.335779	-0.116031	44.1321	-0.332487	-14185.5	8.179546E-6	NaN
742	1.000000	0.793243	7.37232e+06	-39989.1	1005.82	-29791.7	0.000000	0.000000	6.793077	-0.007710	NaN	0.000000	0.001597	0.001715	28.0826	0.072019	0.002009	35.848	121.855	13.8433	-0.006071	0.791837	-0.324452	-0.325858	-0.007710	35.848	-0.324291	-10757.9	7.167151E-7	NaN
742	1.000000	0.803236	7.37232e+06	-39989.1	1005.82	-29791.7	0.000000	0.000000	6.803070	-0.024283	NaN	0.000000	0.001620	0.001738	28.0827	0.069008	0.001960	35.2079	141.81	-168.636	0.032762	0.801909	-0.314459	-0.315786	-0.024283	35.2079	-0.313942	-7574.01	3.206083E-6	NaN
742	1.000000	0.813224	7.37232e+06	-39989.1	1005.82	-29791.7	0.000000	0.000000	6.813060	0.014037	NaN	0.000000	0.001586	0.001708	28.0826	0.066648	0.001933	34.4763	-78.991	14.4217	0.075990	0.811878	-0.304471	-0.305817	0.014037	34.4763	-0.304776	-5541.58	-2.533102E-6	NaN
742	1.000000	0.823241	7.37232e+06	-39989.1	1005.82	-29791.7	0.000000	0.000000	6.823077	0.038119	NaN	0.000000	0.001576	0.001689	28.0825	0.055845	0.002024	27.5872	-48.921	-169.533	0.056326	0.821936	-0.294454	-0.295759	0.038119	27.5872	-0.295491	-4031.01	-9.456494E-6	NaN
742	1.000000	0.833257	7.37232e+06	-39989.1	1005.82	-29791.7	0.000000	0.000000	6.833090	-0.048083	NaN	0.000000	0.001575	0.001719	28.0824	0.060198	0.002027	29.6971	53.7751	12.1456	-0.045602	0.831878	-0.284438	-0.285817	-0.048083	29.6971	-0.283223	-2639.63	1.821588E-5	NaN
742	1.000000	0.843237	7.37232e+06	-39989.1	1005.82	-29791.7	0.000000	0.000000	6.843072	-0.010733	NaN	0.000000	0.001565	0.001722	28.0824	0.176792	0.002033	86.9586	44.9203	-168.229	-0.082002	0.841963	-0.274457	-0.275731	-0.010733	86.9586	-0.274365	-1939.9	5.532819E-6	NaN
742	1.000000	0.853264	7.37232e+06	-39989.1	1005.82	-29791.7	0.000000	0.000000	6.853097	-0.058034	NaN	0.000000	0.001600	0.001708	28.0825	0.072071	0.002068	34.8501	-113.411	13.7741	-0.068729	0.851930	-0.264430	-0.265765	-0.058034	34.8501	-0.263181	-1311.03	4.426570E-5	NaN
742	1.000000	0.863234	7.37232e+06	-39989.1	1005.82	-29791.7	0.000000	0.000000	6.863070	0.029390	NaN	0.000000	0.001584	0.001692	28.0825	0.138356	0.001828	75.6879	-27.5875	-165.256	0.050742	0.861970	-0.254461	-0.255725	0.029390	75.6879	-0.254752	-973.42	-3.019202E-5	NaN
742	1.000000	0.873233	7.37232e+06	-39989.1	1005.82	-29791.7	0.000000	0.000000	6.873065	-0.061664	NaN	0.000000	0.001582	0.001728	28.0825	0.080239	0.002132	37.6414	160.106	14.0112	-0.004305	0.871943	-0.244462	-0.245752	-0.061664	37.6414	-0.243233	-645.614	9.551164E-5	NaN
742	1.000000	0.883262	7.37232e+06	-39989.1	1005.82	-29791.7	0.000000	0.000000	6.883095	-0.051853	NaN	0.000000	0.001599	0.001721	28.0824	0.078922	0.001880	41.9838	-129.394	-170.473	-0.060605	0.881932	-0.234433	-0.235762	-0.051853	41.9838	-0.233506	-454.754	0.000114	NaN
742	1.000000	0.893270	7.37232e+06	-39989.1	1005.82	-29791.7	0.000000	0.000000	6.893105	-0.006414	NaN	0.000000	0.001598	0.001727	28.0836	0.074087	0.001935	38.2903	158.069	13.2881	0.025281	0.891908	-0.224425	-0.225787	-0.006414	38.2903	-0.224299	-325.238	1.972150E-5	NaN
742	1.000000	0.903240	7.37232e+06	-39989.1	1005.82	-29791.7	0.000000	0.000000	6.903076	0.028752	NaN	0.000000	0.001583	0.001719	28.0838	0.015339	0.001872	8.195909	-61.7923	-165.74	-0.046926	0.901964	-0.214455	-0.215731	0.028752	8.195909	-0.217086	-249.47	-0.000115	NaN
742	1.000000	0.913294	7.37232e+06	-39989.1	1005.82	-29791.7	0.000000	0.000000	6.913128	-0.024266	NaN	0.000000	0.001613	0.001713	28.0836	0.026350	0.002045	12.8846	106.896	10.8184	0.060406	0.911942	-0.204401	-0.205753	-0.024266	12.8846	-0.202989	-147.47	0.000165	NaN
742	1.000000	0.923273	7.37232e+06	-39989.1	1005.82	-29791.7	0.000000	0.000000	6.923109	0.015127	NaN	0.000000	0.001589	0.001674	28.0836	0.035697	0.001778	20.0824	-146.869	-167.42	-0.026197	0.922012	-0.194422	-0.195682	0.015127	20.0824	-0.194987	-108.89	-0.000139	NaN
742	1.000000	0.933292	7.37232e+06	-39989.1	1005.82	-29791.7	0.000000	0.000000	6.933126	-0.024182	NaN	0.000000	0.001552	0.001717	28.0835	0.043706	0.002036	21.4641	-83.1579	11.252	-0.027380	0.931900	-0.184403	-0.185795	-0.024182	21.4641	-0.183558	-70.1128	0.000345	NaN
742	1.000000	0.943248	7.37232e+06	-39989.1	1005.82	-29791.7	0.000000	0.000000	6.943086	0.050887	NaN	0.000000	0.001604	0.001734	28.0842	0.074824	0.002101	35.6154	-138.003	-168.349	0.021055	0.941959	-0.174446	-0.175735	0.050887	35.6154	-0.175518	-51.1536	-0.000995	NaN
742	1.000000	0.953273	7.37232e+06	-39989.1	1005.82	-29791.7	0.000000	0.000000	6.953109	0.028751	NaN	0.000000	0.001576	0.001729	28.0837	0.132622	0.001864	71.1325	96.3203	14.3669	0.011726	0.951922	-0.164422	-0.165773	0.028751	71.1325	-0.164725	-33.2256	-0.000865	NaN
742	1.000000	0.963273	7.37232e+06	-39989.1	1005.82	-29791.7	0.000000	0.000000	6.963109	0.017552	NaN	0.000000	0.001636	0.001728	28.0837	0.055344	0.002028	27.2934	162.76	-165.708	-0.022094	0.961992	-0.154421	-0.155702	0.017552	27.2934	-0.154904	-22.2253	-0.000790	NaN
742	1.000000	0.973303	7.37232e+06	-39989.1	1005.82	-29791.7	0.000000	0.000000	6.973138	0.012416	NaN	0.000000	0.001579	0.001745	28.0837	0.037984	0.002074	18.3167	-66.2225	11.5545	-0.063402	0.971952	-0.144392	-0.145743	0.012416	18.3167	-0.144901	-14.5992	-0.000850	NaN
742	1.000000	0.983295	7.37232e+06	-39989.1	1005.82	-29791.7	0.000000	0.000000	6.983128	-0.065143	NaN	0.000000	0.001606	0.001717	28.0839	0.039510	0.001938	20.3854	117.588	-164.672	-0.066078	0.981965	-0.134400	-0.135730	-0.065143	20.3854	-0.132003	-8.332613	0.007818	NaN
742	1.000000	0.993298	7.37232e+06	-39989.1	1005.82	-29791.7	0.000000	0.000000	6.993135	0.034834	NaN	0.000000	0.001631	0.001694	28.0835	0.133972	0.002002	66.9325	-120.6	13.4306	0.040001	0.991980	-0.124397	-0.125715	0.034834	66.9325	-0.124787	-6.022478	-0.005784	NaN
742	1.000000	1.003299	7.37232e+06	-39989.1	1005.82	-29791.7	0.000000	0.000000	7.003136	0.033732	NaN	0.000000	0.001609	0.001718	28.0837	0.061204	0.001959	31.2446	112.314	-166.187	-0.002604	1.001952	-0.114396	-0.115742	0.033732	31.2446	-0.115205	-3.857751	-0.008744	NaN
742	1.000000	1.013291	7.37232e+06	-39989.1	1005.82	-29791.7	0.000000	0.000000	7.013127	0.017109	NaN	0.000000	0.001625	0.001707	28.0837	0.064050	0.002049	31.2526	-104.943	13.0428	0.050836	1.011985	-0.104404	-0.105710	0.017109	31.2526	-0.104815	-2.328988	-0.007346	NaN
742	1.000000	1.023283	7.37232e+06	-39989.1	1005.82	-29791.7	0.000000	0.000000	7.023120	0.045651	NaN	0.000000	0.001616	0.001681	28.0838	0.097952	0.002102	46.6033	-48.1351	-167.934	0.047549	1.021972	-0.094412	-0.095723	0.045651	46.6033	-0.095147	-1.421524	-0.032114	NaN
742	1.000000	1.033341	7.37232e+06	-39989.1	1005.82	-29791.7	0.000000	0.000000	7.033175	-0.042160	NaN	0.000000	0.001615	0.001736	28.0824	0.030019	0.001953	15.3743	-103.499	11.1415	-0.080221	1.031984	-0.084354	-0.085711	-0.042160	15.3743	-0.082297	-0.705809	0.059734	NaN
742	1.000000	1.043321	7.37232e+06	-39989.1	1005.82	-29791.7	0.000000	0.000000	7.043152	-0.100238	NaN	0.000000	0.001562	0.001690	28.0824	0.062768	0.002132	29.4449	27.8395	-166.167	-0.087334	1.042057	-0.074373	-0.075638	-0.100238	29.4449	-0.071820	-0.381369	0.262837	NaN
742	1.000000	1.053314	7.37232e+06	-39989.1	1005.82	-29791.7	0.000000	0.000000	7.053147	-0.057814	NaN	0.000000	0.001605	0.001677	28.0824	0.026779	0.001979	13.5307	-115.646	15.8187	-0.100698	1.052003	-0.064381	-0.065692	-0.057814	13.5307	-0.061176	-0.194582	0.297120	NaN
742	1.000000	1.063351	7.37232e+06	-39989.1	1005.82	-29791.7	0.000000	0.000000	7.063187	0.027721	NaN	0.000000	0.001589	0.001680	28.0823	0.041011	0.002002	20.4834	138.333	-169.491	0.060759	1.062028	-0.054344	-0.055666	0.027721	20.4834	-0.055359	-0.131959	-0.210074	NaN
742	1.000000	1.073368	7.37232e+06	-39989.1	1005.82	-29791.7	0.000000	0.000000	7.073202	-0.024440	NaN	0.000000	0.001536	0.001703	28.0824	0.027432	0.002049	13.3907	42.7864	12.8566	-0.058048	1.072007	-0.044327	-0.045688	-0.024440	13.3907	-0.042958	-0.055661	0.439096	NaN
742	1.000000	1.083322	7.37232e+06	-39989.1	1005.82	-29791.7	0.000000	0.000000	7.083156	-0.025412	NaN	0.000000	0.001581	0.001691	28.0827	0.030187	0.002021	14.9351	-173.57	-166.477	-0.070150	1.082047	-0.034373	-0.035648	-0.025412	14.9351	-0.033097	-0.028179	0.901805	NaN
742	1.000000	1.093361	7.37232e+06	-39989.1	1005.82	-29791.7	0.000000	0.000000	7.093193	-0.076622	NaN	0.000000	0.001551	0.001711	28.0828	0.065432	0.002158	30.321	69.8015	9.277455	-0.035751	1.091957	-0.024334	-0.025738	-0.076622	30.321	-0.022439	-0.014489	5.288179	NaN
742	1.000000	1.103352	7.37232e+06	-39989.1	1005.82	-29791.7	0.000000	0.000000	7.103292	2.559404	NaN	0.000000	0.001613	0.001706	28.0826	1.579431	0.001970	801.879	11.5696	-171.331	1.942523	1.102014	-0.014343	-0.015681	2.559404	801.879	-0.016737	-0.010343	-247.449	NaN
742	1.000000	1.113360	7.37232e+06	-39989.1	1005.82	-29791.7	0.000000	0.000000	7.113231	0.881173	NaN	0.000000	0.001540	0.001707	28.0825	0.838895	0.001908	439.661	12.632	13.4913	1.226509	1.111914	-0.004335	-0.005781	0.881173	439.661	-0.005838	-0.003937	-223.818	NaN
742	1.000000	1.123333	7.37232e+06	-39989.1	1005.82	-29791.7	0.000000	0.000000	7.123300	3.215723	NaN	0.000000	0.001577	0.001677	28.0827	4.120778	0.002040	2020.17	10.3845	-168.235	2.279631	1.122023	0.005638	0.004328	3.215723	2020.17	0.004444	0.003632	885.381	30625.8
742	2.000000	1.130416	7.37232e+06	-39989.1	1005.82	-29791.7	0.000000	0.000000	7.130651	9.736538	NaN	0.000000	0.001588	0.001702	28.0828	10.5114	0.001553	6768.85	5.331355	6.308475	9.499336	1.130113	0.012721	0.012419	9.736538	6768.85	0.011642	0.011064	880.014	58793.7
742	2.000000	1.132875	7.37232e+06	-39989.1	1005.82	-29791.7	0.000000	0.000000	7.133254	13.2235	NaN	0.000000	0.001571	0.001724	28.0825	12.3311	0.001603	7692.21	1.399588	-171.917	12.4661	1.132531	0.015180	0.014836	13.2235	7692.21	0.013891	0.013835	955.828	59750.3
742	2.000000	1.135328	7.37232e+06	-39989.1	1005.82	-29791.7	0.000000	0.000000	7.135824	16.0807	NaN	0.000000	0.001561	0.001690	28.0828	15.1796	0.001789	8485.36	5.103571	5.649329	15.0356	1.135029	0.017633	0.017334	16.0807	8485.36	0.016212	0.016935	949.532	59572.4
742	2.000000	1.137837	7.37232e+06	-39989.1	1005.82	-29791.7	0.000000	0.000000	7.138482	19.7215	NaN	0.000000	0.001578	0.001667	28.0836	18.0458	0.001927	9363.42	6.773008	-174.001	19.1999	1.137565	0.020142	0.019870	19.7215	9363.42	0.018562	0.020333	969.926	59993.9
742	2.000000	1.140274	7.37232e+06	-39989.1	1005.82	-29791.7	0.000000	0.000000	7.141038	22.5917	NaN	0.000000	0.001569	0.001707	28.0841	19.8001	0.001751	11309.6	6.709343	1.382514	20.2966	1.140015	0.022579	0.022320	22.5917	11309.6	0.021081	0.024269	930.869	66327.1
742	2.000000	1.142856	7.37232e+06	-39989.1	1005.82	-29791.7	0.000000	0.000000	7.143921	29.9289	NaN	0.000000	0.001593	0.001673	28.0838	21.1528	0.001724	12270.3	6.833996	-177.842	30.283	1.142442	0.025161	0.024747	29.9289	12270.3	0.023331	0.028050	1066.98	66936.5
742	2.000000	1.145299	7.37232e+06	-39989.1	1005.82	-29791.7	0.000000	0.000000	7.146627	36.3081	NaN	0.000000	0.001567	0.001707	28.0839	24.2096	0.001675	14454.5	6.535912	-1.374281	34.344	1.144926	0.027605	0.027231	36.3081	14454.5	0.025721	0.032340	1122.71	73435.7
742	2.000000	1.147783	7.37232e+06	-39989.1	1005.82	-29791.7	0.000000	0.000000	7.149210	38.7327	NaN	0.000000	0.001611	0.001724	28.0838	26.9279	0.001736	15508.9	5.055562	179.433	37.632	1.147492	0.030088	0.029797	38.7327	15508.9	0.028215	0.037125	1043.3	73539.1
742	2.000000	1.150291	7.37232e+06	-39989.1	1005.82	-29791.7	0.000000	0.000000	7.152124	48.6213	NaN	0.000000	0.001607	0.001713	28.0838	29.3215	0.001750	16753.1	3.502526	0.770080	45.8384	1.149959	0.032596	0.032265	48.6213	16753.1	0.030420	0.041618	1168.27	75028.5
742	2.000000	1.152769	7.37232e+06	-39989.1	1005.82	-29791.7	0.000000	0.000000	7.154633	49.3759	NaN	0.000000	0.001590	0.001691	28.0837	31.43	0.001795	17514.3	2.794071	-178.671	47.9999	1.152492	0.035074	0.034798	49.3759	17514.3	0.032960	0.047102	1048.27	73730.2
742	2.000000	1.155312	7.37232e+06	-39989.1	1005.82	-29791.7	0.000000	0.000000	7.157691	61.8919	NaN	0.000000	0.001625	0.001743	28.0838	33.9967	0.001792	18972.8	5.555929	-1.832527	62.1344	1.154928	0.037618	0.037233	61.8919	18972.8	0.035171	0.052145	1186.92	75910
742	2.000000	1.157771	7.37232e+06	-39989.1	1005.82	-29791.7	0.000000	0.000000	7.160479	69.8968	NaN	0.000000	0.001632	0.001727	28.084	36.8495	0.001856	19852.5	6.015202	177.771	69.0729	1.157448	0.040076	0.039753	69.8968	19852.5	0.037436	0.057570	1214.13	75594.9
742	2.000000	1.160264	7.37232e+06	-39989.1	1005.82	-29791.7	0.000000	0.000000	7.163338	78.8185	NaN	0.000000	0.001554	0.001707	28.0838	38.0534	0.001720	22127.6	2.486620	0.276767	75.9685	1.159890	0.042569	0.042195	78.8185	22127.6	0.039897	0.063763	1236.11	80061.2
742	2.000000	1.162691	7.37232e+06	-39989.1	1005.82	-29791.7	0.000000	0.000000	7.166141	87.9483	NaN	0.000000	0.001591	0.001736	28.0838	40.6248	0.001841	22062.3	3.469593	178.549	84.0502	1.162428	0.044996	0.044733	87.9483	22062.3	0.042007	0.069317	1268.78	76560.3
742	2.000000	1.165227	7.37232e+06	-39989.1	1005.82	-29791.7	0.000000	0.000000	7.168843	92.0051	NaN	0.000000	0.001584	0.001729	28.0841	43.6044	0.001782	24468.3	2.536838	-1.963628	86.7618	1.164961	0.047533	0.047266	92.0051	24468.3	0.044712	0.076773	1198.4	80681.2
742	2.000000	1.167796	7.37232e+06	-39989.1	1005.82	-29791.7	0.000000	0.000000	7.172125	109.36	NaN	0.000000	0.001597	0.001706	28.0843	46.6834	0.001706	27366.2	5.331188	174.842	108.221	1.167429	0.050101	0.049734	109.36	27366.2	0.047104	0.083671	1307.02	86437.1
742	2.000000	1.170276	7.37232e+06	-39989.1	1005.82	-29791.7	0.000000	0.000000	7.175087	121.08	NaN	0.000000	0.001575	0.001748	28.084	48.8737	0.001845	26483.5	7.634723	-6.929449	117.667	1.169856	0.052582	0.052162	121.08	26483.5	0.049153	0.089812	1348.15	80738.4
742	2.000000	1.172681	7.37232e+06	-39989.1	1005.82	-29791.7	0.000000	0.000000	7.177891	130.784	NaN	0.000000	0.001563	0.001684	28.0827	50.825	0.001712	29683.7	4.069023	175.298	125.286	1.172445	0.054986	0.054750	130.784	29683.7	0.051682	0.097683	1338.86	86772.5
742	2.000000	1.175257	7.37232e+06	-39989.1	1005.82	-29791.7	0.000000	0.000000	7.180943	142.376	NaN	0.000000	0.001567	0.001704	28.0828	54.2306	0.001866	29057.3	6.085043	-6.100152	140.296	1.174813	0.057562	0.057118	142.376	29057.3	0.053887	0.104805	1358.48	82004.4
742	2.000000	1.177806	7.37232e+06	-39989.1	1005.82	-29791.7	0.000000	0.000000	7.183999	154.722	NaN	0.000000	0.001574	0.001679	28.083	56.5779	0.001846	30656.5	6.873420	172.773	155.655	1.177415	0.060111	0.059720	154.722	30656.5	0.056326	0.112963	1369.67	83335.2
742	2.000000	1.180302	7.37232e+06	-39989.1	1005.82	-29791.7	0.000000	0.000000	7.187011	167.286	NaN	0.000000	0.001565	0.001712	28.0827	58.4809	0.001809	32328.9	8.276710	-8.105513	168.872	1.179796	0.062607	0.062101	167.286	32328.9	0.058726	0.121279	1379.35	84814.9
742	2.000000	1.182778	7.37232e+06	-39989.1	1005.82	-29791.7	0.000000	0.000000	7.190053	181.032	NaN	0.000000	0.001628	0.001665	28.0827	59.5009	0.001757	33865.8	2.193464	176.352	181.9	1.182419	0.065083	0.064724	181.032	33865.8	0.061074	0.129688	1395.91	85918.2
742	2.000000	1.185256	7.37232e+06	-39989.1	1005.82	-29791.7	0.000000	0.000000	7.192840	188.555	NaN	0.000000	0.001581	0.001689	28.0834	62.9762	0.001746	36058.7	1.416259	-3.682772	186.882	1.184928	0.067561	0.067233	188.555	36058.7	0.063639	0.139181	1354.75	88306.8
742	2.000000	1.187751	7.37232e+06	-39989.1	1005.82	-29791.7	0.000000	0.000000	7.195817	200.304	NaN	0.000000	0.001589	0.001687	28.0828	66.4064	0.001900	34948.7	4.906543	172.752	198.262	1.187555	0.070056	0.069860	200.304	34948.7	0.065757	0.147258	1360.22	83208
742	2.000000	1.190252	7.37232e+06	-39989.1	1005.82	-29791.7	0.000000	0.000000	7.199166	220.938	NaN	0.000000	0.001586	0.001680	28.0832	66.8167	0.001758	38002.3	3.954255	-5.612581	219.492	1.189767	0.072557	0.072072	220.938	38002.3	0.068197	0.156830	1408.78	87673.6
742	2.000000	1.192700	7.37232e+06	-39989.1	1005.82	-29791.7	0.000000	0.000000	7.202433	240.855	NaN	0.000000	0.001611	0.001698	28.0827	69.0862	0.001833	37683	4.780146	172.705	235.879	1.192361	0.075005	0.074666	240.855	37683	0.070212	0.164950	1460.17	84770.1
742	2.000000	1.195221	7.37232e+06	-39989.1	1005.82	-29791.7	0.000000	0.000000	7.205712	259.308	NaN	0.000000	0.001639	0.001696	28.0832	71.6961	0.001814	39523.9	7.366102	-9.333368	257.015	1.194779	0.077526	0.077084	259.308	39523.9	0.072606	0.174849	1483.04	86357.6
742	2.000000	1.197815	7.37232e+06	-39989.1	1005.82	-29791.7	0.000000	0.000000	7.208666	268.07	NaN	0.000000	0.001581	0.001707	28.0826	74.5468	0.001721	43327.8	5.585373	170.918	272.582	1.197429	0.080120	0.079734	268.07	43327.8	0.075480	0.187091	1432.83	91519.4
742	2.000000	1.200211	7.37232e+06	-39989.1	1005.82	-29791.7	0.000000	0.000000	7.212059	292.311	NaN	0.000000	0.001564	0.001692	28.084	75.9195	0.001735	43767.6	7.508897	-10.3736	287.87	1.199879	0.082517	0.082184	292.311	43767.6	0.077508	0.195961	1491.68	90331.9
742	2.000000	1.202868	7.37232e+06	-39989.1	1005.82	-29791.7	0.000000	0.000000	7.214848	295.532	NaN	0.000000	0.001569	0.001676	28.0826	78.5385	0.001714	45833.1	4.506527	171.573	303.414	1.202569	0.085173	0.084874	295.532	45833.1	0.080337	0.208660	1416.34	91671.2
742	2.000000	1.205211	7.37232e+06	-39989.1	1005.82	-29791.7	0.000000	0.000000	7.218477	326.818	NaN	0.000000	0.001589	0.001687	28.0834	81.354	0.001751	46474.1	4.369985	-7.655570	324.472	1.204803	0.087516	0.087108	326.818	46474.1	0.082242	0.217422	1503.15	91061.2
742	2.000000	1.207776	7.37232e+06	-39989.1	1005.82	-29791.7	0.000000	0.000000	7.221536	338.841	NaN	0.000000	0.001546	0.001658	28.084	85.0497	0.001792	47462	4.133836	171.697	339.978	1.207456	0.090081	0.089761	338.841	47462	0.084727	0.229101	1479	90595.4
742	2.000000	1.210189	7.37232e+06	-39989.1	1005.82	-29791.7	0.000000	0.000000	7.225070	366.129	NaN	0.000000	0.001558	0.001699	28.0845	86.5411	0.001830	47283.5	4.847037	-8.356679	360.662	1.209742	0.092494	0.092047	366.129	47283.5	0.086686	0.238512	1535.05	88456.1
742	2.000000	1.212724	7.37232e+06	-39989.1	1005.82	-29791.7	0.000000	0.000000	7.228171	379.915	NaN	0.000000	0.001576	0.001690	28.0838	89.3683	0.001798	49714.8	7.182895	168.329	380.188	1.212494	0.095029	0.094799	379.915	49714.8	0.089297	0.251328	1511.63	90602.2
742	2.000000	1.215111	7.37232e+06	-39989.1	1005.82	-29791.7	0.000000	0.000000	7.231612	405.557	NaN	0.000000	0.001575	0.001686	28.0842	91.2739	0.001893	48224.4	1.550324	-5.555878	397.625	1.214822	0.097416	0.097127	405.557	48224.4	0.091109	0.260402	1557.42	86341.2
742	2.000000	1.217726	7.37232e+06	-39989.1	1005.82	-29791.7	0.000000	0.000000	7.235106	426.929	NaN	0.000000	0.001591	0.001707	28.0837	93.5932	0.001822	51378.5	6.153017	170.266	426.92	1.217319	0.100032	0.099624	426.929	51378.5	0.093799	0.274159	1557.23	89650.6
742	2.000000	1.220255	7.37232e+06	-39989.1	1005.82	-29791.7	0.000000	0.000000	7.238206	440.853	NaN	0.000000	0.001564	0.001672	28.0839	94.9452	0.001774	53526.6	3.847805	-8.627363	441.001	1.219942	0.102560	0.102247	440.853	53526.6	0.096383	0.287677	1532.46	91178.1
742	2.000000	1.222622	7.37232e+06	-39989.1	1005.82	-29791.7	0.000000	0.000000	7.241427	461.633	NaN	0.000000	0.001601	0.001691	28.0838	96.6953	0.001764	54819	4.664446	170.282	457.347	1.222303	0.104927	0.104608	461.633	54819	0.098611	0.299583	1540.92	91505.3
742	2.000000	1.225146	7.37232e+06	-39989.1	1005.82	-29791.7	0.000000	0.000000	7.244587	477.077	NaN	0.000000	0.001583	0.001707	28.0838	99.376	0.001758	56530.4	2.721658	-8.212803	471.773	1.224865	0.107451	0.107171	477.077	56530.4	0.101122	0.313269	1522.9	92277.6
742	2.000000	1.227751	7.37232e+06	-39989.1	1005.82	-29791.7	0.000000	0.000000	7.247972	496.062	NaN	0.000000	0.001605	0.001697	28.0838	102.983	0.001814	56772.2	5.739235	169.199	497.583	1.227339	0.110056	0.109644	496.062	56772.2	0.103503	0.326512	1519.27	90773.5