File: remote_trans/data/nanoindenter/0828-1/data/Data_2025-08-06,11h17m57s/2025-07-22_16-23-58_1_553.txt
2025-07-22, 16:23:58, 1
Index	Phase	Displacement	Time	Pos X	Pos Y	Pos Z	Rot A	Rot B	Piezo Z	Force A	Force B	Gripper	Voltage A	Voltage B	Temperature	Amplitude force	Amplitude pos	Stiffness	Phase shift	Phase excitation	Force A raw	Displacement raw	HMax	HMax raw	Real Force	Real Stiffness	Contact Depth	Area	Hardness	Reduced Mod.
[#]	[#]	[um]	[s]	[um]	[um]	[um]	[m°]	[m°]	[um]	[uN]	[uN]	[V]	[V]	[V]	[°C]	[uN]	[um]	[N/m]	[°]	[°]	[uN]	[um]	[um]	[um]	[uN]	[N/m]	[um]	[um^2]	[MPa]	[MPa]
553	1.000000	0.002798	7.37046e+06	-49439.1	1005.82	-29758.9	0.000000	0.000000	6.002821	-0.040764	NaN	0.000000	0.001713	0.001699	28.0816	0.043811	0.000867	50.5341	165.52	-162.664	-0.010664	0.001544	-1.208149	-1.209403	-0.040764	50.5341	-1.207544	-1.385993E+16	2.941154E-18	NaN
553	1.000000	0.012804	7.37046e+06	-49439.1	1005.82	-29758.9	0.000000	0.000000	6.012832	0.074905	NaN	0.000000	0.001682	0.001705	28.0816	0.122070	0.001252	97.513	-162.999	20.5781	0.054987	0.011420	-1.198143	-1.199527	0.074905	97.513	-1.198719	-1.055825E+16	-7.094408E-18	NaN
553	1.000000	0.022731	7.37046e+06	-49439.1	1005.82	-29758.9	0.000000	0.000000	6.022754	-0.026388	NaN	0.000000	0.001692	0.001706	28.0815	0.066514	0.001728	38.4954	179.485	-164.851	0.033533	0.021413	-1.188216	-1.189534	-0.026388	38.4954	-1.187702	-7.517095E+15	3.510394E-18	NaN
553	1.000000	0.032714	7.37046e+06	-49439.1	1005.82	-29758.9	0.000000	0.000000	6.032737	-0.041824	NaN	0.000000	0.001680	0.001689	28.0815	0.059798	0.002014	29.6849	98.0554	16.6043	0.013806	0.031375	-1.178233	-1.179572	-0.041824	29.6849	-1.177177	-5.433069E+15	7.698099E-18	NaN
553	1.000000	0.042729	7.37046e+06	-49439.1	1005.82	-29758.9	0.000000	0.000000	6.042753	-0.017079	NaN	0.000000	0.001656	0.001756	28.0818	0.058082	0.002016	28.8159	18.5297	-166.605	-0.058762	0.041403	-1.168219	-1.169544	-0.017079	28.8159	-1.167774	-4.064984E+15	4.201447E-18	NaN
553	1.000000	0.052730	7.37046e+06	-49439.1	1005.82	-29758.9	0.000000	0.000000	6.052759	0.083655	NaN	0.000000	0.001650	0.001723	28.0816	0.053919	0.001998	26.9865	149.218	16.5537	-0.015273	0.051394	-1.158217	-1.159553	0.083655	26.9865	-1.160542	-3.251849E+15	-2.572548E-17	NaN
553	1.000000	0.062750	7.37046e+06	-49439.1	1005.82	-29758.9	0.000000	0.000000	6.062775	0.014507	NaN	0.000000	0.001633	0.001709	28.0816	0.082514	0.001851	44.5894	-91.873	-164.608	0.064656	0.061400	-1.148198	-1.149547	0.014507	44.5894	-1.148442	-2.238350E+15	-6.481190E-18	NaN
553	1.000000	0.072737	7.37046e+06	-49439.1	1005.82	-29758.9	0.000000	0.000000	6.072759	-0.080011	NaN	0.000000	0.001701	0.001708	28.0818	0.076965	0.002059	37.3746	12.5113	16.3355	-0.063276	0.071373	-1.138210	-1.139574	-0.080011	37.3746	-1.136604	-1.553109E+15	5.151662E-17	NaN
553	1.000000	0.082739	7.37046e+06	-49439.1	1005.82	-29758.9	0.000000	0.000000	6.082760	-0.074129	NaN	0.000000	0.001712	0.001701	28.0829	0.066255	0.001915	34.5896	170.069	-166.595	-0.056556	0.081394	-1.128208	-1.129553	-0.074129	34.5896	-1.126601	-1.140330E+15	6.500675E-17	NaN
553	1.000000	0.092762	7.37046e+06	-49439.1	1005.82	-29758.9	0.000000	0.000000	6.092785	-0.038893	NaN	0.000000	0.001706	0.001679	28.083	0.085391	0.002006	42.5702	-26.2539	15.2665	-0.071743	0.091378	-1.118185	-1.119569	-0.038893	42.5702	-1.117500	-8.608565E+14	4.517956E-17	NaN
553	1.000000	0.102742	7.37046e+06	-49439.1	1005.82	-29758.9	0.000000	0.000000	6.102766	-0.035305	NaN	0.000000	0.001669	0.001728	28.083	0.056094	0.001900	29.525	-152.668	-166.189	-0.130405	0.101437	-1.108205	-1.109511	-0.035305	29.525	-1.107308	-6.282904E+14	5.619235E-17	NaN
553	1.000000	0.112760	7.37046e+06	-49439.1	1005.82	-29758.9	0.000000	0.000000	6.112784	-0.015602	NaN	0.000000	0.001684	0.001701	28.0832	0.046902	0.001982	23.6616	-119.887	14.1782	0.036539	0.111366	-1.098187	-1.099581	-0.015602	23.6616	-1.097692	-4.667560E+14	3.342648E-17	NaN
553	1.000000	0.122760	7.37046e+06	-49439.1	1005.82	-29758.9	0.000000	0.000000	6.122787	0.035376	NaN	0.000000	0.001673	0.001682	28.0829	0.032672	0.001957	16.6959	-63.5682	-166.4	0.053963	0.121428	-1.088187	-1.089519	0.035376	16.6959	-1.089776	-3.654295E+14	-9.680779E-17	NaN
553	1.000000	0.132764	7.37046e+06	-49439.1	1005.82	-29758.9	0.000000	0.000000	6.132788	-0.021281	NaN	0.000000	0.001660	0.001697	28.083	0.100321	0.002055	48.8185	-21.0954	10.9851	-0.028907	0.131425	-1.078183	-1.079523	-0.021281	48.8185	-1.077856	-2.527677E+14	8.419193E-17	NaN
553	1.000000	0.142735	7.37046e+06	-49439.1	1005.82	-29758.9	0.000000	0.000000	6.142757	-0.056876	NaN	0.000000	0.001578	0.001707	28.0829	0.134111	0.001993	67.2993	-18.4673	-164.375	-0.033215	0.141467	-1.068213	-1.069480	-0.056876	67.2993	-1.067579	-1.839326E+14	3.092207E-16	NaN
553	1.000000	0.152755	7.37046e+06	-49439.1	1005.82	-29758.9	0.000000	0.000000	6.152780	0.012389	NaN	0.000000	0.001636	0.001689	28.0835	0.101910	0.001992	51.1516	85.3411	14.8413	0.067791	0.151361	-1.058192	-1.059586	0.012389	51.1516	-1.058374	-1.383474E+14	-8.954993E-17	NaN
553	1.000000	0.162791	7.37046e+06	-49439.1	1005.82	-29758.9	0.000000	0.000000	6.162816	-0.005565	NaN	0.000000	0.001591	0.001704	28.0829	0.056793	0.002048	27.7268	-164.063	-163.627	0.073304	0.161455	-1.048156	-1.049492	-0.005565	27.7268	-1.048005	-1.003690E+14	5.544598E-17	NaN
553	1.000000	0.172755	7.37046e+06	-49439.1	1005.82	-29758.9	0.000000	0.000000	6.172777	-0.074986	NaN	0.000000	0.001588	0.001711	28.0832	0.034551	0.001995	17.3209	120.587	14.0632	-0.096276	0.171379	-1.038192	-1.039568	-0.074986	17.3209	-1.034945	-6.698766E+13	1.119404E-15	NaN
553	1.000000	0.182777	7.37046e+06	-49439.1	1005.82	-29758.9	0.000000	0.000000	6.182800	-0.033440	NaN	0.000000	0.001597	0.001691	28.083	0.018925	0.002018	9.377709	35.6831	-164.51	-0.134524	0.181486	-1.028170	-1.029461	-0.033440	9.377709	-1.025496	-4.999137E+13	6.689122E-16	NaN
553	1.000000	0.192775	7.37046e+06	-49439.1	1005.82	-29758.9	0.000000	0.000000	6.192796	-0.081389	NaN	0.000000	0.001602	0.001709	28.0831	0.070210	0.002104	33.366	-26.1722	14.5926	-0.100289	0.191416	-1.018172	-1.019531	-0.081389	33.366	-1.016343	-3.764800E+13	2.161830E-15	NaN
553	1.000000	0.202804	7.37046e+06	-49439.1	1005.82	-29758.9	0.000000	0.000000	6.202828	-0.022825	NaN	0.000000	0.001612	0.001707	28.0828	0.107956	0.001920	56.2326	144.591	-163.192	0.008083	0.201483	-1.008143	-1.009464	-0.022825	56.2326	-1.007838	-2.892587E+13	7.890784E-16	NaN
553	1.000000	0.212768	7.37046e+06	-49439.1	1005.82	-29758.9	0.000000	0.000000	6.212791	-0.045189	NaN	0.000000	0.001623	0.001716	28.082	0.026818	0.002022	13.2664	-146.444	11.787	-0.061129	0.211467	-0.998179	-0.999480	-0.045189	13.2664	-0.995624	-1.980845E+13	2.281290E-15	NaN
553	1.000000	0.222789	7.37046e+06	-49439.1	1005.82	-29758.9	0.000000	0.000000	6.222812	-0.058694	NaN	0.000000	0.001656	0.001715	28.0816	0.041391	0.002058	20.1145	29.6072	-164.829	0.025387	0.221495	-0.988158	-0.989452	-0.058694	20.1145	-0.985969	-1.468333E+13	3.997334E-15	NaN
553	1.000000	0.232807	7.37046e+06	-49439.1	1005.82	-29758.9	0.000000	0.000000	6.232832	0.009808	NaN	0.000000	0.001631	0.001718	28.0818	0.062516	0.001892	33.044	47.5617	14.8816	-0.055698	0.231440	-0.978140	-0.979507	0.009808	33.044	-0.978363	-1.159712E+13	-8.457292E-16	NaN
553	1.000000	0.242772	7.37046e+06	-49439.1	1005.82	-29758.9	0.000000	0.000000	6.242796	-0.016445	NaN	0.000000	0.001645	0.001715	28.0816	0.017925	0.002064	8.682918	-179.751	-167.657	-0.073827	0.241527	-0.968176	-0.969420	-0.016445	8.682918	-0.966755	-8.089671E+12	2.032824E-15	NaN
553	1.000000	0.252785	7.37046e+06	-49439.1	1005.82	-29758.9	0.000000	0.000000	6.252807	-0.056985	NaN	0.000000	0.001639	0.001722	28.0817	0.046901	0.002070	22.6547	-56.8958	12.0703	0.008422	0.251437	-0.958162	-0.959510	-0.056985	22.6547	-0.956276	-5.843257E+12	9.752330E-15	NaN
553	1.000000	0.262794	7.37046e+06	-49439.1	1005.82	-29758.9	0.000000	0.000000	6.262817	-0.041559	NaN	0.000000	0.001611	0.001689	28.0816	0.099107	0.001879	52.7433	-37.5277	-167.374	-0.077114	0.261472	-0.948153	-0.949475	-0.041559	52.7433	-0.947562	-4.458045E+12	9.322187E-15	NaN
553	1.000000	0.272840	7.37046e+06	-49439.1	1005.82	-29758.9	0.000000	0.000000	6.272865	0.015721	NaN	0.000000	0.001610	0.001759	28.0815	0.106050	0.002034	52.1466	-26.3978	17.2343	-0.014926	0.271439	-0.938107	-0.939509	0.015721	52.1466	-0.938333	-3.346971E+12	-4.697073E-15	NaN
553	1.000000	0.282819	7.37046e+06	-49439.1	1005.82	-29758.9	0.000000	0.000000	6.282840	-0.085990	NaN	0.000000	0.001635	0.001686	28.0815	0.058356	0.002059	28.3374	42.4169	-164.09	-0.061904	0.281510	-0.928128	-0.929437	-0.085990	28.3374	-0.925852	-2.270984E+12	3.786457E-14	NaN
553	1.000000	0.292825	7.37046e+06	-49439.1	1005.82	-29758.9	0.000000	0.000000	6.292851	0.031449	NaN	0.000000	0.001682	0.001729	28.0816	0.058196	0.001965	29.6094	128.259	9.922493	0.012362	0.291456	-0.918122	-0.919491	0.031449	29.6094	-0.918919	-1.830660E+12	-1.717883E-14	NaN
553	1.000000	0.302838	7.37046e+06	-49439.1	1005.82	-29758.9	0.000000	0.000000	6.302860	-0.074169	NaN	0.000000	0.001587	0.001727	28.0819	0.051918	0.002050	25.3289	-144.527	-162.886	-0.110833	0.301466	-0.908109	-0.909482	-0.074169	25.3289	-0.905913	-1.221673E+12	6.071104E-14	NaN
553	1.000000	0.312850	7.37046e+06	-49439.1	1005.82	-29758.9	0.000000	0.000000	6.312872	-0.042734	NaN	0.000000	0.001628	0.001735	28.0817	0.055035	0.001931	28.5017	149.645	13.4861	0.005454	0.311439	-0.898098	-0.899509	-0.042734	28.5017	-0.896973	-9.250479E+11	4.619644E-14	NaN
553	1.000000	0.322817	7.37046e+06	-49439.1	1005.82	-29758.9	0.000000	0.000000	6.322844	0.050983	NaN	0.000000	0.001595	0.001713	28.0816	0.048667	0.001919	25.3594	-5.707325	-165.235	0.075887	0.321549	-0.888130	-0.889398	0.050983	25.3594	-0.889638	-7.362448E+11	-6.924698E-14	NaN
553	1.000000	0.332823	7.37046e+06	-49439.1	1005.82	-29758.9	0.000000	0.000000	6.332849	0.018295	NaN	0.000000	0.001587	0.001680	28.0818	0.055016	0.001981	27.769	-131.187	16.564	-0.070337	0.331438	-0.878124	-0.879509	0.018295	27.769	-0.878618	-5.224185E+11	-3.502013E-14	NaN
553	1.000000	0.342843	7.37046e+06	-49439.1	1005.82	-29758.9	0.000000	0.000000	6.342867	-0.027829	NaN	0.000000	0.001596	0.001686	28.0817	0.045838	0.002084	21.9898	-30.7692	-168.08	-0.084801	0.341538	-0.868104	-0.869409	-0.027829	21.9898	-0.867155	-3.655531E+11	7.612832E-14	NaN
553	1.000000	0.352854	7.37046e+06	-49439.1	1005.82	-29758.9	0.000000	0.000000	6.352875	-0.098673	NaN	0.000000	0.001567	0.001679	28.083	0.038871	0.002047	18.989	-0.155471	13.4239	0.029178	0.351449	-0.858093	-0.859498	-0.098673	18.989	-0.854196	-2.440884E+11	4.042522E-13	NaN
553	1.000000	0.362870	7.37046e+06	-49439.1	1005.82	-29758.9	0.000000	0.000000	6.362892	-0.079415	NaN	0.000000	0.001595	0.001666	28.0829	0.013728	0.001851	7.418195	-91.444	-162.335	-0.126822	0.361547	-0.848077	-0.849400	-0.079415	7.418195	-0.840048	-1.570161E+11	5.057746E-13	NaN
553	1.000000	0.372876	7.37046e+06	-49439.1	1005.82	-29758.9	0.000000	0.000000	6.372900	-0.010871	NaN	0.000000	0.001591	0.001712	28.0832	0.060082	0.001996	30.1073	109.743	14.7784	0.059745	0.371453	-0.838072	-0.839494	-0.010871	30.1073	-0.837801	-1.463856E+11	7.426481E-14	NaN
553	1.000000	0.382851	7.37046e+06	-49439.1	1005.82	-29758.9	0.000000	0.000000	6.382875	-0.016214	NaN	0.000000	0.001612	0.001705	28.0829	0.116671	0.002019	57.7904	98.2015	-168.697	-0.090766	0.381553	-0.828096	-0.829394	-0.016214	57.7904	-0.827886	-1.074296E+11	1.509309E-13	NaN
553	1.000000	0.392886	7.37046e+06	-49439.1	1005.82	-29758.9	0.000000	0.000000	6.392908	-0.065631	NaN	0.000000	0.001593	0.001730	28.083	0.049371	0.002018	24.4595	137.674	11.9606	-0.117304	0.391507	-0.818061	-0.819441	-0.065631	24.4595	-0.816049	-7.423839E+10	8.840583E-13	NaN
553	1.000000	0.402877	7.37046e+06	-49439.1	1005.82	-29758.9	0.000000	0.000000	6.402901	-0.012844	NaN	0.000000	0.001587	0.001746	28.0828	0.109991	0.001970	55.8452	-146.874	-165.741	-0.007849	0.401551	-0.808070	-0.809396	-0.012844	55.8452	-0.807898	-5.755040E+10	2.231711E-13	NaN
553	1.000000	0.412869	7.37046e+06	-49439.1	1005.82	-29758.9	0.000000	0.000000	6.412893	-0.012473	NaN	0.000000	0.001596	0.001719	28.0829	0.019719	0.001896	10.4031	-88.9447	13.9673	-0.034794	0.411508	-0.798078	-0.799440	-0.012473	10.4031	-0.797179	-4.116860E+10	3.029788E-13	NaN
553	1.000000	0.422877	7.37046e+06	-49439.1	1005.82	-29758.9	0.000000	0.000000	6.422898	-0.092746	NaN	0.000000	0.001610	0.001756	28.0828	0.074824	0.002083	35.9261	-37.7955	-164.968	-0.061006	0.421565	-0.788070	-0.789382	-0.092746	35.9261	-0.786134	-2.914532E+10	3.182197E-12	NaN
553	1.000000	0.432897	7.37046e+06	-49439.1	1005.82	-29758.9	0.000000	0.000000	6.432918	-0.095074	NaN	0.000000	0.001611	0.001730	28.0828	0.055182	0.001980	27.8662	-127.719	13.7079	-0.094974	0.431525	-0.778050	-0.779422	-0.095074	27.8662	-0.775491	-2.089082E+10	4.551010E-12	NaN
553	1.000000	0.442894	7.37046e+06	-49439.1	1005.82	-29758.9	0.000000	0.000000	6.442916	-0.076196	NaN	0.000000	0.001595	0.001751	28.0829	0.069144	0.001965	35.1848	-124.648	-159.793	-0.099799	0.441545	-0.768053	-0.769402	-0.076196	35.1848	-0.766429	-1.573063E+10	4.843787E-12	NaN
553	1.000000	0.452908	7.37046e+06	-49439.1	1005.82	-29758.9	0.000000	0.000000	6.452933	-0.004862	NaN	0.000000	0.001602	0.001724	28.0829	0.068887	0.002028	33.9597	35.4513	15.6463	0.003150	0.451513	-0.758039	-0.759434	-0.004862	33.9597	-0.757931	-1.205476E+10	4.033246E-13	NaN
553	1.000000	0.462906	7.37046e+06	-49439.1	1005.82	-29758.9	0.000000	0.000000	6.462930	-0.019751	NaN	0.000000	0.001630	0.001717	28.0828	0.027758	0.002011	13.8008	-156.679	-163.1	-0.082211	0.461612	-0.748042	-0.749335	-0.019751	13.8008	-0.746968	-8.549613E+9	2.310138E-12	NaN
553	1.000000	0.472892	7.37046e+06	-49439.1	1005.82	-29758.9	0.000000	0.000000	6.472913	-0.087841	NaN	0.000000	0.001579	0.001729	28.0828	0.074194	0.001974	37.5786	-25.3516	14.0108	-0.095729	0.471584	-0.738055	-0.739363	-0.087841	37.5786	-0.736302	-6.118984E+9	1.435548E-11	NaN
553	1.000000	0.482872	7.37046e+06	-49439.1	1005.82	-29758.9	0.000000	0.000000	6.482894	-0.049753	NaN	0.000000	0.001565	0.001722	28.083	0.207130	0.002071	100.035	117.27	-165.524	-0.046686	0.481569	-0.728076	-0.729378	-0.049753	100.035	-0.727703	-4.671914E+9	1.064935E-11	NaN
553	1.000000	0.492886	7.37046e+06	-49439.1	1005.82	-29758.9	0.000000	0.000000	6.492908	-0.056225	NaN	0.000000	0.001564	0.001709	28.0815	0.082762	0.002001	41.3645	131.327	14.4348	0.060237	0.491579	-0.718061	-0.719368	-0.056225	41.3645	-0.717042	-3.342944E+9	1.681888E-11	NaN
553	1.000000	0.502936	7.37046e+06	-49439.1	1005.82	-29758.9	0.000000	0.000000	6.502961	0.011526	NaN	0.000000	0.001550	0.001710	28.0816	0.025166	0.002015	12.488	-119.724	-164.319	-0.040126	0.501584	-0.708011	-0.709363	0.011526	12.488	-0.708704	-2.572502E+9	-4.480460E-12	NaN
553	1.000000	0.512876	7.37046e+06	-49439.1	1005.82	-29758.9	0.000000	0.000000	6.512902	0.016356	NaN	0.000000	0.001565	0.001727	28.0815	0.102532	0.001933	53.044	-143.733	15.7563	0.031653	0.511602	-0.698071	-0.699345	0.016356	53.044	-0.698302	-1.854990E+9	-8.817532E-12	NaN
553	1.000000	0.522944	7.37046e+06	-49439.1	1005.82	-29758.9	0.000000	0.000000	6.522970	0.017521	NaN	0.000000	0.001555	0.001671	28.0817	0.073007	0.002055	35.5202	-179.961	-164.543	0.024861	0.521625	-0.688003	-0.689322	0.017521	35.5202	-0.688373	-1.357318E+9	-1.290849E-11	NaN
553	1.000000	0.532911	7.37046e+06	-49439.1	1005.82	-29758.9	0.000000	0.000000	6.532935	-0.003961	NaN	0.000000	0.001570	0.001719	28.0816	0.212297	0.002129	99.7185	-174.924	13.8172	0.026693	0.531587	-0.678037	-0.679360	-0.003961	99.7185	-0.678007	-9.793656E+8	4.044779E-12	NaN
553	1.000000	0.542920	7.37046e+06	-49439.1	1005.82	-29758.9	0.000000	0.000000	6.542945	-0.012852	NaN	0.000000	0.001621	0.001683	28.0815	0.010144	0.001771	5.727000	59.0086	-167.402	0.086773	0.541653	-0.668027	-0.669294	-0.012852	5.727000	-0.666344	-6.781709E+8	1.895130E-11	NaN
553	1.000000	0.552966	7.37046e+06	-49439.1	1005.82	-29758.9	0.000000	0.000000	6.552989	-0.040761	NaN	0.000000	0.001544	0.001722	28.0819	0.040622	0.002035	19.9652	-43.5524	16.3181	-0.087956	0.551609	-0.657981	-0.659339	-0.040761	19.9652	-0.656450	-4.964053E+8	8.211155E-11	NaN
553	1.000000	0.562948	7.37046e+06	-49439.1	1005.82	-29758.9	0.000000	0.000000	6.562973	0.015282	NaN	0.000000	0.001584	0.001693	28.0815	0.101228	0.002125	47.642	-30.0291	-166.364	0.056407	0.561649	-0.647999	-0.649298	0.015282	47.642	-0.648240	-3.830921E+8	-3.989165E-11	NaN
553	1.000000	0.572959	7.37046e+06	-49439.1	1005.82	-29758.9	0.000000	0.000000	6.572983	-0.023327	NaN	0.000000	0.001656	0.001692	28.0815	0.104899	0.001969	53.2873	49.3893	15.6615	-0.000693	0.571624	-0.637988	-0.639324	-0.023327	53.2873	-0.637660	-2.742717E+8	8.505138E-11	NaN
553	1.000000	0.582934	7.37046e+06	-49439.1	1005.82	-29758.9	0.000000	0.000000	6.582958	-0.038348	NaN	0.000000	0.001659	0.001686	28.0815	0.053195	0.001996	26.6498	-54.7561	-162.026	-0.013742	0.581650	-0.628013	-0.629297	-0.038348	26.6498	-0.626934	-1.953919E+8	1.962616E-10	NaN
553	1.000000	0.592959	7.37046e+06	-49439.1	1005.82	-29758.9	0.000000	0.000000	6.592981	-0.069994	NaN	0.000000	0.001621	0.001663	28.0818	0.023041	0.001925	11.9704	79.8326	16.9731	-0.020183	0.591582	-0.617988	-0.619365	-0.069994	11.9704	-0.613603	-1.281374E+8	5.462421E-10	NaN
553	1.000000	0.602898	7.37046e+06	-49439.1	1005.82	-29758.9	0.000000	0.000000	6.602922	-0.032204	NaN	0.000000	0.001643	0.001712	28.0814	0.042622	0.001945	21.9107	-46.0345	-165.207	-0.005054	0.601625	-0.608049	-0.609322	-0.032204	21.9107	-0.606947	-1.037762E+8	3.103207E-10	NaN
553	1.000000	0.612958	7.37046e+06	-49439.1	1005.82	-29758.9	0.000000	0.000000	6.612982	-0.033776	NaN	0.000000	0.001643	0.001677	28.0813	0.045887	0.002059	22.2892	146.246	11.7932	0.019588	0.611635	-0.597989	-0.599312	-0.033776	22.2892	-0.596852	-7.535359E+7	4.482325E-10	NaN
553	1.000000	0.622978	7.37046e+06	-49439.1	1005.82	-29758.9	0.000000	0.000000	6.622999	-0.084549	NaN	0.000000	0.001644	0.001712	28.0826	0.024326	0.001954	12.4473	51.9727	-168.341	-0.069977	0.621679	-0.587969	-0.589268	-0.084549	12.4473	-0.582875	-4.835022E+7	1.748687E-9	NaN
553	1.000000	0.632974	7.37046e+06	-49439.1	1005.82	-29758.9	0.000000	0.000000	6.632994	-0.113026	NaN	0.000000	0.001664	0.001714	28.083	0.049490	0.002050	24.1435	-135.844	12.4931	-0.129018	0.631655	-0.577973	-0.579293	-0.113026	24.1435	-0.574462	-3.700601E+7	3.054252E-9	NaN
553	1.000000	0.642994	7.37046e+06	-49439.1	1005.82	-29758.9	0.000000	0.000000	6.643019	-0.006033	NaN	0.000000	0.001667	0.001687	28.0827	0.055708	0.001887	29.5251	-73.3626	-166.284	0.005799	0.641643	-0.567953	-0.569304	-0.006033	29.5251	-0.567800	-2.993837E+7	2.015012E-10	NaN
553	1.000000	0.652989	7.37046e+06	-49439.1	1005.82	-29758.9	0.000000	0.000000	6.653013	-0.022317	NaN	0.000000	0.001678	0.001690	28.0832	0.078578	0.002065	38.0557	173.547	14.7523	-0.040082	0.651623	-0.557958	-0.559324	-0.022317	38.0557	-0.557518	-2.157951E+7	1.034171E-9	NaN
553	1.000000	0.663013	7.37046e+06	-49439.1	1005.82	-29758.9	0.000000	0.000000	6.663037	-0.007008	NaN	0.000000	0.001689	0.001725	28.083	0.070077	0.002101	33.353	-11.6472	-167.86	0.005384	0.661678	-0.547934	-0.549269	-0.007008	33.353	-0.547777	-1.581816E+7	4.430173E-10	NaN
553	1.000000	0.672998	7.37046e+06	-49439.1	1005.82	-29758.9	0.000000	0.000000	6.673021	-0.028473	NaN	0.000000	0.001660	0.001682	28.0831	0.078118	0.001903	41.0605	96.9234	18.6911	-0.045736	0.671639	-0.537949	-0.539308	-0.028473	41.0605	-0.537429	-1.136843E+7	2.504590E-9	NaN
553	1.000000	0.682988	7.37046e+06	-49439.1	1005.82	-29758.9	0.000000	0.000000	6.683010	-0.070095	NaN	0.000000	0.001681	0.001722	28.0829	0.028083	0.001925	14.5904	-162.117	-163.121	-0.014306	0.681657	-0.527959	-0.529290	-0.070095	14.5904	-0.524356	-7.48453e+06	9.365274E-9	NaN
553	1.000000	0.692984	7.37046e+06	-49439.1	1005.82	-29758.9	0.000000	0.000000	6.693007	-0.039646	NaN	0.000000	0.001661	0.001706	28.0832	0.032897	0.001934	17.0062	-177.805	13.2966	-0.029505	0.691616	-0.517964	-0.519331	-0.039646	17.0062	-0.516215	-5.76692e+06	6.874758E-9	NaN
553	1.000000	0.703001	7.37046e+06	-49439.1	1005.82	-29758.9	0.000000	0.000000	6.703024	-0.048405	NaN	0.000000	0.001659	0.001712	28.083	0.026892	0.001943	13.8391	-117.393	-168.353	-0.068795	0.701659	-0.507946	-0.509288	-0.048405	13.8391	-0.505323	-4.06671e+06	1.190274E-8	NaN
553	1.000000	0.712994	7.37046e+06	-49439.1	1005.82	-29758.9	0.000000	0.000000	6.713016	-0.054578	NaN	0.000000	0.001648	0.001706	28.0831	0.063636	0.001964	32.3941	-52.9846	14.3569	-0.056366	0.711647	-0.497954	-0.499300	-0.054578	32.3941	-0.496690	-3.08197e+06	1.770873E-8	NaN
553	1.000000	0.722989	7.37046e+06	-49439.1	1005.82	-29758.9	0.000000	0.000000	6.723011	-0.044508	NaN	0.000000	0.001587	0.001694	28.0825	0.079266	0.002006	39.5061	141.088	-168.311	-0.069240	0.721724	-0.487959	-0.489223	-0.044508	39.5061	-0.487114	-2.2649e+06	1.965115E-8	NaN
553	1.000000	0.733006	7.37046e+06	-49439.1	1005.82	-29758.9	0.000000	0.000000	6.733029	-0.049983	NaN	0.000000	0.001592	0.001672	28.0831	0.136306	0.002022	67.4065	9.167512	15.5806	-0.069032	0.731650	-0.477941	-0.479297	-0.049983	67.4065	-0.477385	-1.65543e+06	3.019353E-8	NaN
553	1.000000	0.743008	7.37046e+06	-49439.1	1005.82	-29758.9	0.000000	0.000000	6.743034	0.033375	NaN	0.000000	0.001630	0.001671	28.0829	0.090291	0.002048	44.0863	167.621	-163.602	0.000491	0.741724	-0.467939	-0.469223	0.033375	44.0863	-0.468507	-1.24297e+06	-2.685106E-8	NaN
553	1.000000	0.753010	7.37046e+06	-49439.1	1005.82	-29758.9	0.000000	0.000000	6.753033	-0.033509	NaN	0.000000	0.001605	0.001648	28.083	0.016450	0.001958	8.399981	-170.709	13.6028	-0.012714	0.751658	-0.457937	-0.459289	-0.033509	8.399981	-0.454945	-801586	4.180274E-8	NaN
553	1.000000	0.763033	7.37046e+06	-49439.1	1005.82	-29758.9	0.000000	0.000000	6.763054	-0.085861	NaN	0.000000	0.001593	0.001690	28.0815	0.086609	0.001972	43.9127	31.3149	-163.3	-0.087170	0.761723	-0.447914	-0.449225	-0.085861	43.9127	-0.446448	-608554	1.410896E-7	NaN
553	1.000000	0.773014	7.37046e+06	-49439.1	1005.82	-29758.9	0.000000	0.000000	6.773040	0.018339	NaN	0.000000	0.001546	0.001698	28.0818	0.060183	0.001986	30.3102	8.735108	14.8065	0.060237	0.771707	-0.437933	-0.439240	0.018339	30.3102	-0.438387	-468369	-3.915405E-8	NaN
553	1.000000	0.783033	7.37046e+06	-49439.1	1005.82	-29758.9	0.000000	0.000000	6.783057	-0.021197	NaN	0.000000	0.001581	0.001692	28.0816	0.035799	0.002077	17.2385	-177.504	-170.012	-0.022839	0.781813	-0.427914	-0.429134	-0.021197	17.2385	-0.426992	-323210	6.558252E-8	NaN
553	1.000000	0.793057	7.37046e+06	-49439.1	1005.82	-29758.9	0.000000	0.000000	6.793079	-0.047561	NaN	0.000000	0.001624	0.001649	28.0817	0.080956	0.001979	40.9022	58.7132	16.0175	0.007749	0.791668	-0.417891	-0.419279	-0.047561	40.9022	-0.417019	-233407	2.037670E-7	NaN
553	1.000000	0.803025	7.37046e+06	-49439.1	1005.82	-29758.9	0.000000	0.000000	6.803048	-0.042582	NaN	0.000000	0.001599	0.001663	28.0815	0.067333	0.002015	33.4214	52.7211	-166.103	-0.035400	0.801755	-0.407922	-0.409193	-0.042582	33.4214	-0.406967	-167976	2.535025E-7	NaN
553	1.000000	0.813037	7.37046e+06	-49439.1	1005.82	-29758.9	0.000000	0.000000	6.813062	0.020263	NaN	0.000000	0.001608	0.001659	28.0816	0.102462	0.002030	50.4742	-116.111	14.5527	-0.085179	0.811675	-0.397911	-0.399272	0.020263	50.4742	-0.398212	-126033	-1.607733E-7	NaN
553	1.000000	0.823060	7.37046e+06	-49439.1	1005.82	-29758.9	0.000000	0.000000	6.823083	-0.035656	NaN	0.000000	0.001610	0.001690	28.0815	0.051635	0.001861	27.7431	117.794	-167.633	-0.009418	0.821739	-0.387888	-0.389208	-0.035656	27.7431	-0.386924	-86923.8	4.101936E-7	NaN
553	1.000000	0.833060	7.37046e+06	-49439.1	1005.82	-29758.9	0.000000	0.000000	6.833081	-0.078928	NaN	0.000000	0.001619	0.001702	28.0816	0.087141	0.001932	45.1154	23.0736	11.6565	-0.040901	0.831631	-0.377887	-0.379317	-0.078928	45.1154	-0.376575	-61760.5	1.277967E-6	NaN
553	1.000000	0.843075	7.37046e+06	-49439.1	1005.82	-29758.9	0.000000	0.000000	6.843098	-0.027164	NaN	0.000000	0.001606	0.001715	28.0816	0.112257	0.002195	51.1352	-121.191	-167.135	0.001856	0.841726	-0.367873	-0.369221	-0.027164	51.1352	-0.367474	-45680.9	5.946515E-7	NaN
553	1.000000	0.853071	7.37046e+06	-49439.1	1005.82	-29758.9	0.000000	0.000000	6.853092	-0.070722	NaN	0.000000	0.001620	0.001728	28.0816	0.099499	0.002066	48.1709	-89.9026	14.65	-0.072053	0.851743	-0.357877	-0.359205	-0.070722	48.1709	-0.356775	-32004	2.209776E-6	NaN
553	1.000000	0.863054	7.37046e+06	-49439.1	1005.82	-29758.9	0.000000	0.000000	6.863078	-0.010448	NaN	0.000000	0.001672	0.001690	28.0814	0.180599	0.002020	89.4112	158.676	-168.037	0.050843	0.861782	-0.347894	-0.349165	-0.010448	89.4112	-0.347806	-23721.6	4.404524E-7	NaN
553	1.000000	0.873059	7.37046e+06	-49439.1	1005.82	-29758.9	0.000000	0.000000	6.873086	0.051379	NaN	0.000000	0.001640	0.001701	28.0812	0.028788	0.001910	15.0719	23.3453	13.0747	-0.035895	0.871752	-0.337888	-0.339196	0.051379	15.0719	-0.340445	-18536.9	-2.771716E-6	NaN
553	1.000000	0.883079	7.37046e+06	-49439.1	1005.82	-29758.9	0.000000	0.000000	6.883104	0.022857	NaN	0.000000	0.001642	0.001704	28.0815	0.044475	0.002179	20.4099	63.2721	-163.781	0.027222	0.881752	-0.327868	-0.329195	0.022857	20.4099	-0.328708	-12489.1	-1.830193E-6	NaN
553	1.000000	0.893071	7.37046e+06	-49439.1	1005.82	-29758.9	0.000000	0.000000	6.893092	-0.076911	NaN	0.000000	0.001686	0.001767	28.0815	0.100434	0.001845	54.4372	150.706	15.6553	-0.060306	0.891691	-0.317876	-0.319257	-0.076911	54.4372	-0.316817	-8351.17	9.209565E-6	NaN
553	1.000000	0.903062	7.37046e+06	-49439.1	1005.82	-29758.9	0.000000	0.000000	6.903086	-0.014653	NaN	0.000000	0.001639	0.001738	28.0827	0.062971	0.001948	32.3256	-134.589	-165.754	-0.030080	0.901798	-0.307885	-0.309149	-0.014653	32.3256	-0.307545	-6091.22	2.405575E-6	NaN
553	1.000000	0.913071	7.37046e+06	-49439.1	1005.82	-29758.9	0.000000	0.000000	6.913094	-0.061579	NaN	0.000000	0.001639	0.001712	28.0828	0.034663	0.001965	17.643	-68.7629	15.2952	-0.006815	0.911761	-0.297876	-0.299186	-0.061579	17.643	-0.295258	-3998.92	1.539886E-5	NaN
553	1.000000	0.923120	7.37046e+06	-49439.1	1005.82	-29758.9	0.000000	0.000000	6.923145	0.017825	NaN	0.000000	0.001614	0.001696	28.0828	0.181662	0.001872	97.0185	-178.493	-165.009	0.005458	0.921703	-0.287827	-0.289244	0.017825	97.0185	-0.287965	-3110.25	-5.731115E-6	NaN
553	1.000000	0.933067	7.37046e+06	-49439.1	1005.82	-29758.9	0.000000	0.000000	6.933094	0.048018	NaN	0.000000	0.001592	0.001699	28.0827	0.061489	0.002074	29.6536	49.6857	14.5442	0.002670	0.931753	-0.277880	-0.279194	0.048018	29.6536	-0.279094	-2287.19	-2.099443E-5	NaN
553	1.000000	0.943102	7.37046e+06	-49439.1	1005.82	-29758.9	0.000000	0.000000	6.943126	-0.015961	NaN	0.000000	0.001572	0.001709	28.083	0.132965	0.002020	65.8349	-165.813	-163.836	0.004297	0.941803	-0.267846	-0.269144	-0.015961	65.8349	-0.267664	-1534.62	1.040072E-5	NaN
553	1.000000	0.953098	7.37046e+06	-49439.1	1005.82	-29758.9	0.000000	0.000000	6.953124	0.017388	NaN	0.000000	0.001612	0.001714	28.0828	0.072465	0.001934	37.4613	-147.552	15.4043	-0.015150	0.951749	-0.257849	-0.259199	0.017388	37.4613	-0.258197	-1099.67	-1.581216E-5	NaN
553	1.000000	0.963095	7.37046e+06	-49439.1	1005.82	-29758.9	0.000000	0.000000	6.963119	-0.025908	NaN	0.000000	0.001594	0.001673	28.0829	0.049672	0.001953	25.428	11.9046	-163.581	0.011320	0.961789	-0.247852	-0.249158	-0.025908	25.428	-0.247088	-741.077	3.496006E-5	NaN
553	1.000000	0.973086	7.37046e+06	-49439.1	1005.82	-29758.9	0.000000	0.000000	6.973114	0.081197	NaN	0.000000	0.001594	0.001659	28.0826	0.030136	0.002077	14.5079	24.054	14.1482	0.170492	0.971758	-0.237861	-0.239189	0.081197	14.5079	-0.242059	-618.982	-0.000131	NaN
553	1.000000	0.983105	7.37046e+06	-49439.1	1005.82	-29758.9	0.000000	0.000000	6.983126	-0.086698	NaN	0.000000	0.001581	0.001684	28.083	0.052497	0.001922	27.3148	74.3331	-165.699	-0.039052	0.981810	-0.227842	-0.229137	-0.086698	27.3148	-0.225462	-339.364	0.000255	NaN
553	1.000000	0.993106	7.37046e+06	-49439.1	1005.82	-29758.9	0.000000	0.000000	6.993130	-0.011915	NaN	0.000000	0.001598	0.001677	28.0828	0.024379	0.002020	12.0698	-147.767	16.1275	-0.025090	0.991803	-0.217841	-0.219145	-0.011915	12.0698	-0.217101	-249.609	4.773624E-5	NaN
553	1.000000	1.003111	7.37046e+06	-49439.1	1005.82	-29758.9	0.000000	0.000000	7.003134	-0.055138	NaN	0.000000	0.001604	0.001703	28.083	0.021211	0.002083	10.1848	-151.61	-164.571	-0.066093	1.001803	-0.207836	-0.209144	-0.055138	10.1848	-0.203776	-151.904	0.000363	NaN
553	1.000000	1.013129	7.37046e+06	-49439.1	1005.82	-29758.9	0.000000	0.000000	7.013152	-0.029114	NaN	0.000000	0.001564	0.001685	28.0827	0.067400	0.001865	36.1391	-9.194625	15.0163	-0.058523	1.011774	-0.197819	-0.199173	-0.029114	36.1391	-0.197214	-118.527	0.000246	NaN
553	1.000000	1.023136	7.37046e+06	-49439.1	1005.82	-29758.9	0.000000	0.000000	7.023158	-0.058536	NaN	0.000000	0.001578	0.001682	28.0832	0.032811	0.001890	17.3594	-123.77	-162.721	-0.016754	1.021846	-0.187811	-0.189101	-0.058536	17.3594	-0.185282	-74.9697	0.000781	NaN
553	1.000000	1.033126	7.37046e+06	-49439.1	1005.82	-29758.9	0.000000	0.000000	7.033148	-0.061303	NaN	0.000000	0.001553	0.001697	28.0815	0.069827	0.002045	34.1507	-63.9886	12.5498	0.000363	1.031736	-0.177821	-0.179211	-0.061303	34.1507	-0.176475	-53.1233	0.001154	NaN
553	1.000000	1.043138	7.37046e+06	-49439.1	1005.82	-29758.9	0.000000	0.000000	7.043161	-0.042979	NaN	0.000000	0.001558	0.001726	28.0816	0.035580	0.001939	18.3453	40.2302	-170.032	-0.021440	1.041835	-0.167809	-0.169112	-0.042979	18.3453	-0.166052	-35.0554	0.001226	NaN
553	1.000000	1.053137	7.37046e+06	-49439.1	1005.82	-29758.9	0.000000	0.000000	7.053163	0.010840	NaN	0.000000	0.001584	0.001725	28.0815	0.088690	0.001903	46.5978	-132.571	16.3649	-0.044961	1.051745	-0.157810	-0.159202	0.010840	46.5978	-0.157984	-25.2393	-0.000430	NaN
553	1.000000	1.063162	7.37046e+06	-49439.1	1005.82	-29758.9	0.000000	0.000000	7.063185	-0.019340	NaN	0.000000	0.001607	0.001745	28.0817	0.111147	0.002048	54.2761	50.9113	-168.169	0.007563	1.061835	-0.147786	-0.149112	-0.019340	54.2761	-0.147518	-16.315	0.001185	NaN
553	1.000000	1.073157	7.37046e+06	-49439.1	1005.82	-29758.9	0.000000	0.000000	7.073180	-0.040867	NaN	0.000000	0.001591	0.001718	28.0815	0.097281	0.002102	46.2821	143.05	12.7328	-0.036126	1.071782	-0.137790	-0.139165	-0.040867	46.2821	-0.137128	-10.4417	0.003914	NaN
553	1.000000	1.083168	7.37046e+06	-49439.1	1005.82	-29758.9	0.000000	0.000000	7.083189	-0.076097	NaN	0.000000	0.001585	0.001737	28.0816	0.098693	0.002110	46.7683	-141.2	-168.936	0.004758	1.081849	-0.127780	-0.129098	-0.076097	46.7683	-0.126559	-6.527632	0.011658	NaN
553	1.000000	1.093157	7.37046e+06	-49439.1	1005.82	-29758.9	0.000000	0.000000	7.093183	0.019467	NaN	0.000000	0.001601	0.001722	28.0817	0.076706	0.001964	39.0482	-68.0716	13.7002	0.017959	1.091780	-0.117790	-0.119167	0.019467	39.0482	-0.118164	-4.434897	-0.004389	NaN
553	1.000000	1.103136	7.37046e+06	-49439.1	1005.82	-29758.9	0.000000	0.000000	7.103160	-0.010940	NaN	0.000000	0.001597	0.001716	28.0818	0.097008	0.002002	48.4562	-138.527	-167.499	-0.098117	1.101823	-0.107812	-0.109124	-0.010940	48.4562	-0.107642	-2.678429	0.004085	NaN
553	1.000000	1.113148	7.37046e+06	-49439.1	1005.82	-29758.9	0.000000	0.000000	7.113174	0.027439	NaN	0.000000	0.001593	0.001733	28.0817	0.014640	0.002041	7.171576	107.558	15.9664	0.076943	1.111862	-0.097799	-0.099085	0.027439	7.171576	-0.100669	-1.890473	-0.014515	NaN
553	1.000000	1.123155	7.37046e+06	-49439.1	1005.82	-29758.9	0.000000	0.000000	7.123179	-0.027740	NaN	0.000000	0.001594	0.001698	28.0817	0.077312	0.001975	39.1478	122.884	-168.538	-0.061784	1.121875	-0.087792	-0.089072	-0.027740	39.1478	-0.087261	-0.931119	0.029792	NaN
553	1.000000	1.133157	7.37046e+06	-49439.1	1005.82	-29758.9	0.000000	0.000000	7.133179	-0.061477	NaN	0.000000	0.001557	0.001718	28.082	0.067156	0.002103	31.9386	-36.0152	12.2868	-0.074591	1.131762	-0.077791	-0.079186	-0.061477	31.9386	-0.076347	-0.500273	0.122888	NaN
553	1.000000	1.143190	7.37046e+06	-49439.1	1005.82	-29758.9	0.000000	0.000000	7.143217	0.060066	NaN	0.000000	0.001600	0.001699	28.0818	0.141973	0.001965	72.2687	-119.109	-168.418	0.109692	1.141848	-0.067757	-0.069099	0.060066	72.2687	-0.068380	-0.308501	-0.194702	NaN
553	1.000000	1.153169	7.37046e+06	-49439.1	1005.82	-29758.9	0.000000	0.000000	7.153191	-0.071812	NaN	0.000000	0.001593	0.001730	28.0818	0.074345	0.002045	36.3497	-58.0819	14.5831	-0.162201	1.151823	-0.057778	-0.059124	-0.071812	36.3497	-0.056297	-0.140614	0.510700	NaN
553	1.000000	1.163182	7.37046e+06	-49439.1	1005.82	-29758.9	0.000000	0.000000	7.163204	-0.050225	NaN	0.000000	0.001616	0.001716	28.0818	0.091414	0.002022	45.2085	91.0052	-169.44	-0.078719	1.161870	-0.047765	-0.049077	-0.050225	45.2085	-0.046932	-0.073624	0.682186	NaN
553	1.000000	1.173160	7.37046e+06	-49439.1	1005.82	-29758.9	0.000000	0.000000	7.173183	-0.030000	NaN	0.000000	0.001579	0.001715	28.083	0.187086	0.002024	92.437	-105.53	13.7991	0.004389	1.171877	-0.037787	-0.039071	-0.030000	92.437	-0.037544	-0.038120	0.786981	NaN
553	1.000000	1.183194	7.37046e+06	-49439.1	1005.82	-29758.9	0.000000	0.000000	7.183218	-0.026481	NaN	0.000000	0.001606	0.001682	28.0829	0.043775	0.002050	21.353	-47.3852	-165.405	0.045842	1.181921	-0.027753	-0.029026	-0.026481	21.353	-0.026823	-0.018848	1.404963	NaN
553	1.000000	1.193220	7.37046e+06	-49439.1	1005.82	-29758.9	0.000000	0.000000	7.193244	-0.023133	NaN	0.000000	0.001596	0.001682	28.0828	0.105109	0.002056	51.1312	-32.8242	14.3993	0.090268	1.191876	-0.017727	-0.019072	-0.023133	51.1312	-0.017388	-0.010760	2.149860	NaN
553	1.000000	1.203205	7.37046e+06	-49439.1	1005.82	-29758.9	0.000000	0.000000	7.203228	-0.038064	NaN	0.000000	0.001609	0.001729	28.0832	0.018347	0.002025	9.058624	176.979	-168.695	-0.018472	1.201909	-0.007742	-0.009038	-0.038064	9.058624	-0.004590	-0.003158	12.054	NaN
553	1.000000	1.213176	7.37046e+06	-49439.1	1005.82	-29758.9	0.000000	0.000000	7.213384	4.467199	NaN	0.000000	0.001593	0.001712	28.0828	4.000110	0.001823	2194.73	11.6599	10.1903	3.219715	1.211809	0.002228	0.000862	4.467199	2194.73	0.000702	0.000532	8402.01	86961.7
553	2.000000	1.219801	7.37046e+06	-49439.1	1005.82	-29758.9	0.000000	0.000000	7.220252	10.3693	NaN	0.000000	0.001597	0.001716	28.0833	8.699733	0.001510	5763.31	5.799841	-174.757	9.920851	1.219557	0.008854	0.008610	10.3693	5763.31	0.007504	0.006537	1586.15	65124.5
553	2.000000	1.222293	7.37046e+06	-49439.1	1005.82	-29758.9	0.000000	0.000000	7.222913	14.485	NaN	0.000000	0.001623	0.001725	28.0833	12.0612	0.001822	6619.3	8.178003	4.254083	14.0287	1.221945	0.011346	0.010998	14.485	6619.3	0.009704	0.008855	1635.82	64267.8
553	2.000000	1.224719	7.37046e+06	-49439.1	1005.82	-29758.9	0.000000	0.000000	7.225468	17.6155	NaN	0.000000	0.001632	0.001678	28.0831	14.3443	0.001740	8243.41	0.062498	-169.949	16.0892	1.224470	0.013771	0.013522	17.6155	8243.41	0.012169	0.011693	1506.54	69650.3
553	2.000000	1.227255	7.37046e+06	-49439.1	1005.82	-29758.9	0.000000	0.000000	7.228229	23.0821	NaN	0.000000	0.001595	0.001720	28.0832	16.8629	0.001800	9369.37	4.588950	5.036863	22.4744	1.226871	0.016308	0.015924	23.0821	9369.37	0.014460	0.014572	1584.02	70913
553	2.000000	1.229739	7.37046e+06	-49439.1	1005.82	-29758.9	0.000000	0.000000	7.230939	28.5934	NaN	0.000000	0.001631	0.001730	28.0829	19.2184	0.001794	10715	4.749752	-175.937	28.4412	1.229391	0.018792	0.018444	28.5934	10715	0.016790	0.017747	1611.15	73485.5
553	2.000000	1.232246	7.37046e+06	-49439.1	1005.82	-29758.9	0.000000	0.000000	7.233645	33.427	NaN	0.000000	0.001614	0.001755	28.0833	21.0044	0.001813	11585.2	4.371406	4.234574	32.7358	1.231877	0.021299	0.020930	33.427	11585.2	0.019135	0.021201	1576.69	72694.5
553	2.000000	1.234689	7.37046e+06	-49439.1	1005.82	-29758.9	0.000000	0.000000	7.236170	35.4402	NaN	0.000000	0.001655	0.001722	28.0829	23.2853	0.001815	12829.5	2.436906	-175.817	34.6853	1.234431	0.023741	0.023484	35.4402	12829.5	0.021670	0.025234	1404.47	73788.8
553	2.000000	1.237247	7.37046e+06	-49439.1	1005.82	-29758.9	0.000000	0.000000	7.239143	45.5237	NaN	0.000000	0.001582	0.001711	28.0835	25.3693	0.001747	14521.5	9.224666	-3.831415	43.8223	1.236812	0.026300	0.025865	45.5237	14521.5	0.023948	0.029130	1562.76	77734.2
553	2.000000	1.239669	7.37046e+06	-49439.1	1005.82	-29758.9	0.000000	0.000000	7.241720	49.2824	NaN	0.000000	0.001587	0.001691	28.0828	27.6119	0.001793	15398	6.059093	178.848	47.8552	1.239406	0.028722	0.028459	49.2824	15398	0.026321	0.033463	1472.72	76904.6
553	2.000000	1.242245	7.37046e+06	-49439.1	1005.82	-29758.9	0.000000	0.000000	7.244512	54.5242	NaN	0.000000	0.001608	0.001711	28.0823	31.2817	0.001905	16421.6	6.490998	-1.618225	55.7469	1.241777	0.031298	0.030830	54.5242	16421.6	0.028808	0.038308	1423.3	76655.3
553	2.000000	1.244694	7.37046e+06	-49439.1	1005.82	-29758.9	0.000000	0.000000	7.247293	62.5952	NaN	0.000000	0.001606	0.001734	28.0817	32.935	0.001812	18179.4	7.102570	176.638	62.8332	1.244402	0.033747	0.033455	62.5952	18179.4	0.031165	0.043192	1449.22	79918.9
553	2.000000	1.247189	7.37046e+06	-49439.1	1005.82	-29758.9	0.000000	0.000000	7.250089	69.9246	NaN	0.000000	0.001634	0.001742	28.082	33.8343	0.001807	18724.4	5.121887	-0.104707	68.0014	1.246796	0.036242	0.035849	69.9246	18724.4	0.033441	0.048179	1451.35	77938.5
553	2.000000	1.249756	7.37046e+06	-49439.1	1005.82	-29758.9	0.000000	0.000000	7.252728	71.6851	NaN	0.000000	0.001622	0.001671	28.0821	37.0145	0.001737	21311	4.676616	177.606	76.0346	1.249409	0.038809	0.038461	71.6851	21311	0.036286	0.054783	1308.53	83186.8
553	2.000000	1.252181	7.37046e+06	-49439.1	1005.82	-29758.9	0.000000	0.000000	7.255579	82.0342	NaN	0.000000	0.001590	0.001682	28.0821	39.2313	0.001801	21783.3	5.195560	-2.535950	81.25	1.251735	0.041234	0.040788	82.0342	21783.3	0.038410	0.059983	1367.62	81260.9
553	2.000000	1.254665	7.37046e+06	-49439.1	1005.82	-29758.9	0.000000	0.000000	7.258578	94.5647	NaN	0.000000	0.001599	0.001693	28.0816	41.6467	0.001785	23337.1	2.144788	178.433	92.6808	1.254349	0.043718	0.043402	94.5647	23337.1	0.040679	0.065795	1437.26	83123.3
553	2.000000	1.257203	7.37046e+06	-49439.1	1005.82	-29758.9	0.000000	0.000000	7.261418	101.917	NaN	0.000000	0.001615	0.001686	28.0822	43.0922	0.001724	25001.3	2.975343	-2.367398	101.928	1.256825	0.046255	0.045878	101.917	25001.3	0.043198	0.072554	1404.7	84801.7
553	2.000000	1.259712	7.37046e+06	-49439.1	1005.82	-29758.9	0.000000	0.000000	7.264273	110.31	NaN	0.000000	0.001592	0.001726	28.0819	44.7144	0.001796	24890.9	6.202320	176.647	112.558	1.259262	0.048765	0.048315	110.31	24890.9	0.045441	0.078845	1399.07	80989
553	2.000000	1.262200	7.37046e+06	-49439.1	1005.82	-29758.9	0.000000	0.000000	7.267136	119.448	NaN	0.000000	0.001565	0.001718	28.082	46.8281	0.001698	27584.2	4.795311	-5.597553	118.535	1.261825	0.051253	0.050878	119.448	27584.2	0.048005	0.086346	1383.35	85765.2
553	2.000000	1.264691	7.37046e+06	-49439.1	1005.82	-29758.9	0.000000	0.000000	7.269902	126.127	NaN	0.000000	0.001601	0.001727	28.0814	50.7082	0.001774	28591	2.249482	176.752	126.632	1.264490	0.053744	0.053542	126.127	28591	0.050435	0.093763	1345.18	85307.5
553	2.000000	1.267232	7.37046e+06	-49439.1	1005.82	-29758.9	0.000000	0.000000	7.272694	132.235	NaN	0.000000	0.001623	0.001719	28.0823	52.2327	0.001733	30145.1	2.995669	-3.836898	133.022	1.266911	0.056284	0.055964	132.235	30145.1	0.052994	0.101893	1297.78	86281.5
553	2.000000	1.269637	7.37046e+06	-49439.1	1005.82	-29758.9	0.000000	0.000000	7.275937	152.613	NaN	0.000000	0.001591	0.001722	28.0817	55.7961	0.001777	31396.2	7.852534	169.911	151.135	1.269300	0.058690	0.058353	152.613	31396.2	0.055044	0.108639	1404.77	87027.8
553	2.000000	1.272127	7.37046e+06	-49439.1	1005.82	-29758.9	0.000000	0.000000	7.278770	160.958	NaN	0.000000	0.001558	0.001712	28.0819	58.9114	0.001894	31098.4	6.261180	-6.768249	157.148	1.271786	0.061180	0.060839	160.958	31098.4	0.057298	0.116297	1384.03	83315.8
553	2.000000	1.274699	7.37046e+06	-49439.1	1005.82	-29758.9	0.000000	0.000000	7.281805	172.221	NaN	0.000000	0.001578	0.001716	28.0827	61.6936	0.001865	33078	7.835162	170.49	174.217	1.274288	0.063752	0.063341	172.221	33078	0.059847	0.125259	1374.92	85390
553	2.000000	1.277199	7.37046e+06	-49439.1	1005.82	-29758.9	0.000000	0.000000	7.284814	184.58	NaN	0.000000	0.001616	0.001705	28.0831	61.8017	0.001781	34706	1.528151	-3.279306	183.561	1.276838	0.066252	0.065890	184.58	34706	0.062263	0.134049	1376.96	86605.6
553	2.000000	1.279676	7.37046e+06	-49439.1	1005.82	-29758.9	0.000000	0.000000	7.287947	200.555	NaN	0.000000	0.001562	0.001742	28.0826	64.4787	0.001923	33525.6	5.992498	173.876	200.13	1.279170	0.068729	0.068222	200.555	33525.6	0.064242	0.141458	1417.77	81439.7
553	2.000000	1.282098	7.37046e+06	-49439.1	1005.82	-29758.9	0.000000	0.000000	7.290623	206.72	NaN	0.000000	0.001560	0.001719	28.0825	66.6933	0.001791	37230.4	2.354620	-5.042037	203.693	1.281902	0.071151	0.070955	206.72	37230.4	0.066986	0.152046	1359.59	87233.7
553	2.000000	1.284586	7.37046e+06	-49439.1	1005.82	-29758.9	0.000000	0.000000	7.293875	225.311	NaN	0.000000	0.001545	0.001733	28.0827	69.3875	0.001726	40190.2	1.232224	175.398	221.626	1.284373	0.073639	0.073425	225.311	40190.2	0.069434	0.161793	1392.59	91288
553	2.000000	1.287065	7.37046e+06	-49439.1	1005.82	-29758.9	0.000000	0.000000	7.296962	240.104	NaN	0.000000	0.001611	0.001711	28.0833	72.2627	0.001776	40680.8	9.158065	-12.5606	234.338	1.286795	0.076117	0.075848	240.104	40680.8	0.071691	0.171034	1403.84	89871.3
553	2.000000	1.289542	7.37046e+06	-49439.1	1005.82	-29758.9	0.000000	0.000000	7.300127	256.823	NaN	0.000000	0.001598	0.001717	28.0826	73.1564	0.001688	43347.8	2.620263	173.596	250.619	1.289219	0.078595	0.078272	256.823	43347.8	0.074152	0.181385	1415.9	92990.6
553	2.000000	1.292029	7.37046e+06	-49439.1	1005.82	-29758.9	0.000000	0.000000	7.302948	264.953	NaN	0.000000	0.001608	0.001733	28.0828	76.3074	0.001691	45124.7	3.174104	-7.122307	258.132	1.291725	0.081081	0.080778	264.953	45124.7	0.076678	0.192308	1377.75	94013.2
553	2.000000	1.294658	7.37047e+06	-49439.1	1005.82	-29758.9	0.000000	0.000000	7.306387	284.638	NaN	0.000000	0.001574	0.001720	28.0827	80.8634	0.001904	42471	7.117103	170.492	285.524	1.294271	0.083711	0.083324	284.638	42471	0.078684	0.201198	1414.71	86507.5
553	2.000000	1.297017	7.37047e+06	-49439.1	1005.82	-29758.9	0.000000	0.000000	7.309428	301.239	NaN	0.000000	0.001555	0.001731	28.0833	82.0273	0.001961	41822.4	6.765835	-9.207698	293.249	1.296704	0.086070	0.085756	301.239	41822.4	0.080668	0.210169	1433.32	83348.5
553	2.000000	1.299560	7.37047e+06	-49439.1	1005.82	-29758.9	0.000000	0.000000	7.312515	314.45	NaN	0.000000	0.001556	0.001745	28.0826	84.0915	0.001889	44505.4	4.386419	172.619	310.06	1.299230	0.088613	0.088283	314.45	44505.4	0.083314	0.222424	1413.74	86217.4
553	2.000000	1.302090	7.37047e+06	-49439.1	1005.82	-29758.9	0.000000	0.000000	7.315832	333.594	NaN	0.000000	0.001552	0.001749	28.0827	87.1466	0.001830	47623.8	6.168610	-10.427	330.523	1.301757	0.091143	0.090809	333.594	47623.8	0.085889	0.234662	1421.6	89820.5
553	2.000000	1.304525	7.37047e+06	-49439.1	1005.82	-29758.9	0.000000	0.000000	7.319249	357.503	NaN	0.000000	0.001564	0.001694	28.0827	88.6752	0.001736	51091.6	3.298645	172.084	353.403	1.304347	0.093578	0.093400	357.503	51091.6	0.088330	0.246540	1450.08	94010.9
553	2.000000	1.307114	7.37047e+06	-49439.1	1005.82	-29758.9	0.000000	0.000000	7.322353	369.997	NaN	0.000000	0.001569	0.001689	28.083	90.5688	0.001742	51999	5.488529	-9.641697	366.577	1.306739	0.096167	0.095792	369.997	51999	0.090831	0.258998	1428.57	93351.1
553	2.000000	1.309600	7.37047e+06	-49439.1	1005.82	-29758.9	0.000000	0.000000	7.325382	383.214	NaN	0.000000	0.001565	0.001729	28.0815	92.3687	0.001756	52593.8	3.587898	171.088	380.742	1.309407	0.098653	0.098460	383.214	52593.8	0.093188	0.271005	1414.05	92303.7
553	2.000000	1.312086	7.37047e+06	-49439.1	1005.82	-29758.9	0.000000	0.000000	7.328574	400.396	NaN	0.000000	0.001522	0.001738	28.0821	95.4693	0.001775	53797.2	3.628261	-9.158356	396.355	1.311835	0.101139	0.100888	400.396	53797.2	0.095557	0.283322	1413.22	92340.5
553	2.000000	1.314620	7.37047e+06	-49439.1	1005.82	-29758.9	0.000000	0.000000	7.332058	423.475	NaN	0.000000	0.001571	0.001753	28.0818	99.1998	0.001866	53149.4	6.074523	169.278	425.171	1.314177	0.103673	0.103230	423.475	53149.4	0.097697	0.294675	1437.1	89454.1
553	2.000000	1.317122	7.37047e+06	-49439.1	1005.82	-29758.9	0.000000	0.000000	7.335479	445.838	NaN	0.000000	0.001583	0.001741	28.0815	100.897	0.001764	57210.5	8.011611	-13.5769	445.363	1.316754	0.106175	0.105806	445.838	57210.5	0.100330	0.308924	1443.2	94042.3