File: remote_trans/data/nanoindenter/0828-1/data/Data_2025-08-06,11h17m57s/2025-07-22_16-23-58_1_558.txt
2025-07-22, 16:23:58, 1
Index	Phase	Displacement	Time	Pos X	Pos Y	Pos Z	Rot A	Rot B	Piezo Z	Force A	Force B	Gripper	Voltage A	Voltage B	Temperature	Amplitude force	Amplitude pos	Stiffness	Phase shift	Phase excitation	Force A raw	Displacement raw	HMax	HMax raw	Real Force	Real Stiffness	Contact Depth	Area	Hardness	Reduced Mod.
[#]	[#]	[um]	[s]	[um]	[um]	[um]	[m°]	[m°]	[um]	[uN]	[uN]	[V]	[V]	[V]	[°C]	[uN]	[um]	[N/m]	[°]	[°]	[uN]	[um]	[um]	[um]	[uN]	[N/m]	[um]	[um^2]	[MPa]	[MPa]
558	1.000000	0.003180	7.37051e+06	-49189.1	1005.82	-29759.8	0.000000	0.000000	6.002793	0.027795	NaN	0.000000	0.001651	0.001710	28.0806	0.087171	0.000962	90.6167	-100.407	-167.588	0.045375	0.001970	-1.117540	-1.118750	0.027795	90.6167	-1.117770	-8.680774E+14	-3.201866E-17	NaN
558	1.000000	0.013257	7.37051e+06	-49189.1	1005.82	-29759.8	0.000000	0.000000	6.012866	-0.074821	NaN	0.000000	0.001650	0.001713	28.0806	0.068042	0.001249	54.467	-93.8163	14.7758	-0.000474	0.011825	-1.107463	-1.108895	-0.074821	54.467	-1.106433	-6.115238E+14	1.223525E-16	NaN
558	1.000000	0.023126	7.37051e+06	-49189.1	1005.82	-29759.8	0.000000	0.000000	6.022737	-0.022290	NaN	0.000000	0.001634	0.001672	28.0819	0.050117	0.001738	28.8288	121.252	-162.317	-0.007547	0.021799	-1.097594	-1.098921	-0.022290	28.8288	-1.097014	-4.570741E+14	4.876608E-17	NaN
558	1.000000	0.033163	7.37051e+06	-49189.1	1005.82	-29759.8	0.000000	0.000000	6.032778	0.067840	NaN	0.000000	0.001665	0.001699	28.082	0.115019	0.001896	60.6507	168.73	15.982	0.086080	0.031825	-1.087557	-1.088895	0.067840	60.6507	-1.088396	-3.501615E+14	-1.937384E-16	NaN
558	1.000000	0.043127	7.37051e+06	-49189.1	1005.82	-29759.8	0.000000	0.000000	6.042740	0.020477	NaN	0.000000	0.001629	0.001692	28.0819	0.054757	0.002039	26.8533	168.078	-166.653	0.040932	0.041801	-1.077593	-1.078919	0.020477	26.8533	-1.078165	-2.551959E+14	-8.024048E-17	NaN
558	1.000000	0.053154	7.37051e+06	-49189.1	1005.82	-29759.8	0.000000	0.000000	6.052765	-0.014526	NaN	0.000000	0.001618	0.001658	28.0818	0.067528	0.001898	35.5831	-121.094	15.5564	-0.012209	0.051756	-1.067566	-1.068964	-0.014526	35.5831	-1.067260	-1.821294E+14	7.975692E-17	NaN
558	1.000000	0.063095	7.37051e+06	-49189.1	1005.82	-29759.8	0.000000	0.000000	6.062708	0.015697	NaN	0.000000	0.001607	0.001651	28.0819	0.028839	0.001893	15.2357	144.396	-163.637	-0.021760	0.061830	-1.057625	-1.058890	0.015697	15.2357	-1.058397	-1.384465E+14	-1.133777E-16	NaN
558	1.000000	0.073166	7.37051e+06	-49189.1	1005.82	-29759.8	0.000000	0.000000	6.072778	-0.011776	NaN	0.000000	0.001594	0.001671	28.0814	0.041862	0.001974	21.2101	138.358	17.1191	0.032694	0.071799	-1.047554	-1.048921	-0.011776	21.2101	-1.047137	-9.770753E+13	1.205201E-16	NaN
558	1.000000	0.083142	7.37051e+06	-49189.1	1005.82	-29759.8	0.000000	0.000000	6.082752	-0.043376	NaN	0.000000	0.001559	0.001685	28.0815	0.082450	0.001935	42.608	87.7311	-165.356	-0.076248	0.081818	-1.037578	-1.038902	-0.043376	42.608	-1.036814	-7.097888E+13	6.111066E-16	NaN
558	1.000000	0.093170	7.37051e+06	-49189.1	1005.82	-29759.8	0.000000	0.000000	6.092781	-0.021714	NaN	0.000000	0.001594	0.001680	28.0812	0.074702	0.002024	36.9039	-105.616	13.8793	-0.076715	0.091793	-1.027550	-1.028927	-0.021714	36.9039	-1.027109	-5.255250E+13	4.131892E-16	NaN
558	1.000000	0.103185	7.37051e+06	-49189.1	1005.82	-29759.8	0.000000	0.000000	6.102798	0.015386	NaN	0.000000	0.001547	0.001729	28.0813	0.033262	0.002076	16.0195	-27.7243	-165.863	0.081835	0.101830	-1.017535	-1.018890	0.015386	16.0195	-1.018256	-3.994661E+13	-3.851673E-16	NaN
558	1.000000	0.113134	7.37051e+06	-49189.1	1005.82	-29759.8	0.000000	0.000000	6.112747	0.023717	NaN	0.000000	0.001552	0.001696	28.0815	0.024012	0.002126	11.2918	128.222	11.6939	0.076438	0.111734	-1.007586	-1.008986	0.023717	11.2918	-1.009161	-3.013624E+13	-7.870068E-16	NaN
558	1.000000	0.123151	7.37051e+06	-49189.1	1005.82	-29759.8	0.000000	0.000000	6.122760	-0.082892	NaN	0.000000	0.001559	0.001721	28.0814	0.032387	0.002014	16.0848	5.056975	-163.151	-0.004314	0.121795	-0.997569	-0.998925	-0.082892	16.0848	-0.993704	-1.866338E+13	4.441441E-15	NaN
558	1.000000	0.133166	7.37051e+06	-49189.1	1005.82	-29759.8	0.000000	0.000000	6.132778	-0.011651	NaN	0.000000	0.001552	0.001696	28.0812	0.047234	0.001949	24.238	105.058	14.6949	0.017677	0.131836	-0.987554	-0.988884	-0.011651	24.238	-0.987193	-1.525145E+13	7.639305E-16	NaN
558	1.000000	0.143170	7.37051e+06	-49189.1	1005.82	-29759.8	0.000000	0.000000	6.142780	-0.052832	NaN	0.000000	0.001589	0.001687	28.0813	0.103257	0.002000	51.6226	-109.429	-168.58	-0.022391	0.141847	-0.977550	-0.978873	-0.052832	51.6226	-0.976782	-1.104218E+13	4.784577E-15	NaN
558	1.000000	0.153187	7.37051e+06	-49189.1	1005.82	-29759.8	0.000000	0.000000	6.152799	0.014203	NaN	0.000000	0.001495	0.001722	28.0815	0.087675	0.002152	40.7468	-33.6782	15.8807	-0.018844	0.151810	-0.967533	-0.968910	0.014203	40.7468	-0.967795	-8.354935E+12	-1.699941E-15	NaN
558	1.000000	0.163179	7.37051e+06	-49189.1	1005.82	-29759.8	0.000000	0.000000	6.162792	0.002452	NaN	0.000000	0.001498	0.001719	28.0802	0.017284	0.001924	8.983129	-169.678	-166.824	0.054083	0.161866	-0.957541	-0.958854	0.002452	8.983129	-0.957745	-6.116057E+12	-4.008874E-16	NaN
558	1.000000	0.173200	7.37051e+06	-49189.1	1005.82	-29759.8	0.000000	0.000000	6.172813	0.023086	NaN	0.000000	0.001547	0.001699	28.0801	0.139014	0.001905	72.9883	-111.427	13.3489	-0.019830	0.171807	-0.947520	-0.948913	0.023086	72.9883	-0.947758	-4.485233E+12	-5.147223E-15	NaN
558	1.000000	0.183195	7.37051e+06	-49189.1	1005.82	-29759.8	0.000000	0.000000	6.182810	0.062566	NaN	0.000000	0.001601	0.001690	28.0801	0.071835	0.002100	34.2058	95.2929	-162.688	0.041088	0.181848	-0.937525	-0.938872	0.062566	34.2058	-0.938897	-3.406075E+12	-1.836894E-14	NaN
558	1.000000	0.193196	7.37051e+06	-49189.1	1005.82	-29759.8	0.000000	0.000000	6.192811	0.060380	NaN	0.000000	0.001616	0.001675	28.0799	0.079028	0.001870	42.2539	31.4259	16.0911	0.004345	0.191857	-0.927524	-0.928863	0.060380	42.2539	-0.928596	-2.473118E+12	-2.441436E-14	NaN
558	1.000000	0.203211	7.37051e+06	-49189.1	1005.82	-29759.8	0.000000	0.000000	6.202824	0.036637	NaN	0.000000	0.001589	0.001720	28.0798	0.142867	0.002125	67.2437	-150.579	-163.452	-0.023233	0.201887	-0.917509	-0.918833	0.036637	67.2437	-0.917918	-1.774577E+12	-2.064555E-14	NaN
558	1.000000	0.213194	7.37051e+06	-49189.1	1005.82	-29759.8	0.000000	0.000000	6.212808	0.027510	NaN	0.000000	0.001588	0.001685	28.0801	0.071466	0.002043	34.9893	56.2622	14.986	0.004279	0.211799	-0.907526	-0.908921	0.027510	34.9893	-0.908115	-1.308297E+12	-2.102700E-14	NaN
558	1.000000	0.223238	7.37051e+06	-49189.1	1005.82	-29759.8	0.000000	0.000000	6.222850	-0.013487	NaN	0.000000	0.001556	0.001721	28.0804	0.051816	0.001928	26.8691	-102.06	-162.438	0.027425	0.221918	-0.897482	-0.898802	-0.013487	26.8691	-0.897105	-9.288569E+11	1.452032E-14	NaN
558	1.000000	0.233225	7.37051e+06	-49189.1	1005.82	-29759.8	0.000000	0.000000	6.232832	-0.136717	NaN	0.000000	0.001619	0.001699	28.08	0.005436	0.002095	2.595078	162.239	12.0978	-0.082266	0.231848	-0.887495	-0.888872	-0.136717	2.595078	-0.847982	-2.011003E+11	6.798439E-13	NaN
558	1.000000	0.243208	7.37051e+06	-49189.1	1005.82	-29759.8	0.000000	0.000000	6.242822	0.047045	NaN	0.000000	0.001620	0.001653	28.0801	0.012972	0.002001	6.483424	-83.8479	-165.422	0.076836	0.241881	-0.877512	-0.878839	0.047045	6.483424	-0.882954	-5.979349E+11	-7.867988E-14	NaN
558	1.000000	0.253213	7.37051e+06	-49189.1	1005.82	-29759.8	0.000000	0.000000	6.252828	0.072291	NaN	0.000000	0.001625	0.001665	28.0802	0.042916	0.002033	21.1052	80.2267	13.7448	0.031330	0.251850	-0.867507	-0.868870	0.072291	21.1052	-0.870076	-4.003774E+11	-1.805565E-13	NaN
558	1.000000	0.263210	7.37051e+06	-49189.1	1005.82	-29759.8	0.000000	0.000000	6.262823	0.034053	NaN	0.000000	0.001636	0.001710	28.0805	0.118829	0.001888	62.9545	-19.2015	-165.364	0.057252	0.261910	-0.857510	-0.858810	0.034053	62.9545	-0.857916	-2.741001E+11	-1.242342E-13	NaN
558	1.000000	0.273230	7.37051e+06	-49189.1	1005.82	-29759.8	0.000000	0.000000	6.272840	-0.043752	NaN	0.000000	0.001601	0.001697	28.0802	0.097576	0.001985	49.1545	-113.109	13.7144	-0.067659	0.271851	-0.847490	-0.848869	-0.043752	49.1545	-0.846823	-1.939585E+11	2.255759E-13	NaN
558	1.000000	0.283241	7.37051e+06	-49189.1	1005.82	-29759.8	0.000000	0.000000	6.282854	0.023497	NaN	0.000000	0.001620	0.001703	28.0802	0.059042	0.001943	30.3946	95.261	-164.638	0.043446	0.281898	-0.837479	-0.838822	0.023497	30.3946	-0.838059	-1.475696E+11	-1.592259E-13	NaN
558	1.000000	0.293251	7.37051e+06	-49189.1	1005.82	-29759.8	0.000000	0.000000	6.292864	0.027002	NaN	0.000000	0.001593	0.001742	28.0813	0.024128	0.001975	12.217	39.6131	14.807	0.006761	0.291902	-0.827469	-0.828818	0.027002	12.217	-0.829127	-1.116738E+11	-2.417926E-13	NaN
558	1.000000	0.303236	7.37051e+06	-49189.1	1005.82	-29759.8	0.000000	0.000000	6.302848	0.000668	NaN	0.000000	0.001603	0.001731	28.0816	0.038731	0.001931	20.0615	-175.704	-163.292	-0.012888	0.301964	-0.817484	-0.818756	0.000668	20.0615	-0.817509	-7.770054E+10	-8.592254E-15	NaN
558	1.000000	0.313242	7.37051e+06	-49189.1	1005.82	-29759.8	0.000000	0.000000	6.312856	0.038895	NaN	0.000000	0.001591	0.001724	28.0814	0.009690	0.002117	4.576747	7.242261	13.0794	0.115154	0.311900	-0.807478	-0.808820	0.038895	4.576747	-0.813852	-6.931412E+10	-5.611395E-13	NaN
558	1.000000	0.323253	7.37051e+06	-49189.1	1005.82	-29759.8	0.000000	0.000000	6.322866	0.008013	NaN	0.000000	0.001637	0.001716	28.0813	0.080402	0.001925	41.7593	-103.999	-165.228	0.035323	0.321938	-0.797467	-0.798782	0.008013	41.7593	-0.797611	-4.172812E+10	-1.920255E-13	NaN
558	1.000000	0.333241	7.37051e+06	-49189.1	1005.82	-29759.8	0.000000	0.000000	6.332854	0.012620	NaN	0.000000	0.001604	0.001686	28.0818	0.049176	0.002016	24.3874	-121.754	15.5155	0.003635	0.331904	-0.787479	-0.788816	0.012620	24.3874	-0.787867	-3.076902E+10	-4.101375E-13	NaN
558	1.000000	0.343278	7.37051e+06	-49189.1	1005.82	-29759.8	0.000000	0.000000	6.342890	-0.016311	NaN	0.000000	0.001590	0.001712	28.0813	0.135394	0.001991	68.0117	75.3178	-166.734	0.013998	0.341949	-0.777442	-0.778771	-0.016311	68.0117	-0.777262	-2.208111E+10	7.386859E-13	NaN
558	1.000000	0.353256	7.37051e+06	-49189.1	1005.82	-29759.8	0.000000	0.000000	6.352869	0.036189	NaN	0.000000	0.001623	0.001726	28.0812	0.089687	0.001939	46.2504	-25.993	17.9343	0.106432	0.351889	-0.767464	-0.768831	0.036189	46.2504	-0.768051	-1.655038E+10	-2.186606E-12	NaN
558	1.000000	0.363251	7.37051e+06	-49189.1	1005.82	-29759.8	0.000000	0.000000	6.362866	0.063777	NaN	0.000000	0.001634	0.001717	28.081	0.075660	0.001909	39.6314	-73.9345	-164.831	-0.004735	0.361916	-0.757469	-0.758804	0.063777	39.6314	-0.758676	-1.233918E+10	-5.168697E-12	NaN
558	1.000000	0.373276	7.37051e+06	-49189.1	1005.82	-29759.8	0.000000	0.000000	6.372887	-0.032691	NaN	0.000000	0.001597	0.001732	28.0816	0.082513	0.002061	40.042	81.9193	15.8529	0.039698	0.371909	-0.747444	-0.748811	-0.032691	40.042	-0.746831	-8.513037E+9	3.840112E-12	NaN
558	1.000000	0.383299	7.37051e+06	-49189.1	1005.82	-29759.8	0.000000	0.000000	6.382910	-0.011602	NaN	0.000000	0.001555	0.001711	28.0812	0.026983	0.001864	14.4738	106.534	-166.215	0.007571	0.381976	-0.737421	-0.738744	-0.011602	14.4738	-0.736820	-6.219298E+9	1.865461E-12	NaN
558	1.000000	0.393290	7.37051e+06	-49189.1	1005.82	-29759.8	0.000000	0.000000	6.392904	0.038718	NaN	0.000000	0.001577	0.001718	28.0814	0.061280	0.001938	31.6235	-173.143	16.745	0.008851	0.391948	-0.727430	-0.728772	0.038718	31.6235	-0.728348	-4.767563E+9	-8.121152E-12	NaN
558	1.000000	0.403285	7.37051e+06	-49189.1	1005.82	-29759.8	0.000000	0.000000	6.402899	0.041116	NaN	0.000000	0.001630	0.001731	28.0814	0.043623	0.001973	22.1103	-23.6241	-167.528	0.011268	0.401950	-0.717435	-0.718770	0.041116	22.1103	-0.718829	-3.535942E+9	-1.162789E-11	NaN
558	1.000000	0.413303	7.37051e+06	-49189.1	1005.82	-29759.8	0.000000	0.000000	6.412915	-0.006614	NaN	0.000000	0.001609	0.001735	28.0813	0.037562	0.001939	19.3758	-136.115	13.9314	-0.105080	0.411971	-0.707417	-0.708749	-0.006614	19.3758	-0.707161	-2.450740E+9	2.698686E-12	NaN
558	1.000000	0.423288	7.37051e+06	-49189.1	1005.82	-29759.8	0.000000	0.000000	6.422899	-0.026066	NaN	0.000000	0.001591	0.001718	28.0812	0.043366	0.001997	21.7111	-162.6	-164.358	-0.042510	0.422000	-0.697432	-0.698720	-0.026066	21.7111	-0.696531	-1.754499E+9	1.485688E-11	NaN
558	1.000000	0.433278	7.37051e+06	-49189.1	1005.82	-29759.8	0.000000	0.000000	6.432887	-0.061191	NaN	0.000000	0.001597	0.001711	28.0801	0.110866	0.001936	57.2795	117.266	16.4288	-0.016288	0.431964	-0.687442	-0.688756	-0.061191	57.2795	-0.686641	-1.285320E+9	4.760730E-11	NaN
558	1.000000	0.443310	7.37051e+06	-49189.1	1005.82	-29759.8	0.000000	0.000000	6.442922	0.012058	NaN	0.000000	0.001578	0.001730	28.0802	0.063404	0.002025	31.312	168.471	-166.336	-0.109621	0.441975	-0.677411	-0.678745	0.012058	31.312	-0.677699	-9.699246E+8	-1.243169E-11	NaN
558	1.000000	0.453311	7.37051e+06	-49189.1	1005.82	-29759.8	0.000000	0.000000	6.452922	-0.032952	NaN	0.000000	0.001609	0.001718	28.0802	0.026380	0.002022	13.0489	91.8414	13.7074	-0.080891	0.451966	-0.667409	-0.668754	-0.032952	13.0489	-0.665515	-6.606893E+8	4.987529E-11	NaN
558	1.000000	0.463320	7.37051e+06	-49189.1	1005.82	-29759.8	0.000000	0.000000	6.462931	-0.037570	NaN	0.000000	0.001552	0.001731	28.08	0.072328	0.001846	39.1899	122.56	-164.684	0.026309	0.461986	-0.657400	-0.658734	-0.037570	39.1899	-0.656681	-5.000339E+8	7.513480E-11	NaN
558	1.000000	0.473331	7.37051e+06	-49189.1	1005.82	-29759.8	0.000000	0.000000	6.472942	-0.028020	NaN	0.000000	0.001574	0.001728	28.0803	0.078883	0.002057	38.3527	167.364	12.8937	-0.038715	0.471939	-0.647389	-0.648781	-0.028020	38.3527	-0.646841	-3.665408E+8	7.644397E-11	NaN
558	1.000000	0.483323	7.37051e+06	-49189.1	1005.82	-29759.8	0.000000	0.000000	6.482938	0.065062	NaN	0.000000	0.001574	0.001733	28.0801	0.120129	0.001936	62.0472	24.4121	-167.241	0.022483	0.482002	-0.637397	-0.638718	0.065062	62.0472	-0.638183	-2.788418E+8	-2.333279E-10	NaN
558	1.000000	0.493300	7.37051e+06	-49189.1	1005.82	-29759.8	0.000000	0.000000	6.492915	0.076963	NaN	0.000000	0.001568	0.001699	28.08	0.143765	0.001818	79.0695	99.1694	15.7303	0.047212	0.491927	-0.627420	-0.628793	0.076963	79.0695	-0.628150	-2.030572E+8	-3.790191E-10	NaN
558	1.000000	0.503325	7.37051e+06	-49189.1	1005.82	-29759.8	0.000000	0.000000	6.502937	-0.004282	NaN	0.000000	0.001545	0.001736	28.0801	0.076108	0.001968	38.6694	-85.9083	-167.253	0.076789	0.502065	-0.617395	-0.618655	-0.004282	38.6694	-0.617312	-1.441069E+8	2.971263E-11	NaN
558	1.000000	0.513381	7.37051e+06	-49189.1	1005.82	-29759.8	0.000000	0.000000	6.512992	-0.033291	NaN	0.000000	0.001550	0.001704	28.0801	0.150177	0.002084	72.0514	178.758	18.2846	0.003309	0.511966	-0.607339	-0.608754	-0.033291	72.0514	-0.606992	-1.039260E+8	3.203342E-10	NaN
558	1.000000	0.523324	7.37051e+06	-49189.1	1005.82	-29759.8	0.000000	0.000000	6.522936	0.010229	NaN	0.000000	0.001599	0.001731	28.0801	0.050267	0.002008	25.0336	-130.1	-165.804	0.017549	0.522041	-0.597396	-0.598679	0.010229	25.0336	-0.597703	-7.741345E+7	-1.321371E-10	NaN
558	1.000000	0.533335	7.37051e+06	-49189.1	1005.82	-29759.8	0.000000	0.000000	6.532949	0.047417	NaN	0.000000	0.001578	0.001776	28.0802	0.075935	0.001988	38.1949	-8.410989	13.2878	0.059649	0.531958	-0.587385	-0.588762	0.047417	38.1949	-0.588316	-5.747079E+7	-8.250551E-10	NaN
558	1.000000	0.543353	7.37051e+06	-49189.1	1005.82	-29759.8	0.000000	0.000000	6.542966	0.028380	NaN	0.000000	0.001581	0.001752	28.0801	0.099876	0.002034	49.1006	17.1415	-164.021	0.067062	0.542033	-0.577367	-0.578687	0.028380	49.1006	-0.577800	-4.114959E+7	-6.896766E-10	NaN
558	1.000000	0.553332	7.37051e+06	-49189.1	1005.82	-29759.8	0.000000	0.000000	6.552944	-0.018668	NaN	0.000000	0.001575	0.001726	28.0803	0.011715	0.001995	5.873585	21.4593	16.4833	0.058082	0.551934	-0.567388	-0.568786	-0.018668	5.873585	-0.565004	-2.738921E+7	6.815836E-10	NaN
558	1.000000	0.563311	7.37051e+06	-49189.1	1005.82	-29759.8	0.000000	0.000000	6.562923	0.005406	NaN	0.000000	0.001591	0.001763	28.0802	0.080431	0.001943	41.3912	-154.865	-163.519	-0.010752	0.562022	-0.557409	-0.558698	0.005406	41.3912	-0.557507	-2.157177E+7	-2.506130E-10	NaN
558	1.000000	0.573376	7.37051e+06	-49189.1	1005.82	-29759.8	0.000000	0.000000	6.572988	-0.003341	NaN	0.000000	0.001595	0.001732	28.0814	0.021586	0.001924	11.2182	88.5933	14.7262	-0.025560	0.572025	-0.547344	-0.548695	-0.003341	11.2182	-0.547120	-1.549045E+7	2.156766E-10	NaN
558	1.000000	0.583357	7.37051e+06	-49189.1	1005.82	-29759.8	0.000000	0.000000	6.582969	0.000128	NaN	0.000000	0.001637	0.001766	28.0813	0.062999	0.001933	32.5962	-84.468	-162.958	0.071853	0.582063	-0.537363	-0.538657	0.000128	32.5962	-0.537366	-1.134554E+7	-1.128563E-11	NaN
558	1.000000	0.593365	7.37051e+06	-49189.1	1005.82	-29759.8	0.000000	0.000000	6.592977	0.009713	NaN	0.000000	0.001599	0.001742	28.0814	0.071558	0.001941	36.8709	-71.0116	15.4847	-0.007808	0.592039	-0.527355	-0.528681	0.009713	36.8709	-0.527553	-8.29052e+06	-1.171632E-9	NaN
558	1.000000	0.603382	7.37051e+06	-49189.1	1005.82	-29759.8	0.000000	0.000000	6.602994	-0.003766	NaN	0.000000	0.001612	0.001733	28.0812	0.060162	0.001922	31.295	-78.4174	-165.004	0.037666	0.602062	-0.517338	-0.518658	-0.003766	31.295	-0.517247	-5.96082e+06	6.318438E-10	NaN
558	1.000000	0.613406	7.37051e+06	-49189.1	1005.82	-29759.8	0.000000	0.000000	6.613021	0.074526	NaN	0.000000	0.001618	0.001714	28.0815	0.100322	0.002017	49.7315	93.8674	16.0249	0.014319	0.612025	-0.507314	-0.508695	0.074526	49.7315	-0.508438	-4.49429e+06	-1.658229E-8	NaN
558	1.000000	0.623398	7.37051e+06	-49189.1	1005.82	-29759.8	0.000000	0.000000	6.623015	0.113417	NaN	0.000000	0.001550	0.001767	28.0814	0.014956	0.002107	7.096868	-32.179	-164.028	0.043681	0.622066	-0.497322	-0.498654	0.113417	7.096868	-0.509308	-4.62138e+06	-2.454182E-8	NaN
558	1.000000	0.633386	7.37051e+06	-49189.1	1005.82	-29759.8	0.000000	0.000000	6.632998	-0.002122	NaN	0.000000	0.001577	0.001734	28.0813	0.083112	0.002037	40.8077	-112.988	15.8566	-0.035064	0.632001	-0.487334	-0.488719	-0.002122	40.8077	-0.487295	-2.27819e+06	9.314630E-10	NaN
558	1.000000	0.643394	7.37051e+06	-49189.1	1005.82	-29759.8	0.000000	0.000000	6.643006	0.007314	NaN	0.000000	0.001613	0.001743	28.0811	0.122731	0.001949	62.9577	32.6527	-163.124	0.004911	0.642076	-0.477326	-0.478644	0.007314	62.9577	-0.477413	-1.65694e+06	-4.414091E-9	NaN
558	1.000000	0.653386	7.37051e+06	-49189.1	1005.82	-29759.8	0.000000	0.000000	6.653000	0.028660	NaN	0.000000	0.001583	0.001748	28.0811	0.121155	0.001978	61.2399	-160.509	14.6278	-0.007050	0.652013	-0.467334	-0.468707	0.028660	61.2399	-0.467685	-1.21039e+06	-2.367850E-8	NaN
558	1.000000	0.663412	7.37051e+06	-49189.1	1005.82	-29759.8	0.000000	0.000000	6.663021	-0.083956	NaN	0.000000	0.001595	0.001770	28.081	0.064408	0.001938	33.2274	85.2912	-163.418	-0.106067	0.662075	-0.457308	-0.458645	-0.083956	33.2274	-0.455413	-813815	1.031632E-7	NaN
558	1.000000	0.673398	7.37051e+06	-49189.1	1005.82	-29759.8	0.000000	0.000000	6.673014	0.087401	NaN	0.000000	0.001593	0.001724	28.081	0.053826	0.001932	27.8607	18.0883	16.2679	0.028665	0.672090	-0.447322	-0.448630	0.087401	27.8607	-0.449675	-675717	-1.293460E-7	NaN
558	1.000000	0.683398	7.37051e+06	-49189.1	1005.82	-29759.8	0.000000	0.000000	6.683011	0.016588	NaN	0.000000	0.001587	0.001724	28.081	0.039276	0.002010	19.5425	-87.0469	-165.448	-0.020474	0.682116	-0.437322	-0.438604	0.016588	19.5425	-0.437959	-461900	-3.591208E-8	NaN
558	1.000000	0.693423	7.37051e+06	-49189.1	1005.82	-29759.8	0.000000	0.000000	6.693034	-0.030952	NaN	0.000000	0.001640	0.001755	28.0812	0.017220	0.002078	8.286484	89.3376	15.6408	-0.068987	0.692059	-0.427297	-0.428661	-0.030952	8.286484	-0.424495	-297942	1.038861E-7	NaN
558	1.000000	0.703417	7.37051e+06	-49189.1	1005.82	-29759.8	0.000000	0.000000	6.703029	0.013066	NaN	0.000000	0.001598	0.001728	28.0798	0.075474	0.002065	36.5419	-155.311	-165.834	-0.030976	0.702082	-0.417303	-0.418638	0.013066	36.5419	-0.417572	-237663	-5.497869E-8	NaN
558	1.000000	0.713396	7.37051e+06	-49189.1	1005.82	-29759.8	0.000000	0.000000	6.713005	-0.069574	NaN	0.000000	0.001595	0.001745	28.0797	0.076470	0.001974	38.7463	-33.3079	17.6109	0.000191	0.711999	-0.407324	-0.408721	-0.069574	38.7463	-0.405977	-162617	4.278388E-7	NaN
558	1.000000	0.723409	7.37051e+06	-49189.1	1005.82	-29759.8	0.000000	0.000000	6.723023	0.042014	NaN	0.000000	0.001605	0.001745	28.0798	0.036724	0.002054	17.8793	-161.891	-167.033	-0.018417	0.722078	-0.397311	-0.398642	0.042014	17.8793	-0.399073	-129651	-3.240507E-7	NaN
558	1.000000	0.733412	7.37051e+06	-49189.1	1005.82	-29759.8	0.000000	0.000000	6.733026	0.057311	NaN	0.000000	0.001586	0.001752	28.0798	0.137316	0.001970	69.6969	-94.2761	15.4918	0.068158	0.732074	-0.387308	-0.388646	0.057311	69.6969	-0.387925	-89841.6	-6.379145E-7	NaN
558	1.000000	0.743426	7.37051e+06	-49189.1	1005.82	-29759.8	0.000000	0.000000	6.743040	0.057980	NaN	0.000000	0.001584	0.001741	28.0798	0.059060	0.001889	31.2592	42.2471	-163.771	0.028181	0.742135	-0.377294	-0.378585	0.057980	31.2592	-0.378685	-66224.4	-8.755033E-7	NaN
558	1.000000	0.753439	7.37051e+06	-49189.1	1005.82	-29759.8	0.000000	0.000000	6.753053	0.039071	NaN	0.000000	0.001624	0.001777	28.0801	0.154909	0.001918	80.7462	-8.322245	14.1208	0.104147	0.752070	-0.367281	-0.368650	0.039071	80.7462	-0.367644	-45939.1	-8.504957E-7	NaN
558	1.000000	0.763409	7.37051e+06	-49189.1	1005.82	-29759.8	0.000000	0.000000	6.763021	0.006987	NaN	0.000000	0.001649	0.001779	28.0802	0.071056	0.002088	34.0288	-46.5357	-165.143	-0.043957	0.762103	-0.357311	-0.358617	0.006987	34.0288	-0.357465	-32747.8	-2.133728E-7	NaN
558	1.000000	0.773463	7.37051e+06	-49189.1	1005.82	-29759.8	0.000000	0.000000	6.773079	0.108317	NaN	0.000000	0.001612	0.001784	28.0801	0.107185	0.002097	51.1067	112.257	13.0418	0.136344	0.772079	-0.347257	-0.348641	0.108317	51.1067	-0.348847	-24561.7	-4.409968E-6	NaN
558	1.000000	0.783451	7.37051e+06	-49189.1	1005.82	-29759.8	0.000000	0.000000	6.783063	0.008197	NaN	0.000000	0.001622	0.001720	28.0799	0.050096	0.002003	25.0153	162.686	-164.601	-0.021700	0.782108	-0.337269	-0.338612	0.008197	25.0153	-0.337515	-16799.9	-4.879264E-7	NaN
558	1.000000	0.793443	7.37051e+06	-49189.1	1005.82	-29759.8	0.000000	0.000000	6.793054	-0.049195	NaN	0.000000	0.001614	0.001790	28.08	0.098253	0.002027	48.4775	43.6295	12.7151	-0.087102	0.792110	-0.327277	-0.328610	-0.049195	48.4775	-0.326515	-11597.8	4.241728E-6	NaN
558	1.000000	0.803479	7.37051e+06	-49189.1	1005.82	-29759.8	0.000000	0.000000	6.803092	0.013009	NaN	0.000000	0.001600	0.001720	28.0803	0.051939	0.002055	25.2701	-36.5745	-165.832	0.004386	0.802130	-0.317241	-0.318590	0.013009	25.2701	-0.317627	-8583.91	-1.515476E-6	NaN
558	1.000000	0.813445	7.37051e+06	-49189.1	1005.82	-29759.8	0.000000	0.000000	6.813057	0.015624	NaN	0.000000	0.001588	0.001728	28.0799	0.086334	0.002031	42.5019	79.9218	18.1676	0.000347	0.812093	-0.307275	-0.308627	0.015624	42.5019	-0.307551	-6092.41	-2.564511E-6	NaN
558	1.000000	0.823435	7.37051e+06	-49189.1	1005.82	-29759.8	0.000000	0.000000	6.823043	-0.088404	NaN	0.000000	0.001609	0.001696	28.0798	0.034753	0.002004	17.3388	-167.283	-165.366	-0.038572	0.822118	-0.297285	-0.298602	-0.088404	17.3388	-0.293461	-3759.26	2.351638E-5	NaN
558	1.000000	0.833465	7.37051e+06	-49189.1	1005.82	-29759.8	0.000000	0.000000	6.833080	0.063555	NaN	0.000000	0.001608	0.001721	28.0801	0.114897	0.002045	56.1856	-96.2258	16.0917	0.010092	0.832115	-0.287255	-0.288605	0.063555	56.1856	-0.288103	-3125.1	-2.033703E-5	NaN
558	1.000000	0.843461	7.37051e+06	-49189.1	1005.82	-29759.8	0.000000	0.000000	6.843074	0.012537	NaN	0.000000	0.001620	0.001693	28.0812	0.113608	0.001954	58.1485	134.587	-165.997	0.035528	0.842184	-0.277259	-0.278536	0.012537	58.1485	-0.277421	-2157.85	-5.810079E-6	NaN
558	1.000000	0.853473	7.37051e+06	-49189.1	1005.82	-29759.8	0.000000	0.000000	6.853085	0.009048	NaN	0.000000	0.001605	0.001692	28.081	0.027278	0.002095	13.0219	-22.8068	11.6167	0.114182	0.852115	-0.267247	-0.268605	0.009048	13.0219	-0.267768	-1540.25	-5.874663E-6	NaN
558	1.000000	0.863485	7.37051e+06	-49189.1	1005.82	-29759.8	0.000000	0.000000	6.863097	-0.003896	NaN	0.000000	0.001631	0.001689	28.0813	0.093245	0.001943	47.9971	59.8211	-163.877	0.028360	0.862057	-0.257235	-0.258663	-0.003896	47.9971	-0.257174	-1060.61	3.673039E-6	NaN
558	1.000000	0.873490	7.37051e+06	-49189.1	1005.82	-29759.8	0.000000	0.000000	6.873102	-0.003093	NaN	0.000000	0.001568	0.001734	28.0813	0.069344	0.001852	37.4493	71.4993	15.2038	-0.033210	0.872135	-0.247230	-0.248585	-0.003093	37.4493	-0.247168	-743.195	4.162022E-6	NaN
558	1.000000	0.883474	7.37051e+06	-49189.1	1005.82	-29759.8	0.000000	0.000000	6.883090	0.097475	NaN	0.000000	0.001583	0.001724	28.0812	0.031721	0.001939	16.3608	95.8758	-168.52	0.016321	0.882191	-0.237246	-0.238529	0.097475	16.3608	-0.241714	-611.368	-0.000159	NaN
558	1.000000	0.893466	7.37051e+06	-49189.1	1005.82	-29759.8	0.000000	0.000000	6.893078	-0.016348	NaN	0.000000	0.001597	0.001729	28.0811	0.118408	0.001975	59.9668	-15.6036	13.1055	-0.058589	0.892165	-0.227254	-0.228555	-0.016348	59.9668	-0.227049	-359.62	4.545909E-5	NaN
558	1.000000	0.903503	7.37051e+06	-49189.1	1005.82	-29759.8	0.000000	0.000000	6.903115	0.002418	NaN	0.000000	0.001610	0.001729	28.0812	0.047107	0.002054	22.9395	-122.163	-165.104	0.016571	0.902157	-0.217217	-0.218563	0.002418	22.9395	-0.217297	-251.419	-9.618855E-6	NaN
558	1.000000	0.913501	7.37051e+06	-49189.1	1005.82	-29759.8	0.000000	0.000000	6.913112	-0.034867	NaN	0.000000	0.001579	0.001696	28.0814	0.020561	0.002095	9.812357	-63.2702	14.1563	0.023773	0.912177	-0.207219	-0.208543	-0.034867	9.812357	-0.204554	-156.415	0.000223	NaN
558	1.000000	0.923454	7.37051e+06	-49189.1	1005.82	-29759.8	0.000000	0.000000	6.923069	0.054331	NaN	0.000000	0.001593	0.001724	28.0809	0.053995	0.002026	26.6531	-148.636	-160.118	0.000310	0.922193	-0.197266	-0.198527	0.054331	26.6531	-0.198794	-125.854	-0.000432	NaN
558	1.000000	0.933499	7.37051e+06	-49189.1	1005.82	-29759.8	0.000000	0.000000	6.933111	0.002397	NaN	0.000000	0.001581	0.001726	28.081	0.029133	0.001975	14.7482	8.607333	15.1127	-0.014447	0.932117	-0.187221	-0.188603	0.002397	14.7482	-0.187343	-81.1972	-2.952234E-5	NaN
558	1.000000	0.943521	7.37051e+06	-49189.1	1005.82	-29759.8	0.000000	0.000000	6.943134	0.016267	NaN	0.000000	0.001566	0.001719	28.0812	0.108740	0.002007	54.1904	-90.2859	-164.209	0.021999	0.942212	-0.177199	-0.178508	0.016267	54.1904	-0.177424	-55.1476	-0.000295	NaN
558	1.000000	0.953508	7.37051e+06	-49189.1	1005.82	-29759.8	0.000000	0.000000	6.953124	0.090725	NaN	0.000000	0.001543	0.001731	28.081	0.072689	0.001925	37.7642	-33.7377	14.9874	0.019899	0.952165	-0.167212	-0.168555	0.090725	37.7642	-0.169014	-39.4882	-0.002298	NaN
558	1.000000	0.963511	7.37051e+06	-49189.1	1005.82	-29759.8	0.000000	0.000000	6.963128	0.125266	NaN	0.000000	0.001572	0.001738	28.0812	0.105777	0.002039	51.8879	-30.7457	-164.506	0.020498	0.962194	-0.157209	-0.158526	0.125266	51.8879	-0.159020	-26.3358	-0.004756	NaN
558	1.000000	0.973521	7.37051e+06	-49189.1	1005.82	-29759.8	0.000000	0.000000	6.973134	0.011645	NaN	0.000000	0.001590	0.001780	28.081	0.152649	0.001972	77.3889	55.1658	17.0442	0.037116	0.972189	-0.147199	-0.148531	0.011645	77.3889	-0.147312	-16.1729	-0.000720	NaN
558	1.000000	0.983525	7.37051e+06	-49189.1	1005.82	-29759.8	0.000000	0.000000	6.983135	-0.055981	NaN	0.000000	0.001607	0.001757	28.08	0.028619	0.001980	14.4567	19.3582	-164.652	-0.014900	0.982244	-0.137195	-0.138476	-0.055981	14.4567	-0.134291	-9.220159	0.006072	NaN
558	1.000000	0.993492	7.37051e+06	-49189.1	1005.82	-29759.8	0.000000	0.000000	6.993105	0.029563	NaN	0.000000	0.001577	0.001741	28.0797	0.105815	0.001956	54.1008	-54.7042	14.2761	0.049910	0.992160	-0.127228	-0.128560	0.029563	54.1008	-0.127638	-6.853875	-0.004313	NaN
558	1.000000	1.003533	7.37051e+06	-49189.1	1005.82	-29759.8	0.000000	0.000000	7.003145	-0.002404	NaN	0.000000	0.001627	0.001776	28.0797	0.116583	0.002036	57.2531	138.061	-165.15	-0.005091	1.002237	-0.117187	-0.118483	-0.002404	57.2531	-0.117156	-4.229967	0.000568	NaN
558	1.000000	1.013559	7.37051e+06	-49189.1	1005.82	-29759.8	0.000000	0.000000	7.013171	0.018519	NaN	0.000000	0.001641	0.001783	28.0801	0.050724	0.002091	24.2562	-44.8048	14.7955	0.016979	1.012195	-0.107161	-0.108525	0.018519	24.2562	-0.107734	-2.690523	-0.006883	NaN
558	1.000000	1.023522	7.37051e+06	-49189.1	1005.82	-29759.8	0.000000	0.000000	7.023134	-0.004864	NaN	0.000000	0.001660	0.001770	28.0798	0.039320	0.002014	19.5237	8.303788	-162.595	-0.083550	1.022237	-0.097198	-0.098483	-0.004864	19.5237	-0.097011	-1.566662	0.003105	NaN
558	1.000000	1.033514	7.37051e+06	-49189.1	1005.82	-29759.8	0.000000	0.000000	7.033125	-0.024139	NaN	0.000000	0.001621	0.001773	28.0798	0.070435	0.001886	37.3545	36.1163	17.7263	0.004925	1.032196	-0.087206	-0.088524	-0.024139	37.3545	-0.086721	-0.903893	0.026706	NaN
558	1.000000	1.043533	7.37051e+06	-49189.1	1005.82	-29759.8	0.000000	0.000000	7.043144	-0.025281	NaN	0.000000	0.001651	0.001756	28.08	0.018795	0.001965	9.566191	-20.7759	-165.191	0.032600	1.042255	-0.077187	-0.078465	-0.025281	9.566191	-0.075205	-0.467536	0.054073	NaN
558	1.000000	1.053558	7.37051e+06	-49189.1	1005.82	-29759.8	0.000000	0.000000	7.053170	-0.001716	NaN	0.000000	0.001658	0.001768	28.08	0.044696	0.002034	21.9718	44.1004	17.2427	-0.023384	1.052201	-0.067162	-0.068519	-0.001716	21.9718	-0.067104	-0.284783	0.006026	NaN
558	1.000000	1.063563	7.37051e+06	-49189.1	1005.82	-29759.8	0.000000	0.000000	7.063179	0.095105	NaN	0.000000	0.001677	0.001762	28.0799	0.040089	0.002039	19.6564	-42.8844	-167.193	-0.005996	1.062219	-0.057157	-0.058501	0.095105	19.6564	-0.060786	-0.189666	-0.501432	NaN
558	1.000000	1.073549	7.37051e+06	-49189.1	1005.82	-29759.8	0.000000	0.000000	7.073161	0.005296	NaN	0.000000	0.001625	0.001768	28.0796	0.044290	0.001975	22.4239	53.2696	12.5307	-0.073092	1.072184	-0.047171	-0.048536	0.005296	22.4239	-0.047348	-0.075808	-0.069858	NaN
558	1.000000	1.083530	7.37051e+06	-49189.1	1005.82	-29759.8	0.000000	0.000000	7.083142	-0.010930	NaN	0.000000	0.001634	0.001718	28.0801	0.017424	0.002091	8.331969	107.718	-165.345	0.048790	1.082287	-0.037190	-0.038433	-0.010930	8.331969	-0.036206	-0.034768	0.314364	NaN
558	1.000000	1.093549	7.37051e+06	-49189.1	1005.82	-29759.8	0.000000	0.000000	7.093162	0.032803	NaN	0.000000	0.001665	0.001744	28.0797	0.050905	0.002097	24.2693	0.467845	14.5901	0.085148	1.092138	-0.027171	-0.028582	0.032803	24.2693	-0.028185	-0.020511	-1.599299	NaN
558	1.000000	1.103584	7.37051e+06	-49189.1	1005.82	-29759.8	0.000000	0.000000	7.103196	0.011230	NaN	0.000000	0.001641	0.001751	28.0798	0.089460	0.001924	46.4935	-156.376	-167.147	0.016871	1.102220	-0.017136	-0.018500	0.011230	46.4935	-0.017317	-0.010715	-1.048101	NaN
558	1.000000	1.113589	7.37051e+06	-49189.1	1005.82	-29759.8	0.000000	0.000000	7.113203	0.048959	NaN	0.000000	0.001664	0.001719	28.081	0.037058	0.002100	17.6453	-39.9247	15.3097	0.016866	1.112194	-0.007131	-0.008526	0.048959	17.6453	-0.009212	-0.005935	-8.249045	NaN
558	1.000000	1.123468	7.37051e+06	-49189.1	1005.82	-29759.8	0.000000	0.000000	7.123411	8.049760	NaN	0.000000	0.001660	0.001782	28.0815	7.546545	0.001678	4498.52	9.182972	-169.141	6.701848	1.122240	0.002748	0.001520	8.049760	4498.52	0.001406	0.001080	7452.15	125053
558	2.000000	1.126693	7.37051e+06	-49189.1	1005.82	-29759.8	0.000000	0.000000	7.126817	12.4641	NaN	0.000000	0.001687	0.001722	28.081	10.6285	0.001508	7049.23	4.459613	9.247358	12.0131	1.126300	0.005973	0.005580	12.4641	7049.23	0.004647	0.003813	3268.63	104296
558	2.000000	1.129110	7.37051e+06	-49189.1	1005.82	-29759.8	0.000000	0.000000	7.129454	17.7931	NaN	0.000000	0.001673	0.001703	28.0815	13.5002	0.001570	8596.95	5.769865	-173.808	17.2375	1.128790	0.008390	0.008070	17.7931	8596.95	0.006838	0.005874	3028.99	102480
558	2.000000	1.131607	7.37051e+06	-49189.1	1005.82	-29759.8	0.000000	0.000000	7.132140	22.411	NaN	0.000000	0.001650	0.001703	28.0811	17.2562	0.001741	9912.32	7.701059	3.549334	20.6124	1.131159	0.010886	0.010439	22.411	9912.32	0.009191	0.008296	2701.41	99429.2
558	2.000000	1.134122	7.37051e+06	-49189.1	1005.82	-29759.8	0.000000	0.000000	7.134806	26.0702	NaN	0.000000	0.001629	0.001698	28.0828	20.0567	0.001796	11168.4	7.941135	-178.711	25.3618	1.133806	0.013402	0.013086	26.0702	11168.4	0.011652	0.011075	2353.9	96958.9
558	2.000000	1.136598	7.37051e+06	-49189.1	1005.82	-29759.8	0.000000	0.000000	7.137520	31.8512	NaN	0.000000	0.001661	0.001705	28.081	21.774	0.001723	12636.7	6.057455	2.477455	29.4935	1.136229	0.015878	0.015509	31.8512	12636.7	0.013988	0.013959	2281.69	97717.6
558	2.000000	1.139100	7.37051e+06	-49189.1	1005.82	-29759.8	0.000000	0.000000	7.140213	36.4983	NaN	0.000000	0.001684	0.001716	28.0811	24.4045	0.001677	14550.7	6.850266	-179.704	36.7888	1.138737	0.018380	0.018017	36.4983	14550.7	0.016499	0.017337	2105.27	100966
558	2.000000	1.141596	7.37051e+06	-49189.1	1005.82	-29759.8	0.000000	0.000000	7.143012	43.8901	NaN	0.000000	0.001636	0.001698	28.0811	27.9323	0.001911	14619.7	6.503830	0.750804	42.2884	1.141193	0.020876	0.020473	43.8901	14619.7	0.018624	0.020426	2148.72	93458.3
558	2.000000	1.144011	7.37051e+06	-49189.1	1005.82	-29759.8	0.000000	0.000000	7.145697	50.4288	NaN	0.000000	0.001659	0.001680	28.0818	29.7629	0.001856	16033.2	5.292912	-178.574	47.9329	1.143799	0.023291	0.023079	50.4288	16033.2	0.020933	0.024029	2098.67	94499.1
558	2.000000	1.146559	7.37051e+06	-49189.1	1005.82	-29759.8	0.000000	0.000000	7.148695	61.3922	NaN	0.000000	0.001663	0.001680	28.0811	31.7626	0.001814	17509	5.010909	2.551047	58.3325	1.146164	0.025839	0.025444	61.3922	17509	0.023209	0.027838	2205.35	95877.7
558	2.000000	1.149099	7.37051e+06	-49189.1	1005.82	-29759.8	0.000000	0.000000	7.151472	67.1655	NaN	0.000000	0.001648	0.001682	28.0817	34.3483	0.001785	19244.9	2.845931	-177.735	68.3346	1.148805	0.028379	0.028085	67.1655	19244.9	0.025761	0.032415	2072.07	97660.1
558	2.000000	1.151528	7.37051e+06	-49189.1	1005.82	-29759.8	0.000000	0.000000	7.154326	77.4901	NaN	0.000000	0.001644	0.001673	28.0813	36.9151	0.001699	21733.9	3.659140	-0.354710	75.6513	1.151200	0.030808	0.030480	77.4901	21733.9	0.028134	0.036965	2096.33	103280
558	2.000000	1.154088	7.37051e+06	-49189.1	1005.82	-29759.8	0.000000	0.000000	7.157215	85.4821	NaN	0.000000	0.001642	0.001660	28.0814	40.8878	0.001846	22146	8.202510	175.65	86.0909	1.153739	0.033368	0.033019	85.4821	22146	0.030473	0.041729	2048.5	99048.8
558	2.000000	1.156555	7.37051e+06	-49189.1	1005.82	-29759.8	0.000000	0.000000	7.160166	97.2405	NaN	0.000000	0.001620	0.001677	28.0798	41.572	0.001720	24166.2	2.369037	1.289653	95.3524	1.156191	0.035835	0.035471	97.2405	24166.2	0.032818	0.046786	2078.4	102076
558	2.000000	1.159013	7.37051e+06	-49189.1	1005.82	-29759.8	0.000000	0.000000	7.163049	107.595	NaN	0.000000	0.001614	0.001689	28.0807	44.312	0.001788	24784.8	4.001754	178.84	105.905	1.158669	0.038293	0.037949	107.595	24784.8	0.035037	0.051832	2075.84	99462.7
558	2.000000	1.161506	7.37051e+06	-49189.1	1005.82	-29759.8	0.000000	0.000000	7.165817	114.284	NaN	0.000000	0.001564	0.001672	28.0802	47.7927	0.001809	26413.8	7.089156	-5.390479	110.533	1.161090	0.040786	0.040370	114.284	26413.8	0.037541	0.057828	1976.28	100354
558	2.000000	1.164045	7.37051e+06	-49189.1	1005.82	-29759.8	0.000000	0.000000	7.168818	125.512	NaN	0.000000	0.001608	0.001640	28.0803	50.8408	0.001851	27461.4	7.567152	174.516	124.716	1.163766	0.043325	0.043046	125.512	27461.4	0.039897	0.063763	1968.4	99359.7
558	2.000000	1.166482	7.37051e+06	-49189.1	1005.82	-29759.8	0.000000	0.000000	7.171953	142.493	NaN	0.000000	0.001594	0.001680	28.0798	51.5757	0.001869	27588.8	3.617004	-1.336526	138.202	1.166132	0.045762	0.045412	142.493	27588.8	0.041888	0.069000	2065.13	95958.4
558	2.000000	1.169062	7.37051e+06	-49189.1	1005.82	-29759.8	0.000000	0.000000	7.175109	156.493	NaN	0.000000	0.001583	0.001665	28.0802	53.1826	0.001748	30432.2	4.524351	177.544	156.537	1.168607	0.048342	0.047887	156.493	30432.2	0.044486	0.076134	2055.49	100767
558	2.000000	1.171526	7.37051e+06	-49189.1	1005.82	-29759.8	0.000000	0.000000	7.177891	164.232	NaN	0.000000	0.001616	0.001680	28.0797	58.0075	0.001886	30756.1	6.891156	-5.247703	162.874	1.171153	0.050806	0.050433	164.232	30756.1	0.046801	0.082782	1983.9	97664.3
558	2.000000	1.174027	7.37051e+06	-49189.1	1005.82	-29759.8	0.000000	0.000000	7.180818	174.611	NaN	0.000000	0.001568	0.001699	28.0799	60.2996	0.001858	32456.5	3.771666	176.871	174.191	1.173837	0.053307	0.053117	174.611	32456.5	0.049272	0.090176	1936.34	98748.4
558	2.000000	1.176559	7.37051e+06	-49189.1	1005.82	-29759.8	0.000000	0.000000	7.184231	196.034	NaN	0.000000	0.001595	0.001662	28.0798	61.3359	0.001701	36063.7	2.343632	-2.358559	194.923	1.176163	0.055838	0.055442	196.034	36063.7	0.051762	0.097936	2001.65	105286
558	2.000000	1.178924	7.37051e+06	-49189.1	1005.82	-29759.8	0.000000	0.000000	7.186984	205.474	NaN	0.000000	0.001617	0.001656	28.08	64.6304	0.001880	34379.2	6.111516	173.98	200.456	1.178787	0.058204	0.058067	205.474	34379.2	0.053721	0.104261	1970.77	97276.4
558	2.000000	1.181565	7.37051e+06	-49189.1	1005.82	-29759.8	0.000000	0.000000	7.190285	221.503	NaN	0.000000	0.001589	0.001656	28.0798	67.5989	0.001858	36386.8	3.143879	-3.374631	221.385	1.181175	0.060845	0.060455	221.503	36386.8	0.056280	0.112807	1963.56	98980.4
558	2.000000	1.184049	7.37051e+06	-49189.1	1005.82	-29759.8	0.000000	0.000000	7.193541	240.302	NaN	0.000000	0.001593	0.001639	28.0799	69.4144	0.001805	38458.8	4.264077	175.359	242.29	1.183733	0.063329	0.063013	240.302	38458.8	0.058642	0.120985	1986.21	101019
558	2.000000	1.186426	7.37051e+06	-49189.1	1005.82	-29759.8	0.000000	0.000000	7.196608	257.052	NaN	0.000000	0.001583	0.001660	28.0799	71.72	0.001816	39491	7.944594	-8.972395	250.478	1.186022	0.065706	0.065302	257.052	39491	0.060824	0.128781	1996.05	100542
558	2.000000	1.188965	7.37051e+06	-49189.1	1005.82	-29759.8	0.000000	0.000000	7.199870	274.661	NaN	0.000000	0.001606	0.001654	28.0798	73.5205	0.001807	40695.3	8.770545	169.976	270.73	1.188629	0.068245	0.067909	274.661	40695.3	0.063183	0.137468	1998	100281
558	2.000000	1.191486	7.37051e+06	-49189.1	1005.82	-29759.8	0.000000	0.000000	7.203060	290.915	NaN	0.000000	0.001573	0.001685	28.0811	74.1157	0.001758	42170.9	0.142774	-1.143320	286.678	1.191050	0.070766	0.070330	290.915	42170.9	0.065592	0.146621	1984.13	100621
558	2.000000	1.193962	7.37051e+06	-49189.1	1005.82	-29759.8	0.000000	0.000000	7.206359	310.954	NaN	0.000000	0.001592	0.001704	28.0812	78.0815	0.001780	43860.5	5.177665	173.476	308.057	1.193634	0.073242	0.072914	310.954	43860.5	0.067924	0.155747	1996.54	101540
558	2.000000	1.196489	7.37051e+06	-49189.1	1005.82	-29759.8	0.000000	0.000000	7.209526	326.505	NaN	0.000000	0.001585	0.001706	28.0814	79.4907	0.001684	47204.8	2.466774	-4.823376	324.059	1.196201	0.075769	0.075481	326.505	47204.8	0.070581	0.166461	1961.45	105707
558	2.000000	1.199037	7.37051e+06	-49189.1	1005.82	-29759.8	0.000000	0.000000	7.212874	345.961	NaN	0.000000	0.001633	0.001698	28.081	81.3207	0.001732	46950.1	2.424615	175.185	347.268	1.198773	0.078317	0.078053	345.961	46950.1	0.072790	0.175623	1969.9	102357
558	2.000000	1.201499	7.37051e+06	-49189.1	1005.82	-29759.8	0.000000	0.000000	7.215951	360.923	NaN	0.000000	0.001557	0.001732	28.0812	85.5583	0.001844	46398.6	5.864478	-8.301641	359.131	1.201114	0.080779	0.080394	360.923	46398.6	0.074945	0.184783	1953.23	98616
558	2.000000	1.204112	7.37051e+06	-49189.1	1005.82	-29759.8	0.000000	0.000000	7.219147	375.087	NaN	0.000000	0.001555	0.001714	28.0813	87.5617	0.001738	50378.9	7.471993	170.089	382.292	1.203670	0.083392	0.082950	375.087	50378.9	0.077808	0.197291	1901.19	103626
558	2.000000	1.206500	7.37051e+06	-49189.1	1005.82	-29759.8	0.000000	0.000000	7.222666	402.597	NaN	0.000000	0.001547	0.001725	28.0813	88.9339	0.001780	49952.9	4.902999	-7.359096	400.512	1.206187	0.085780	0.085467	402.597	49952.9	0.079736	0.205930	1955.02	100571
558	2.000000	1.209096	7.37051e+06	-49189.1	1005.82	-29759.8	0.000000	0.000000	7.225777	415.125	NaN	0.000000	0.001547	0.001690	28.0811	90.4072	0.001686	53637.3	4.424380	172.54	422.618	1.208705	0.088376	0.087985	415.125	53637.3	0.082571	0.218951	1895.97	104729
558	2.000000	1.211491	7.37051e+06	-49189.1	1005.82	-29759.8	0.000000	0.000000	7.229283	442.134	NaN	0.000000	0.001583	0.001702	28.0812	94.6681	0.001684	56210.1	5.388481	-8.571898	441.32	1.211071	0.090771	0.090351	442.134	56210.1	0.084872	0.229792	1924.06	107132
558	2.000000	1.213920	7.37051e+06	-49189.1	1005.82	-29759.8	0.000000	0.000000	7.232474	460.686	NaN	0.000000	0.001537	0.001706	28.0813	98.3377	0.001780	55257.4	3.684265	173.074	457.474	1.213613	0.093200	0.092893	460.686	55257.4	0.086947	0.239776	1921.32	103101
558	2.000000	1.216497	7.37051e+06	-49189.1	1005.82	-29759.8	0.000000	0.000000	7.235873	480.678	NaN	0.000000	0.001537	0.001672	28.0809	100.223	0.001826	54880.5	2.987849	-6.081210	475.315	1.216077	0.095777	0.095357	480.678	54880.5	0.089208	0.250883	1915.95	100105
558	2.000000	1.218841	7.37051e+06	-49189.1	1005.82	-29759.8	0.000000	0.000000	7.239224	505.147	NaN	0.000000	0.001575	0.001706	28.0808	103.577	0.001818	56988.3	8.342331	167.87	498.292	1.218562	0.098121	0.097842	505.147	56988.3	0.091473	0.262246	1926.24	101673
558	2.000000	1.221380	7.37051e+06	-49189.1	1005.82	-29759.8	0.000000	0.000000	7.243061	536.734	NaN	0.000000	0.001571	0.001719	28.0811	104.866	0.001739	60286.3	1.596741	-4.921106	528.728	1.221088	0.100660	0.100368	536.734	60286.3	0.093983	0.275108	1951	105012
558	2.000000	1.222907	7.37051e+06	-49189.1	1005.82	-29759.8	0.000000	0.000000	7.245020	547.217	NaN	0.000000	0.001556	0.001723	28.081	104.936	0.001742	60227.4	2.687893	173.409	542.426	1.222642	0.102187	0.101922	547.217	60227.4	0.095373	0.282357	1938.03	103554