File: remote_trans/data/nanoindenter/0828-1/data/Data_2025-08-06,11h17m57s/2025-07-22_16-23-58_1_1046.txt
2025-07-22, 16:23:58, 1
Index	Phase	Displacement	Time	Pos X	Pos Y	Pos Z	Rot A	Rot B	Piezo Z	Force A	Force B	Gripper	Voltage A	Voltage B	Temperature	Amplitude force	Amplitude pos	Stiffness	Phase shift	Phase excitation	Force A raw	Displacement raw	HMax	HMax raw	Real Force	Real Stiffness	Contact Depth	Area	Hardness	Reduced Mod.
[#]	[#]	[um]	[s]	[um]	[um]	[um]	[m°]	[m°]	[um]	[uN]	[uN]	[V]	[V]	[V]	[°C]	[uN]	[um]	[N/m]	[°]	[°]	[uN]	[um]	[um]	[um]	[uN]	[N/m]	[um]	[um^2]	[MPa]	[MPa]
1046	1.000000	0.002763	7.37527e+06	-52439.1	1055.82	-29749.1	0.000000	0.000000	6.002786	-0.047622	NaN	0.000000	0.001640	0.001767	28.0838	0.074538	0.001075	69.3208	-164.229	-165.146	-0.009601	0.001530	-1.193164	-1.194397	-0.047622	69.3208	-1.192648	-8.755819E+15	5.438851E-18	NaN
1046	1.000000	0.012850	7.37527e+06	-52439.1	1055.82	-29749.1	0.000000	0.000000	6.012872	-0.069629	NaN	0.000000	0.001635	0.001740	28.0839	0.165573	0.001353	122.364	87.045	11.8226	-0.076267	0.011395	-1.183077	-1.184531	-0.069629	122.364	-1.182650	-6.432386E+15	1.082477E-17	NaN
1046	1.000000	0.022688	7.37527e+06	-52439.1	1055.82	-29749.1	0.000000	0.000000	6.022708	-0.120829	NaN	0.000000	0.001654	0.001716	28.0838	0.084855	0.001759	48.242	-113.123	-165.877	-0.098024	0.021379	-1.173238	-1.174548	-0.120829	48.242	-1.171360	-4.540563E+15	2.661100E-17	NaN
1046	1.000000	0.032731	7.37527e+06	-52439.1	1055.82	-29749.1	0.000000	0.000000	6.032753	-0.072820	NaN	0.000000	0.001626	0.001733	28.084	0.025514	0.001933	13.199	107.589	17.3852	-0.025568	0.031398	-1.163195	-1.164529	-0.072820	13.199	-1.159057	-3.106245E+15	2.344319E-17	NaN
1046	1.000000	0.042721	7.37527e+06	-52439.1	1055.82	-29749.1	0.000000	0.000000	6.042744	-0.026327	NaN	0.000000	0.001616	0.001714	28.0838	0.041368	0.002052	20.1607	56.8761	-163.526	-0.018891	0.041423	-1.153206	-1.154504	-0.026327	20.1607	-1.152227	-2.515761E+15	1.046494E-17	NaN
1046	1.000000	0.052752	7.37528e+06	-52439.1	1055.82	-29749.1	0.000000	0.000000	6.052774	-0.051311	NaN	0.000000	0.001651	0.001713	28.0844	0.089198	0.001813	49.2061	-45.1311	12.4166	-0.044386	0.051379	-1.143175	-1.144547	-0.051311	49.2061	-1.142393	-1.857042E+15	2.763075E-17	NaN
1046	1.000000	0.062720	7.37528e+06	-52439.1	1055.82	-29749.1	0.000000	0.000000	6.062743	-0.030057	NaN	0.000000	0.001666	0.001745	28.084	0.082407	0.002158	38.1923	131.833	-164.429	-0.088367	0.061440	-1.133207	-1.134486	-0.030057	38.1923	-1.132616	-1.373143E+15	2.188892E-17	NaN
1046	1.000000	0.072713	7.37528e+06	-52439.1	1055.82	-29749.1	0.000000	0.000000	6.072736	-0.036329	NaN	0.000000	0.001626	0.001757	28.0842	0.059822	0.001935	30.914	-27.4566	10.8033	-0.026214	0.071361	-1.123214	-1.124566	-0.036329	30.914	-1.122332	-9.994568E+14	3.634902E-17	NaN
1046	1.000000	0.082706	7.37528e+06	-52439.1	1055.82	-29749.1	0.000000	0.000000	6.082726	-0.094752	NaN	0.000000	0.001604	0.001708	28.0836	0.090486	0.001983	45.6295	103.498	-164.751	-0.020698	0.081476	-1.113221	-1.114450	-0.094752	45.6295	-1.111664	-7.188076E+14	1.318185E-16	NaN
1046	1.000000	0.092703	7.37528e+06	-52439.1	1055.82	-29749.1	0.000000	0.000000	6.092726	-0.039120	NaN	0.000000	0.001632	0.001730	28.0843	0.102186	0.001920	53.2204	78.4089	14.586	-0.006676	0.091406	-1.103223	-1.104520	-0.039120	53.2204	-1.102672	-5.444213E+14	7.185577E-17	NaN
1046	1.000000	0.102737	7.37528e+06	-52439.1	1055.82	-29749.1	0.000000	0.000000	6.102761	-0.011448	NaN	0.000000	0.001634	0.001761	28.0837	0.101775	0.002141	47.5349	100.882	-167.531	-0.029693	0.101404	-1.093190	-1.094522	-0.011448	47.5349	-1.093009	-4.038475E+14	2.834754E-17	NaN
1046	1.000000	0.112721	7.37528e+06	-52439.1	1055.82	-29749.1	0.000000	0.000000	6.112743	-0.057593	NaN	0.000000	0.001666	0.001744	28.0839	0.038257	0.001887	20.2781	83.0143	16.8614	-0.084592	0.111357	-1.083206	-1.084570	-0.057593	20.2781	-1.081076	-2.792331E+14	2.062528E-16	NaN
1046	1.000000	0.122759	7.37528e+06	-52439.1	1055.82	-29749.1	0.000000	0.000000	6.122780	-0.093775	NaN	0.000000	0.001631	0.001779	28.0824	0.061563	0.002115	29.1033	105.105	-167.139	-0.123502	0.121403	-1.073168	-1.074523	-0.093775	29.1033	-1.070751	-2.028997E+14	4.621737E-16	NaN
1046	1.000000	0.132729	7.37528e+06	-52439.1	1055.82	-29749.1	0.000000	0.000000	6.132751	-0.057540	NaN	0.000000	0.001644	0.001752	28.0827	0.063554	0.002139	29.7171	11.3664	13.4221	-0.035452	0.131393	-1.063197	-1.064534	-0.057540	29.7171	-1.061745	-1.535588E+14	3.747108E-16	NaN
1046	1.000000	0.142771	7.37528e+06	-52439.1	1055.82	-29749.1	0.000000	0.000000	6.142797	0.032712	NaN	0.000000	0.001625	0.001767	28.0821	0.026409	0.002060	12.8191	125.325	-164.724	0.015821	0.141459	-1.053155	-1.054468	0.032712	12.8191	-1.055069	-1.248973E+14	-2.619133E-16	NaN
1046	1.000000	0.152763	7.37528e+06	-52439.1	1055.82	-29749.1	0.000000	0.000000	6.152786	-0.057835	NaN	0.000000	0.001612	0.001710	28.0822	0.031089	0.001955	15.9008	-9.006778	15.0976	-0.009784	0.151361	-1.043163	-1.044566	-0.057835	15.9008	-1.040435	-7.939982E+13	7.284031E-16	NaN
1046	1.000000	0.162761	7.37528e+06	-52439.1	1055.82	-29749.1	0.000000	0.000000	6.162786	0.004680	NaN	0.000000	0.001609	0.001759	28.0823	0.126382	0.002045	61.7931	-172.159	-164.716	-0.022023	0.161492	-1.033166	-1.034435	0.004680	61.7931	-1.033223	-6.350774E+13	-7.369431E-17	NaN
1046	1.000000	0.172794	7.37528e+06	-52439.1	1055.82	-29749.1	0.000000	0.000000	6.172818	-0.009505	NaN	0.000000	0.001606	0.001747	28.0823	0.069437	0.001963	35.3735	-3.032164	14.7891	-0.004149	0.171445	-1.023133	-1.024482	-0.009505	35.3735	-1.022931	-4.617293E+13	2.058524E-16	NaN
1046	1.000000	0.182783	7.37528e+06	-52439.1	1055.82	-29749.1	0.000000	0.000000	6.182804	-0.091550	NaN	0.000000	0.001615	0.001795	28.082	0.141561	0.001957	72.3535	-52.3795	-165.162	-0.093386	0.181424	-1.013144	-1.014502	-0.091550	72.3535	-1.012195	-3.310708E+13	2.765258E-15	NaN
1046	1.000000	0.192774	7.37528e+06	-52439.1	1055.82	-29749.1	0.000000	0.000000	6.192795	-0.080887	NaN	0.000000	0.001579	0.001794	28.0822	0.093452	0.001919	48.6864	92.3983	12.1418	-0.158752	0.191455	-1.003153	-1.004471	-0.080887	48.6864	-1.001907	-2.406803E+13	3.360758E-15	NaN
1046	1.000000	0.202814	7.37528e+06	-52439.1	1055.82	-29749.1	0.000000	0.000000	6.202837	-0.030239	NaN	0.000000	0.001612	0.001761	28.0824	0.023336	0.002105	11.088	118.092	-164.203	-0.059491	0.201493	-0.993113	-0.994433	-0.030239	11.088	-0.991067	-1.719828E+13	1.758249E-15	NaN
1046	1.000000	0.212772	7.37528e+06	-52439.1	1055.82	-29749.1	0.000000	0.000000	6.212796	-0.020386	NaN	0.000000	0.001586	0.001770	28.082	0.098917	0.002112	46.8461	-145.372	16.9985	0.046280	0.211481	-0.983155	-0.984446	-0.020386	46.8461	-0.982828	-1.332024E+13	1.530455E-15	NaN
1046	1.000000	0.222788	7.37528e+06	-52439.1	1055.82	-29749.1	0.000000	0.000000	6.222812	-0.032076	NaN	0.000000	0.001611	0.001731	28.0819	0.039648	0.002100	18.8794	-136.309	-164.074	-0.080168	0.221490	-0.973138	-0.974437	-0.032076	18.8794	-0.971864	-9.479409E+12	3.383775E-15	NaN
1046	1.000000	0.232809	7.37528e+06	-52439.1	1055.82	-29749.1	0.000000	0.000000	6.232833	-0.006798	NaN	0.000000	0.001603	0.001757	28.0821	0.168148	0.001960	85.7766	-93.9486	16.0825	-0.008663	0.231449	-0.963118	-0.964478	-0.006798	85.7766	-0.963058	-7.212686E+12	9.424420E-16	NaN
1046	1.000000	0.242772	7.37528e+06	-52439.1	1055.82	-29749.1	0.000000	0.000000	6.242795	-0.043122	NaN	0.000000	0.001567	0.001720	28.0822	0.090609	0.002073	43.7175	117.886	-164.662	-0.064192	0.241433	-0.953154	-0.954493	-0.043122	43.7175	-0.952415	-5.183116E+12	8.319765E-15	NaN
1046	1.000000	0.252813	7.37528e+06	-52439.1	1055.82	-29749.1	0.000000	0.000000	6.252838	0.017298	NaN	0.000000	0.001564	0.001753	28.0834	0.023520	0.001974	11.9152	-147.525	13.4877	0.078373	0.251402	-0.943114	-0.944524	0.017298	11.9152	-0.944202	-4.016331E+12	-4.306807E-15	NaN
1046	1.000000	0.262806	7.37528e+06	-52439.1	1055.82	-29749.1	0.000000	0.000000	6.262834	0.069367	NaN	0.000000	0.001546	0.001752	28.0836	0.072184	0.002032	35.5294	-7.886089	-167.785	0.119528	0.261491	-0.933120	-0.934436	0.069367	35.5294	-0.934584	-2.978964E+12	-2.328555E-14	NaN
1046	1.000000	0.272806	7.37528e+06	-52439.1	1055.82	-29749.1	0.000000	0.000000	6.272830	-0.023288	NaN	0.000000	0.001585	0.001732	28.0837	0.100061	0.001872	53.4586	159.041	13.6452	-0.031697	0.271437	-0.923121	-0.924490	-0.023288	53.4586	-0.922794	-2.065037E+12	1.127717E-14	NaN
1046	1.000000	0.282835	7.37528e+06	-52439.1	1055.82	-29749.1	0.000000	0.000000	6.282861	0.019395	NaN	0.000000	0.001556	0.001736	28.0835	0.058229	0.002091	27.8461	114.887	-164.739	-0.031032	0.281562	-0.913091	-0.914364	0.019395	27.8461	-0.913614	-1.552281E+12	-1.249482E-14	NaN
1046	1.000000	0.292828	7.37528e+06	-52439.1	1055.82	-29749.1	0.000000	0.000000	6.292848	-0.118977	NaN	0.000000	0.001584	0.001698	28.0833	0.111662	0.002072	53.8818	29.5452	16.3602	-0.080401	0.291491	-0.903099	-0.904436	-0.118977	53.8818	-0.901443	-1.063060E+12	1.119192E-13	NaN
1046	1.000000	0.302837	7.37528e+06	-52439.1	1055.82	-29749.1	0.000000	0.000000	6.302862	0.007316	NaN	0.000000	0.001617	0.001728	28.0836	0.126634	0.002116	59.8479	171.094	-164.587	-0.002134	0.301497	-0.893090	-0.894429	0.007316	59.8479	-0.893181	-8.220902E+11	-8.899626E-15	NaN
1046	1.000000	0.312849	7.37528e+06	-52439.1	1055.82	-29749.1	0.000000	0.000000	6.312873	-0.025061	NaN	0.000000	0.001601	0.001747	28.0836	0.037102	0.001977	18.7672	86.6032	12.238	-0.027898	0.311477	-0.883077	-0.884449	-0.025061	18.7672	-0.882076	-5.818073E+11	4.307514E-14	NaN
1046	1.000000	0.322841	7.37528e+06	-52439.1	1055.82	-29749.1	0.000000	0.000000	6.322863	-0.083373	NaN	0.000000	0.001600	0.001703	28.0836	0.069227	0.002031	34.0832	41.8121	-164.765	-0.116455	0.321504	-0.873085	-0.874423	-0.083373	34.0832	-0.871251	-4.153031E+11	2.007533E-13	NaN
1046	1.000000	0.332859	7.37528e+06	-52439.1	1055.82	-29749.1	0.000000	0.000000	6.332882	-0.039708	NaN	0.000000	0.001609	0.001731	28.0835	0.107060	0.001966	54.4625	-5.949809	14.8138	-0.027216	0.331489	-0.863068	-0.864438	-0.039708	54.4625	-0.862521	-3.164025E+11	1.254986E-13	NaN
1046	1.000000	0.342845	7.37528e+06	-52439.1	1055.82	-29749.1	0.000000	0.000000	6.342868	-0.035681	NaN	0.000000	0.001587	0.001726	28.0838	0.013288	0.002047	6.492059	40.327	-165.481	-0.082211	0.341544	-0.853082	-0.854383	-0.035681	6.492059	-0.848960	-2.073264E+11	1.720996E-13	NaN
1046	1.000000	0.352868	7.37528e+06	-52439.1	1055.82	-29749.1	0.000000	0.000000	6.352889	-0.105617	NaN	0.000000	0.001587	0.001779	28.0839	0.066985	0.002095	31.9763	108.625	13.4777	-0.076509	0.351492	-0.843058	-0.844435	-0.105617	31.9763	-0.840581	-1.596487E+11	6.615571E-13	NaN
1046	1.000000	0.362853	7.37528e+06	-52439.1	1055.82	-29749.1	0.000000	0.000000	6.362877	-0.008257	NaN	0.000000	0.001576	0.001740	28.0838	0.025886	0.002009	12.8836	62.7495	-168.134	-0.074025	0.361526	-0.833074	-0.834401	-0.008257	12.8836	-0.832593	-1.244317E+11	6.635407E-14	NaN
1046	1.000000	0.372834	7.37528e+06	-52439.1	1055.82	-29749.1	0.000000	0.000000	6.372855	-0.086053	NaN	0.000000	0.001531	0.001772	28.0835	0.037590	0.002002	18.7761	-133.871	13.1274	-0.047287	0.371505	-0.823093	-0.824422	-0.086053	18.7761	-0.819655	-8.308802E+10	1.035679E-12	NaN
1046	1.000000	0.382852	7.37528e+06	-52439.1	1055.82	-29749.1	0.000000	0.000000	6.382873	-0.105764	NaN	0.000000	0.001581	0.001763	28.084	0.082066	0.001989	41.2584	-109.822	-164.197	-0.052190	0.381494	-0.813074	-0.814433	-0.105764	41.2584	-0.811152	-6.370823E+10	1.660125E-12	NaN
1046	1.000000	0.392857	7.37528e+06	-52439.1	1055.82	-29749.1	0.000000	0.000000	6.392881	-0.037738	NaN	0.000000	0.001636	0.001734	28.0826	0.096592	0.002109	45.8021	104.073	15.0664	0.042034	0.391523	-0.803069	-0.804404	-0.037738	45.8021	-0.802451	-4.854377E+10	7.774090E-13	NaN
1046	1.000000	0.402868	7.37528e+06	-52439.1	1055.82	-29749.1	0.000000	0.000000	6.402893	-0.003370	NaN	0.000000	0.001577	0.001758	28.0825	0.078684	0.001924	40.902	171.964	-166.681	0.076673	0.401566	-0.793058	-0.794361	-0.003370	40.902	-0.792997	-3.612269E+10	9.328291E-14	NaN
1046	1.000000	0.412858	7.37528e+06	-52439.1	1055.82	-29749.1	0.000000	0.000000	6.412880	-0.061724	NaN	0.000000	0.001572	0.001721	28.0825	0.066194	0.001988	33.2891	-38.1817	15.5709	-0.103058	0.411504	-0.783068	-0.784423	-0.061724	33.2891	-0.781678	-2.535304E+10	2.434575E-12	NaN
1046	1.000000	0.422870	7.37528e+06	-52439.1	1055.82	-29749.1	0.000000	0.000000	6.422894	-0.035966	NaN	0.000000	0.001578	0.001720	28.0826	0.133464	0.002039	65.4434	86.5131	-167.427	-0.005141	0.421622	-0.773056	-0.774305	-0.035966	65.4434	-0.772644	-1.910964E+10	1.882067E-12	NaN
1046	1.000000	0.432875	7.37528e+06	-52439.1	1055.82	-29749.1	0.000000	0.000000	6.432898	-0.055769	NaN	0.000000	0.001552	0.001698	28.0823	0.100342	0.001982	50.6252	87.9834	16.6709	0.011431	0.431567	-0.763051	-0.764360	-0.055769	50.6252	-0.762225	-1.379015E+10	4.044100E-12	NaN
1046	1.000000	0.442871	7.37528e+06	-52439.1	1055.82	-29749.1	0.000000	0.000000	6.442897	0.027839	NaN	0.000000	0.001545	0.001726	28.0824	0.051550	0.001951	26.4192	121.751	-162.62	-0.156736	0.441608	-0.753056	-0.754318	0.027839	26.4192	-0.753846	-1.060639E+10	-2.624784E-12	NaN
1046	1.000000	0.452868	7.37528e+06	-52439.1	1055.82	-29749.1	0.000000	0.000000	6.452892	-0.033564	NaN	0.000000	0.001582	0.001738	28.0822	0.020595	0.001949	10.5652	-95.9818	15.4591	-0.103969	0.451483	-0.743058	-0.744444	-0.033564	10.5652	-0.740676	-7.018712E+9	4.782014E-12	NaN
1046	1.000000	0.462865	7.37528e+06	-52439.1	1055.82	-29749.1	0.000000	0.000000	6.462887	-0.048244	NaN	0.000000	0.001581	0.001733	28.0825	0.109482	0.002021	54.173	25.6591	-162.772	-0.035900	0.461584	-0.733062	-0.734342	-0.048244	54.173	-0.732394	-5.412954E+9	8.912711E-12	NaN
1046	1.000000	0.472910	7.37528e+06	-52439.1	1055.82	-29749.1	0.000000	0.000000	6.472933	-0.053813	NaN	0.000000	0.001550	0.001716	28.0823	0.020698	0.001878	11.0189	-83.8405	14.6554	-0.038853	0.471548	-0.723016	-0.724379	-0.053813	11.0189	-0.719353	-3.594630E+9	1.497045E-11	NaN
1046	1.000000	0.482899	7.37528e+06	-52439.1	1055.82	-29749.1	0.000000	0.000000	6.482922	-0.043737	NaN	0.000000	0.001536	0.001777	28.0824	0.050815	0.002102	24.1688	-25.0205	-162.246	0.048962	0.481585	-0.713028	-0.714342	-0.043737	24.1688	-0.711671	-2.823889E+9	1.548835E-11	NaN
1046	1.000000	0.492899	7.37528e+06	-52439.1	1055.82	-29749.1	0.000000	0.000000	6.492923	-0.012546	NaN	0.000000	0.001558	0.001768	28.0823	0.063839	0.002066	30.903	-169.838	15.6562	0.044519	0.491551	-0.703028	-0.704376	-0.012546	30.903	-0.702723	-2.131664E+9	5.885687E-12	NaN
1046	1.000000	0.502907	7.37528e+06	-52439.1	1055.82	-29749.1	0.000000	0.000000	6.502930	-0.026342	NaN	0.000000	0.001599	0.001755	28.0825	0.075169	0.002107	35.6808	-8.854412	-166.994	0.000724	0.501623	-0.693020	-0.694304	-0.026342	35.6808	-0.692466	-1.543905E+9	1.706191E-11	NaN
1046	1.000000	0.512927	7.37528e+06	-52439.1	1055.82	-29749.1	0.000000	0.000000	6.512952	0.010818	NaN	0.000000	0.001610	0.001791	28.0822	0.081324	0.002037	39.9225	71.9855	12.0548	0.025943	0.511586	-0.683000	-0.684341	0.010818	39.9225	-0.683203	-1.153478E+9	-9.378529E-12	NaN
1046	1.000000	0.522930	7.37528e+06	-52439.1	1055.82	-29749.1	0.000000	0.000000	6.522954	-0.020727	NaN	0.000000	0.001617	0.001813	28.083	0.068900	0.001970	34.9675	5.759870	-166.049	0.011740	0.521566	-0.672996	-0.674361	-0.020727	34.9675	-0.672552	-8.247349E+8	2.513135E-11	NaN
1046	1.000000	0.532940	7.37528e+06	-52439.1	1055.82	-29749.1	0.000000	0.000000	6.532961	-0.079922	NaN	0.000000	0.001589	0.001769	28.0839	0.118810	0.002005	59.2544	5.701665	13.7272	-0.123066	0.531563	-0.662987	-0.664364	-0.079922	59.2544	-0.661975	-5.909124E+8	1.352518E-10	NaN
1046	1.000000	0.542958	7.37528e+06	-52439.1	1055.82	-29749.1	0.000000	0.000000	6.542980	-0.052694	NaN	0.000000	0.001580	0.001792	28.0836	0.074355	0.002089	35.5958	-109.073	-164.156	-0.060158	0.541676	-0.652969	-0.654251	-0.052694	35.5958	-0.651858	-4.294487E+8	1.227023E-10	NaN
1046	1.000000	0.552942	7.37528e+06	-52439.1	1055.82	-29749.1	0.000000	0.000000	6.552964	-0.076998	NaN	0.000000	0.001596	0.001751	28.0837	0.041646	0.001940	21.4617	-166.766	18.9978	-0.074478	0.551564	-0.642985	-0.644363	-0.076998	21.4617	-0.640294	-2.980717E+8	2.583197E-10	NaN
1046	1.000000	0.562945	7.37528e+06	-52439.1	1055.82	-29749.1	0.000000	0.000000	6.562971	0.017391	NaN	0.000000	0.001626	0.001755	28.0834	0.081258	0.001968	41.2899	-21.9899	-162.43	0.043654	0.561593	-0.632981	-0.634333	0.017391	41.2899	-0.633297	-2.389434E+8	-7.278084E-11	NaN
1046	1.000000	0.572927	7.37528e+06	-52439.1	1055.82	-29749.1	0.000000	0.000000	6.572952	-0.006336	NaN	0.000000	0.001665	0.001745	28.0836	0.064129	0.002022	31.7162	110.929	11.6962	-0.033685	0.571611	-0.622999	-0.624316	-0.006336	31.7162	-0.622850	-1.717106E+8	3.689711E-11	NaN
1046	1.000000	0.582926	7.37528e+06	-52439.1	1055.82	-29749.1	0.000000	0.000000	6.582949	-0.043859	NaN	0.000000	0.001671	0.001721	28.0834	0.087745	0.001991	44.0617	-146.762	-163.189	0.011566	0.581663	-0.613001	-0.614263	-0.043859	44.0617	-0.612254	-1.227801E+8	3.572187E-10	NaN
1046	1.000000	0.592956	7.37528e+06	-52439.1	1055.82	-29749.1	0.000000	0.000000	6.592981	0.009926	NaN	0.000000	0.001669	0.001737	28.0837	0.097153	0.002013	48.2633	138.589	16.1499	0.021993	0.591571	-0.602971	-0.604356	0.009926	48.2633	-0.603125	-9.193717E+7	-1.079659E-10	NaN
1046	1.000000	0.602933	7.37528e+06	-52439.1	1055.82	-29749.1	0.000000	0.000000	6.602960	0.045704	NaN	0.000000	0.001692	0.001744	28.0836	0.020498	0.002063	9.935997	-66.5233	-166.968	-0.071322	0.601656	-0.592993	-0.594270	0.045704	9.935997	-0.596443	-7.438219E+7	-6.144513E-10	NaN
1046	1.000000	0.612947	7.37528e+06	-52439.1	1055.82	-29749.1	0.000000	0.000000	6.612973	0.024102	NaN	0.000000	0.001663	0.001734	28.0837	0.141123	0.002010	70.215	-171.953	16.9422	-0.090645	0.611597	-0.582979	-0.584329	0.024102	70.215	-0.583237	-4.890925E+7	-4.927852E-10	NaN
1046	1.000000	0.622949	7.37528e+06	-52439.1	1055.82	-29749.1	0.000000	0.000000	6.622970	-0.085207	NaN	0.000000	0.001686	0.001760	28.0835	0.087547	0.002109	41.5165	-56.6054	-164.678	-0.070858	0.621649	-0.572977	-0.574277	-0.085207	41.5165	-0.571438	-3.361245E+7	2.534993E-9	NaN
1046	1.000000	0.632978	7.37528e+06	-52439.1	1055.82	-29749.1	0.000000	0.000000	6.633002	-0.004570	NaN	0.000000	0.001660	0.001792	28.0837	0.054130	0.001879	28.8142	154.241	16.289	0.048574	0.631579	-0.562949	-0.564348	-0.004570	28.8142	-0.562830	-2.555750E+7	1.787975E-10	NaN
1046	1.000000	0.642965	7.37528e+06	-52439.1	1055.82	-29749.1	0.000000	0.000000	6.642989	-0.019786	NaN	0.000000	0.001708	0.001726	28.0835	0.028117	0.001854	15.1688	58.6037	-163.533	-0.005458	0.641642	-0.552961	-0.554284	-0.019786	15.1688	-0.551983	-1.808906E+7	1.093831E-9	NaN
1046	1.000000	0.652977	7.37528e+06	-52439.1	1055.82	-29749.1	0.000000	0.000000	6.652999	-0.068097	NaN	0.000000	0.001695	0.001756	28.0836	0.040638	0.001915	21.2231	110.847	18.0646	-0.039020	0.651611	-0.542949	-0.544316	-0.068097	21.2231	-0.540543	-1.255707E+7	5.422992E-9	NaN
1046	1.000000	0.663012	7.37528e+06	-52439.1	1055.82	-29749.1	0.000000	0.000000	6.663037	0.009201	NaN	0.000000	0.001724	0.001828	28.0823	0.024692	0.002024	12.1996	78.4041	-160.953	0.013302	0.661623	-0.532914	-0.534304	0.009201	12.1996	-0.533480	-1.002060E+7	-9.182125E-10	NaN
1046	1.000000	0.672995	7.37528e+06	-52439.1	1055.82	-29749.1	0.000000	0.000000	6.673018	-0.046198	NaN	0.000000	0.001631	0.001740	28.0826	0.122560	0.001966	62.3302	-106.965	11.0311	-0.030988	0.671621	-0.522931	-0.524305	-0.046198	62.3302	-0.522375	-7.02471e+06	6.576556E-9	NaN
1046	1.000000	0.682981	7.37528e+06	-52439.1	1055.82	-29749.1	0.000000	0.000000	6.683007	0.047758	NaN	0.000000	0.001673	0.001774	28.0822	0.100196	0.001993	50.281	151.691	-168.272	0.023966	0.681686	-0.512946	-0.514241	0.047758	50.281	-0.513658	-5.3132e+06	-8.988466E-9	NaN
1046	1.000000	0.693008	7.37528e+06	-52439.1	1055.82	-29749.1	0.000000	0.000000	6.693029	-0.105045	NaN	0.000000	0.001682	0.001730	28.0824	0.034189	0.002066	16.5518	-169.944	15.5378	0.029966	0.691656	-0.502918	-0.504270	-0.105045	16.5518	-0.498158	-3.23089e+06	3.251260E-8	NaN
1046	1.000000	0.702994	7.37528e+06	-52439.1	1055.82	-29749.1	0.000000	0.000000	6.703018	-0.018542	NaN	0.000000	0.001699	0.001731	28.0823	0.175329	0.002121	82.6702	15.4399	-165.793	-0.042641	0.701693	-0.492932	-0.494234	-0.018542	82.6702	-0.492764	-2.71651e+06	6.825684E-9	NaN
1046	1.000000	0.713027	7.37528e+06	-52439.1	1055.82	-29749.1	0.000000	0.000000	6.713053	0.024307	NaN	0.000000	0.001683	0.001759	28.0823	0.083641	0.001979	42.2622	-78.3343	17.5178	-0.042954	0.711621	-0.482900	-0.484305	0.024307	42.2622	-0.483331	-2.00514e+06	-1.212251E-8	NaN
1046	1.000000	0.722982	7.37528e+06	-52439.1	1055.82	-29749.1	0.000000	0.000000	6.723008	0.039171	NaN	0.000000	0.001644	0.001734	28.0819	0.119057	0.002014	59.1132	154.723	-159.213	0.021116	0.721700	-0.472945	-0.474227	0.039171	59.1132	-0.473442	-1.45768e+06	-2.687185E-8	NaN
1046	1.000000	0.733023	7.37528e+06	-52439.1	1055.82	-29749.1	0.000000	0.000000	6.733048	-0.011346	NaN	0.000000	0.001653	0.001730	28.0819	0.006680	0.002029	3.291652	65.0803	16.035	0.005646	0.731599	-0.462903	-0.464327	-0.011346	3.291652	-0.460318	-953868	1.189489E-8	NaN
1046	1.000000	0.743026	7.37528e+06	-52439.1	1055.82	-29749.1	0.000000	0.000000	6.743049	-0.054829	NaN	0.000000	0.001648	0.001752	28.0821	0.108689	0.002071	52.4912	19.6674	-166.247	-0.029612	0.741723	-0.452900	-0.454204	-0.054829	52.4912	-0.452117	-731385	7.496599E-8	NaN
1046	1.000000	0.753026	7.37528e+06	-52439.1	1055.82	-29749.1	0.000000	0.000000	6.753048	-0.066554	NaN	0.000000	0.001678	0.001741	28.0823	0.072679	0.001965	36.9898	173.073	13.0153	-0.121946	0.751657	-0.442901	-0.444269	-0.066554	36.9898	-0.441551	-519104	1.282087E-7	NaN
1046	1.000000	0.763019	7.37528e+06	-52439.1	1055.82	-29749.1	0.000000	0.000000	6.763040	-0.105675	NaN	0.000000	0.001619	0.001785	28.0822	0.064138	0.001966	32.6242	-49.5157	-163.509	-0.012323	0.761695	-0.432907	-0.434232	-0.105675	32.6242	-0.430478	-362094	2.918433E-7	NaN
1046	1.000000	0.773053	7.37528e+06	-52439.1	1055.82	-29749.1	0.000000	0.000000	6.773075	-0.079361	NaN	0.000000	0.001658	0.001747	28.082	0.047312	0.001961	24.1307	73.9415	12.706	-0.063930	0.771639	-0.422873	-0.424288	-0.079361	24.1307	-0.420407	-260726	3.043833E-7	NaN
1046	1.000000	0.783033	7.37528e+06	-52439.1	1055.82	-29749.1	0.000000	0.000000	6.783055	-0.062851	NaN	0.000000	0.001700	0.001743	28.0823	0.095837	0.002018	47.4902	62.8057	-167.306	-0.099433	0.781734	-0.412894	-0.414192	-0.062851	47.4902	-0.411901	-197438	3.183330E-7	NaN
1046	1.000000	0.793032	7.37528e+06	-52439.1	1055.82	-29749.1	0.000000	0.000000	6.793054	-0.065151	NaN	0.000000	0.001647	0.001761	28.0821	0.058793	0.002008	29.2836	66.202	15.5729	-2.142365E-5	0.791713	-0.402895	-0.404214	-0.065151	29.2836	-0.401226	-139148	4.682108E-7	NaN
1046	1.000000	0.803027	7.37528e+06	-52439.1	1055.82	-29749.1	0.000000	0.000000	6.803048	-0.095891	NaN	0.000000	0.001664	0.001740	28.0835	0.065185	0.001976	32.9935	-54.3755	-167.09	-0.028933	0.801689	-0.392900	-0.394238	-0.095891	32.9935	-0.390720	-98506.1	9.734495E-7	NaN
1046	1.000000	0.813035	7.37528e+06	-52439.1	1055.82	-29749.1	0.000000	0.000000	6.813061	0.033617	NaN	0.000000	0.001709	0.001731	28.0835	0.103992	0.001926	53.9837	-172.801	16.4492	-0.004982	0.811695	-0.382891	-0.384232	0.033617	53.9837	-0.383358	-77278.8	-4.350077E-7	NaN
1046	1.000000	0.823078	7.37528e+06	-52439.1	1055.82	-29749.1	0.000000	0.000000	6.823101	-0.043911	NaN	0.000000	0.001658	0.001770	28.0839	0.047572	0.002055	23.1542	28.3683	-163.442	-0.029895	0.821711	-0.372849	-0.374215	-0.043911	23.1542	-0.371427	-52079.6	8.431524E-7	NaN
1046	1.000000	0.833045	7.37528e+06	-52439.1	1055.82	-29749.1	0.000000	0.000000	6.833067	-0.060252	NaN	0.000000	0.001670	0.001776	28.0836	0.037676	0.002041	18.4629	-65.9732	13.6186	-0.050300	0.831728	-0.362882	-0.364199	-0.060252	18.4629	-0.360434	-36151	1.666685E-6	NaN
1046	1.000000	0.843056	7.37528e+06	-52439.1	1055.82	-29749.1	0.000000	0.000000	6.843082	0.033777	NaN	0.000000	0.001664	0.001780	28.0836	0.080779	0.001975	40.8917	-27.0378	-167.276	-0.021898	0.841797	-0.352871	-0.354129	0.033777	40.8917	-0.353490	-28682.8	-1.177592E-6	NaN
1046	1.000000	0.853049	7.37528e+06	-52439.1	1055.82	-29749.1	0.000000	0.000000	6.853072	-0.049233	NaN	0.000000	0.001700	0.001735	28.0836	0.091807	0.001972	46.5544	-126.747	17.0635	0.002729	0.851678	-0.342878	-0.344249	-0.049233	46.5544	-0.342085	-19585.1	2.513818E-6	NaN
1046	1.000000	0.863064	7.37528e+06	-52439.1	1055.82	-29749.1	0.000000	0.000000	6.863084	-0.112774	NaN	0.000000	0.001668	0.001720	28.0833	0.053339	0.001954	27.2997	-141.117	-166.326	-0.055312	0.861753	-0.332862	-0.334174	-0.112774	27.2997	-0.329764	-12941.9	8.713847E-6	NaN
1046	1.000000	0.873068	7.37528e+06	-52439.1	1055.82	-29749.1	0.000000	0.000000	6.873092	-0.016189	NaN	0.000000	0.001662	0.001724	28.0832	0.007164	0.001888	3.794716	-167.996	9.111629	-0.087661	0.871720	-0.322859	-0.324206	-0.016189	3.794716	-0.319659	-9196.53	1.760321E-6	NaN
1046	1.000000	0.883078	7.37528e+06	-52439.1	1055.82	-29749.1	0.000000	0.000000	6.883101	-0.032449	NaN	0.000000	0.001680	0.001751	28.0833	0.072010	0.002050	35.1218	89.5625	-164.994	-0.026815	0.881748	-0.312849	-0.314179	-0.032449	35.1218	-0.312156	-7127.6	4.552536E-6	NaN
1046	1.000000	0.893058	7.37528e+06	-52439.1	1055.82	-29749.1	0.000000	0.000000	6.893080	-0.064556	NaN	0.000000	0.001645	0.001756	28.0837	0.100461	0.002135	47.0597	-61.7162	14.5021	-0.095934	0.891725	-0.302869	-0.304201	-0.064556	47.0597	-0.301840	-5011.99	1.288025E-5	NaN
1046	1.000000	0.903035	7.37528e+06	-52439.1	1055.82	-29749.1	0.000000	0.000000	6.903060	0.005202	NaN	0.000000	0.001630	0.001737	28.0832	0.033744	0.001941	17.3862	-160.512	-164.339	-0.042334	0.901769	-0.292891	-0.294158	0.005202	17.3862	-0.293116	-3714.77	-1.400462E-6	NaN
1046	1.000000	0.913056	7.37528e+06	-52439.1	1055.82	-29749.1	0.000000	0.000000	6.913083	0.042955	NaN	0.000000	0.001620	0.001772	28.0833	0.083934	0.002054	40.8547	-55.8839	14.6603	-0.056874	0.911667	-0.282870	-0.284260	0.042955	40.8547	-0.283659	-2679.75	-1.602941E-5	NaN
1046	1.000000	0.923080	7.37528e+06	-52439.1	1055.82	-29749.1	0.000000	0.000000	6.923106	0.019038	NaN	0.000000	0.001622	0.001731	28.0835	0.004540	0.001968	2.306529	55.2744	-164.418	0.022599	0.921788	-0.272846	-0.274139	0.019038	2.306529	-0.279037	-2282.62	-8.340512E-6	NaN
1046	1.000000	0.933082	7.37528e+06	-52439.1	1055.82	-29749.1	0.000000	0.000000	6.933106	-0.018280	NaN	0.000000	0.001592	0.001745	28.0828	0.011959	0.001953	6.122009	33.5791	13.5199	-0.049353	0.931675	-0.262845	-0.264252	-0.018280	6.122009	-0.260605	-1197.28	1.526773E-5	NaN
1046	1.000000	0.943096	7.37528e+06	-52439.1	1055.82	-29749.1	0.000000	0.000000	6.943118	-0.054308	NaN	0.000000	0.001625	0.001771	28.0822	0.015614	0.001955	7.987854	152.325	-165.74	0.019184	0.941751	-0.252831	-0.254175	-0.054308	7.987854	-0.247732	-758.313	7.161719E-5	NaN
1046	1.000000	0.953085	7.37528e+06	-52439.1	1055.82	-29749.1	0.000000	0.000000	6.953109	-0.007065	NaN	0.000000	0.001612	0.001737	28.0821	0.069368	0.002019	34.3509	8.187681	14.2784	-0.047139	0.951753	-0.242842	-0.244173	-0.007065	34.3509	-0.242688	-633.103	1.115941E-5	NaN
1046	1.000000	0.963102	7.37528e+06	-52439.1	1055.82	-29749.1	0.000000	0.000000	6.963125	-0.038362	NaN	0.000000	0.001638	0.001705	28.0822	0.112243	0.001918	58.5065	-95.0657	-164.062	-0.031288	0.961776	-0.232825	-0.234151	-0.038362	58.5065	-0.232333	-435.822	8.802181E-5	NaN
1046	1.000000	0.973083	7.37528e+06	-52439.1	1055.82	-29749.1	0.000000	0.000000	6.973106	-0.025899	NaN	0.000000	0.001594	0.001762	28.0819	0.065624	0.001967	33.3699	163.271	13.3786	-0.044399	0.971781	-0.222844	-0.224145	-0.025899	33.3699	-0.222262	-301.838	8.580431E-5	NaN
1046	1.000000	0.983110	7.37528e+06	-52439.1	1055.82	-29749.1	0.000000	0.000000	6.983132	-0.074261	NaN	0.000000	0.001626	0.001745	28.0821	0.122663	0.002022	60.6622	-135.686	-162.394	-0.049195	0.981803	-0.212817	-0.214124	-0.074261	60.6622	-0.211898	-205.836	0.000361	NaN
1046	1.000000	0.993100	7.37528e+06	-52439.1	1055.82	-29749.1	0.000000	0.000000	6.993123	-0.037038	NaN	0.000000	0.001611	0.001756	28.0818	0.048420	0.001934	25.0344	-3.708667	17.7174	-0.078892	0.991784	-0.202826	-0.204142	-0.037038	25.0344	-0.201717	-140.565	0.000263	NaN
1046	1.000000	1.003128	7.37528e+06	-52439.1	1055.82	-29749.1	0.000000	0.000000	7.003151	-0.044991	NaN	0.000000	0.001562	0.001764	28.082	0.143172	0.002099	68.2144	-89.5195	-164.598	-0.112403	1.001842	-0.192798	-0.194084	-0.044991	68.2144	-0.192304	-98.2739	0.000458	NaN
1046	1.000000	1.013116	7.37528e+06	-52439.1	1055.82	-29749.1	0.000000	0.000000	7.013141	0.006547	NaN	0.000000	0.001622	0.001770	28.0819	0.061190	0.002032	30.1158	115.255	15.6639	-0.049686	1.011770	-0.182810	-0.184157	0.006547	30.1158	-0.182973	-68.5348	-9.552722E-5	NaN
1046	1.000000	1.023089	7.37528e+06	-52439.1	1055.82	-29749.1	0.000000	0.000000	7.023109	-0.129583	NaN	0.000000	0.001564	0.001746	28.082	0.097955	0.002059	47.569	179.961	-165.12	-0.090190	1.021823	-0.172837	-0.174104	-0.129583	47.569	-0.170794	-42.4028	0.003056	NaN
1046	1.000000	1.033146	7.37528e+06	-52439.1	1055.82	-29749.1	0.000000	0.000000	7.033168	-0.047788	NaN	0.000000	0.001601	0.001724	28.082	0.077275	0.001896	40.7509	-101.016	16.8813	0.017886	1.031777	-0.162781	-0.164150	-0.047788	40.7509	-0.161901	-29.6275	0.001613	NaN
1046	1.000000	1.043149	7.37528e+06	-52439.1	1055.82	-29749.1	0.000000	0.000000	7.043173	-0.018551	NaN	0.000000	0.001610	0.001713	28.0823	0.046656	0.002107	22.1449	90.833	-164.518	-0.099248	1.041811	-0.152778	-0.154116	-0.018551	22.1449	-0.152150	-19.8196	0.000936	NaN
1046	1.000000	1.053121	7.37528e+06	-52439.1	1055.82	-29749.1	0.000000	0.000000	7.053145	-0.011514	NaN	0.000000	0.001629	0.001723	28.0819	0.040124	0.001946	20.6177	81.1749	14.6124	-0.046836	1.051840	-0.142805	-0.144087	-0.011514	20.6177	-0.142387	-13.1109	0.000878	NaN
1046	1.000000	1.063124	7.37528e+06	-52439.1	1055.82	-29749.1	0.000000	0.000000	7.063151	0.059633	NaN	0.000000	0.001612	0.001724	28.0818	0.086409	0.001874	46.1115	115.462	-168.064	0.012443	1.061861	-0.132803	-0.134066	0.059633	46.1115	-0.133773	-9.011884	-0.006617	NaN
1046	1.000000	1.073125	7.37528e+06	-52439.1	1055.82	-29749.1	0.000000	0.000000	7.073152	0.042612	NaN	0.000000	0.001618	0.001777	28.0834	0.148972	0.001855	80.3183	-51.3332	13.7506	-0.031795	1.071774	-0.122801	-0.124153	0.042612	80.3183	-0.123199	-5.600619	-0.007608	NaN
1046	1.000000	1.083149	7.37528e+06	-52439.1	1055.82	-29749.1	0.000000	0.000000	7.083173	-0.024776	NaN	0.000000	0.001610	0.001704	28.0833	0.051481	0.002018	25.5087	-36.8555	-164.746	-0.031410	1.081812	-0.112777	-0.114115	-0.024776	25.5087	-0.112049	-3.317974	0.007467	NaN
1046	1.000000	1.093136	7.37528e+06	-52439.1	1055.82	-29749.1	0.000000	0.000000	7.093159	-0.035711	NaN	0.000000	0.001602	0.001685	28.0831	0.086946	0.002069	42.0196	-149.007	14.6092	-0.068663	1.091784	-0.102791	-0.104142	-0.035711	42.0196	-0.102153	-2.038124	0.017522	NaN
1046	1.000000	1.103194	7.37528e+06	-52439.1	1055.82	-29749.1	0.000000	0.000000	7.103217	-0.029451	NaN	0.000000	0.001604	0.001707	28.0828	0.110093	0.002069	53.204	-10.9463	-170.382	-0.045451	1.101818	-0.092733	-0.094109	-0.029451	53.204	-0.092318	-1.224125	0.024058	NaN
1046	1.000000	1.113154	7.37528e+06	-52439.1	1055.82	-29749.1	0.000000	0.000000	7.113175	-0.083547	NaN	0.000000	0.001617	0.001727	28.0833	0.056311	0.002111	26.6694	132.063	14.512	-0.094204	1.111775	-0.082773	-0.084152	-0.083547	26.6694	-0.080423	-0.634243	0.131727	NaN
1046	1.000000	1.123142	7.37528e+06	-52439.1	1055.82	-29749.1	0.000000	0.000000	7.123166	-0.003610	NaN	0.000000	0.001605	0.001759	28.0828	0.008633	0.001896	4.552481	-140.389	-163.618	-0.101608	1.121847	-0.072785	-0.074080	-0.003610	4.552481	-0.072190	-0.390044	0.009255	NaN
1046	1.000000	1.133193	7.37528e+06	-52439.1	1055.82	-29749.1	0.000000	0.000000	7.133215	-0.057128	NaN	0.000000	0.001627	0.001739	28.0831	0.081547	0.002004	40.6952	-109.979	11.5852	-0.183001	1.131797	-0.062734	-0.064130	-0.057128	40.6952	-0.061681	-0.201119	0.284053	NaN
1046	1.000000	1.143182	7.37528e+06	-52439.1	1055.82	-29749.1	0.000000	0.000000	7.143205	-0.042535	NaN	0.000000	0.001618	0.001768	28.083	0.071093	0.002197	32.3627	172.139	-162.833	-0.052382	1.141935	-0.052745	-0.053991	-0.042535	32.3627	-0.051759	-0.103100	0.412563	NaN
1046	1.000000	1.153181	7.37528e+06	-52439.1	1055.82	-29749.1	0.000000	0.000000	7.153204	-0.047194	NaN	0.000000	0.001624	0.001771	28.0833	0.065783	0.002106	31.2428	-8.512521	13.5291	-0.007841	1.151845	-0.042746	-0.044081	-0.047194	31.2428	-0.041613	-0.050635	0.932037	NaN
1046	1.000000	1.163147	7.37528e+06	-52439.1	1055.82	-29749.1	0.000000	0.000000	7.163167	-0.096870	NaN	0.000000	0.001651	0.001720	28.0833	0.055335	0.001947	28.4134	-144.07	-162.499	-0.034155	1.161871	-0.032780	-0.034056	-0.096870	28.4134	-0.030223	-0.023345	4.149506	NaN
1046	1.000000	1.173219	7.37528e+06	-52439.1	1055.82	-29749.1	0.000000	0.000000	7.173241	-0.051482	NaN	0.000000	0.001590	0.001721	28.0843	0.021766	0.002084	10.4418	-8.791322	10.6853	-0.122001	1.171801	-0.022708	-0.024125	-0.051482	10.4418	-0.019010	-0.011851	4.344038	NaN
1046	1.000000	1.183149	7.37528e+06	-52439.1	1055.82	-29749.1	0.000000	0.000000	7.183169	-0.117802	NaN	0.000000	0.001613	0.001682	28.0831	0.039710	0.002014	19.7141	-9.366681	-165.612	-0.073222	1.181916	-0.012778	-0.014011	-0.117802	19.7141	-0.008296	-0.005405	21.7963	NaN
1046	1.000000	1.193195	7.37528e+06	-52439.1	1055.82	-29749.1	0.000000	0.000000	7.193240	0.487865	NaN	0.000000	0.001589	0.001720	28.0834	1.029692	0.001986	518.469	7.500159	16.5818	0.098545	1.191773	-0.002731	-0.004154	0.487865	518.469	-0.003437	-0.002411	-202.359	NaN
1046	2.000000	1.201795	7.37528e+06	-52439.1	1055.82	-29749.1	0.000000	0.000000	7.202139	7.754205	NaN	0.000000	0.001636	0.001736	28.0831	9.030797	0.001653	5461.8	7.291555	-170.596	7.986404	1.201394	0.005868	0.005467	7.754205	5461.8	0.004804	0.003955	1960.63	79348.4
1046	2.000000	1.204282	7.37528e+06	-52439.1	1055.82	-29749.1	0.000000	0.000000	7.204806	12.1463	NaN	0.000000	0.001564	0.001734	28.0818	11.519	0.001605	7176.29	6.498606	8.899144	11.6825	1.203951	0.008355	0.008025	12.1463	7176.29	0.007086	0.006119	1985.06	83818.3
1046	2.000000	1.206766	7.37528e+06	-52439.1	1055.82	-29749.1	0.000000	0.000000	7.207467	16.4372	NaN	0.000000	0.001624	0.001771	28.0821	14.6589	0.001671	8772.54	8.683295	-175.791	16.1376	1.206342	0.010840	0.010416	16.4372	8772.54	0.009434	0.008560	1920.31	86630.3
1046	2.000000	1.209203	7.37528e+06	-52439.1	1055.82	-29749.1	0.000000	0.000000	7.210082	20.7797	NaN	0.000000	0.001604	0.001779	28.0819	17.8282	0.001802	9894.72	4.999059	5.191414	18.2931	1.208892	0.013277	0.012965	20.7797	9894.72	0.011701	0.011134	1866.27	85672.9
1046	2.000000	1.211721	7.37528e+06	-52439.1	1055.82	-29749.1	0.000000	0.000000	7.212769	24.8853	NaN	0.000000	0.001601	0.001765	28.0819	20.1498	0.001778	11332.3	5.406953	-174.416	24.7196	1.211406	0.015794	0.015479	24.8853	11332.3	0.014147	0.014165	1756.8	86992.5
1046	2.000000	1.214236	7.37528e+06	-52439.1	1055.82	-29749.1	0.000000	0.000000	7.215540	31.1129	NaN	0.000000	0.001601	0.001728	28.0819	22.5019	0.001574	14298.5	3.256205	3.626596	29.6901	1.213832	0.018309	0.017905	31.1129	14298.5	0.016677	0.017587	1769.08	98507.2
1046	2.000000	1.216695	7.37528e+06	-52439.1	1055.82	-29749.1	0.000000	0.000000	7.218208	36.1994	NaN	0.000000	0.001608	0.001723	28.0824	25.5946	0.001762	14528.3	5.481458	-177.982	35.1548	1.216354	0.020768	0.020427	36.1994	14528.3	0.018899	0.020842	1736.82	91941.8
1046	2.000000	1.219196	7.37528e+06	-52439.1	1055.82	-29749.1	0.000000	0.000000	7.220954	42.1512	NaN	0.000000	0.001579	0.001756	28.082	28.645	0.001733	16527.9	8.836372	-3.976705	41.1628	1.218853	0.023269	0.022926	42.1512	16527.9	0.021357	0.024719	1705.2	96045
1046	2.000000	1.221667	7.37528e+06	-52439.1	1055.82	-29749.1	0.000000	0.000000	7.223808	51.4609	NaN	0.000000	0.001676	0.001749	28.0817	31.4627	0.001796	17518.5	6.188776	178.052	50.1288	1.221349	0.025740	0.025423	51.4609	17518.5	0.023537	0.028408	1811.5	94962
1046	2.000000	1.224201	7.37528e+06	-52439.1	1055.82	-29749.1	0.000000	0.000000	7.226657	59.1124	NaN	0.000000	0.001628	0.001749	28.0819	32.2487	0.001719	18759	2.199370	3.355511	57.4449	1.223818	0.028274	0.027892	59.1124	18759	0.025911	0.032694	1808.05	94787.1
1046	2.000000	1.226691	7.37528e+06	-52439.1	1055.82	-29749.1	0.000000	0.000000	7.229560	69.1554	NaN	0.000000	0.001663	0.001774	28.0819	35.7919	0.001774	20178.8	5.802813	177.758	67.5556	1.226275	0.030765	0.030349	69.1554	20178.8	0.028195	0.037085	1864.8	95735
1046	2.000000	1.229192	7.37528e+06	-52439.1	1055.82	-29749.1	0.000000	0.000000	7.232172	71.8557	NaN	0.000000	0.001678	0.001786	28.0818	38.5704	0.001821	21185.2	3.142890	-0.032134	71.7599	1.228918	0.033265	0.032992	71.8557	21185.2	0.030721	0.042252	1700.64	94163.5
1046	2.000000	1.231701	7.37528e+06	-52439.1	1055.82	-29749.1	0.000000	0.000000	7.235195	84.3626	NaN	0.000000	0.001659	0.001753	28.0818	41.4503	0.001818	22799.3	4.923669	177.704	84.8186	1.231423	0.035775	0.035496	84.3626	22799.3	0.032999	0.047190	1787.72	95889.1
1046	2.000000	1.234261	7.37528e+06	-52439.1	1055.82	-29749.1	0.000000	0.000000	7.238146	93.858	NaN	0.000000	0.001737	0.001739	28.0822	43.4791	0.001896	22937.6	7.138323	-4.027247	96.2262	1.233742	0.038334	0.037815	93.858	22937.6	0.035265	0.052365	1792.37	91579.7
1046	2.000000	1.236627	7.37528e+06	-52439.1	1055.82	-29749.1	0.000000	0.000000	7.240868	102.523	NaN	0.000000	0.001714	0.001735	28.0829	45.1642	0.001828	24712.8	3.926009	177.034	100.19	1.236416	0.040700	0.040489	102.523	24712.8	0.037589	0.057945	1769.31	93796.8
1046	2.000000	1.239139	7.37528e+06	-52439.1	1055.82	-29749.1	0.000000	0.000000	7.243947	116.295	NaN	0.000000	0.001751	0.001757	28.0832	48.1623	0.001888	25503.3	7.223825	-5.828146	113.905	1.238787	0.043212	0.042860	116.295	25503.3	0.039792	0.063493	1831.63	92471.4
1046	2.000000	1.241708	7.37528e+06	-52439.1	1055.82	-29749.1	0.000000	0.000000	7.246851	124.446	NaN	0.000000	0.001725	0.001715	28.0831	49.6251	0.001819	27287.8	4.442330	176.138	127.742	1.241341	0.045781	0.045415	124.446	27287.8	0.042361	0.070273	1770.91	94047.7
1046	2.000000	1.244206	7.37528e+06	-52439.1	1055.82	-29749.1	0.000000	0.000000	7.249992	140.095	NaN	0.000000	0.001688	0.001771	28.0835	51.9553	0.001858	27960.4	7.424496	-5.733883	139.458	1.243806	0.048279	0.047879	140.095	27960.4	0.044521	0.076234	1837.7	92521.5
1046	2.000000	1.246599	7.37528e+06	-52439.1	1055.82	-29749.1	0.000000	0.000000	7.252778	149.631	NaN	0.000000	0.001722	0.001732	28.083	53.5379	0.001699	31514.4	7.478834	170.749	146.478	1.246379	0.050673	0.050452	149.631	31514.4	0.047112	0.083695	1787.81	99524.8
1046	2.000000	1.249110	7.37528e+06	-52439.1	1055.82	-29749.1	0.000000	0.000000	7.255855	163.414	NaN	0.000000	0.001718	0.001776	28.0834	56.8209	0.001898	29937.8	3.431828	-3.559618	160.214	1.248825	0.053183	0.052898	163.414	29937.8	0.049089	0.089619	1823.42	91367.7
1046	2.000000	1.251654	7.37528e+06	-52439.1	1055.82	-29749.1	0.000000	0.000000	7.258792	172.976	NaN	0.000000	0.001711	0.001727	28.0834	59.4601	0.001762	33748.9	3.872067	174.808	172.812	1.251502	0.055727	0.055575	172.976	33748.9	0.051883	0.098322	1759.27	98334.8
1046	2.000000	1.254109	7.37528e+06	-52439.1	1055.82	-29749.1	0.000000	0.000000	7.261991	191.048	NaN	0.000000	0.001711	0.001723	28.0836	60.9539	0.001781	34233.7	5.329394	-6.699551	186.33	1.253811	0.058182	0.057884	191.048	34233.7	0.053996	0.105165	1816.65	96447.5
1046	2.000000	1.256637	7.37528e+06	-52439.1	1055.82	-29749.1	0.000000	0.000000	7.265127	205.845	NaN	0.000000	0.001699	0.001766	28.0831	63.4387	0.001753	36187.8	4.131945	174.675	206.65	1.256341	0.060710	0.060414	205.845	36187.8	0.056444	0.113366	1815.76	98196.1
1046	2.000000	1.259124	7.37528e+06	-52439.1	1055.82	-29749.1	0.000000	0.000000	7.268226	220.696	NaN	0.000000	0.001704	0.001761	28.0833	66.6306	0.001910	34877.4	6.844453	-8.141170	219.35	1.258809	0.063198	0.062882	220.696	34877.4	0.058452	0.120315	1834.31	91866.3
1046	2.000000	1.261625	7.37528e+06	-52439.1	1055.82	-29749.1	0.000000	0.000000	7.271488	239.212	NaN	0.000000	0.001694	0.001753	28.0833	68.018	0.001805	37685	5.445078	172.483	239.796	1.261409	0.065698	0.065482	239.212	37685	0.060937	0.129191	1851.62	95791.2
1046	2.000000	1.264118	7.37528e+06	-52439.1	1055.82	-29749.1	0.000000	0.000000	7.274564	253.387	NaN	0.000000	0.001642	0.001703	28.0832	69.5077	0.001800	38615.8	5.906459	-7.362263	248.926	1.263786	0.068191	0.067859	253.387	38615.8	0.063270	0.137794	1838.88	95043.7
1046	2.000000	1.266637	7.37528e+06	-52439.1	1055.82	-29749.1	0.000000	0.000000	7.277674	267.765	NaN	0.000000	0.001685	0.001723	28.0829	70.8913	0.001667	42517.3	5.808731	171.621	266.93	1.266313	0.070710	0.070386	267.765	42517.3	0.065987	0.148147	1807.43	100924
1046	2.000000	1.269179	7.37528e+06	-52439.1	1055.82	-29749.1	0.000000	0.000000	7.281018	287.256	NaN	0.000000	0.001663	0.001769	28.0834	74.4196	0.001878	39617	6.902390	-8.494204	287.387	1.268690	0.073253	0.072764	287.256	39617	0.067815	0.155311	1849.55	91844.5
1046	2.000000	1.271530	7.37528e+06	-52439.1	1055.82	-29749.1	0.000000	0.000000	7.284258	308.892	NaN	0.000000	0.001726	0.001750	28.0821	76.3638	0.001718	44461.3	4.093231	173.096	302.47	1.271211	0.075603	0.075285	308.892	44461.3	0.070393	0.165688	1864.3	99795.3
1046	2.000000	1.274098	7.37528e+06	-52439.1	1055.82	-29749.1	0.000000	0.000000	7.287532	326.039	NaN	0.000000	0.001703	0.001749	28.0819	78.1257	0.001773	44052.6	5.860082	-8.640098	320.949	1.273821	0.078171	0.077895	326.039	44052.6	0.072620	0.174910	1864.04	96236.1
1046	2.000000	1.276626	7.37528e+06	-52439.1	1055.82	-29749.1	0.000000	0.000000	7.290736	342.489	NaN	0.000000	0.001692	0.001718	28.0818	80.7196	0.001848	43676.4	4.685911	172.327	343.074	1.276412	0.080699	0.080485	342.489	43676.4	0.074818	0.184238	1858.95	92967.4
1046	2.000000	1.279117	7.37528e+06	-52439.1	1055.82	-29749.1	0.000000	0.000000	7.294294	368.417	NaN	0.000000	0.001695	0.001731	28.0823	82.7457	0.001708	48445.8	5.841735	-9.316937	367.019	1.278669	0.083190	0.082742	368.417	48445.8	0.077487	0.195870	1880.92	100010
1046	2.000000	1.281619	7.37528e+06	-52439.1	1055.82	-29749.1	0.000000	0.000000	7.297353	381.959	NaN	0.000000	0.001674	0.001720	28.0818	84.5305	0.001837	46027.6	-0.716946	177.289	382.351	1.281433	0.085693	0.085506	381.959	46027.6	0.079469	0.204725	1865.72	92940.7
1046	2.000000	1.284092	7.37528e+06	-52439.1	1055.82	-29749.1	0.000000	0.000000	7.300767	404.838	NaN	0.000000	0.001689	0.001692	28.0821	87.5054	0.001722	50821.1	8.184950	-12.5459	399.964	1.283726	0.088166	0.087800	404.838	50821.1	0.082191	0.217185	1864.02	99632.7
1046	2.000000	1.286562	7.37528e+06	-52439.1	1055.82	-29749.1	0.000000	0.000000	7.304075	425.215	NaN	0.000000	0.001676	0.001734	28.0819	89.9459	0.001799	49997	5.593865	170.255	423.287	1.286377	0.090636	0.090451	425.215	49997	0.084257	0.226870	1874.27	95902.2
1046	2.000000	1.289107	7.37528e+06	-52439.1	1055.82	-29749.1	0.000000	0.000000	7.307346	442.858	NaN	0.000000	0.001665	0.001724	28.0823	91.8492	0.001837	49988.6	5.682357	-9.769169	441.187	1.288646	0.093181	0.092720	442.858	49988.6	0.086536	0.237785	1862.43	93659.6
1046	2.000000	1.291612	7.37528e+06	-52439.1	1055.82	-29749.1	0.000000	0.000000	7.310858	467.363	NaN	0.000000	0.001691	0.001737	28.0817	94.1782	0.001711	55030.1	6.776718	168.086	467.336	1.291235	0.095685	0.095308	467.363	55030.1	0.089315	0.251417	1858.91	100271
1046	2.000000	1.294003	7.37528e+06	-52439.1	1055.82	-29749.1	0.000000	0.000000	7.314543	498.818	NaN	0.000000	0.001653	0.001730	28.082	93.8897	0.001749	53682.2	1.161456	-4.846984	491.057	1.293595	0.098076	0.097668	498.818	53682.2	0.091107	0.260393	1915.64	96114.5
1046	2.000000	1.296551	7.37528e+06	-52439.1	1055.82	-29749.1	0.000000	0.000000	7.317414	506.649	NaN	0.000000	0.001639	0.001719	28.082	96.9221	0.001780	54438.7	4.978060	169.798	503.26	1.296331	0.100625	0.100404	506.649	54438.7	0.093645	0.273359	1853.42	95129.2
1046	2.000000	1.299081	7.37528e+06	-52439.1	1055.82	-29749.1	0.000000	0.000000	7.321170	536.48	NaN	0.000000	0.001628	0.001772	28.0819	100.052	0.001759	56885.2	6.566223	-11.8809	533.87	1.298774	0.103154	0.102848	536.48	56885.2	0.096081	0.286082	1875.26	97168.9
1046	2.000000	1.299527	7.37528e+06	-52439.1	1055.82	-29749.1	0.000000	0.000000	7.321865	542.547	NaN	0.000000	0.001644	0.001784	28.082	99.7591	0.001687	59129.3	6.152191	167.954	538.8	1.299237	0.103600	0.103311	542.547	59129.3	0.096719	0.289458	1874.35	100411