File: remote_trans/data/nanoindenter/0828-1/data/Data_2025-08-06,11h17m57s/2025-07-22_16-23-58_1_1104.txt
2025-07-22, 16:23:58, 1
Index	Phase	Displacement	Time	Pos X	Pos Y	Pos Z	Rot A	Rot B	Piezo Z	Force A	Force B	Gripper	Voltage A	Voltage B	Temperature	Amplitude force	Amplitude pos	Stiffness	Phase shift	Phase excitation	Force A raw	Displacement raw	HMax	HMax raw	Real Force	Real Stiffness	Contact Depth	Area	Hardness	Reduced Mod.
[#]	[#]	[um]	[s]	[um]	[um]	[um]	[m°]	[m°]	[um]	[uN]	[uN]	[V]	[V]	[V]	[°C]	[uN]	[um]	[N/m]	[°]	[°]	[uN]	[um]	[um]	[um]	[uN]	[N/m]	[um]	[um^2]	[MPa]	[MPa]
1104	1.000000	0.002660	7.37585e+06	-55339.1	1055.82	-29741.8	0.000000	0.000000	6.002806	-0.056842	NaN	0.000000	0.001621	0.001698	28.0838	0.037359	0.001025	36.4481	128.137	-170.334	-0.035202	0.001429	-1.012653	-1.013884	-0.056842	36.4481	-1.011483	-3.238479E+13	1.755192E-15	NaN
1104	1.000000	0.010639	7.37585e+06	-55339.1	1055.82	-29741.8	0.000000	0.000000	6.010783	-0.088187	NaN	0.000000	0.001627	0.001732	28.0834	0.097495	0.001019	95.6664	-46.6037	-168.779	-0.060041	0.009305	-1.004674	-1.006008	-0.088187	95.6664	-1.003983	-2.566776E+13	3.435718E-15	NaN
1104	1.000000	0.018594	7.37585e+06	-55339.1	1055.82	-29741.8	0.000000	0.000000	6.018742	0.025052	NaN	0.000000	0.001670	0.001670	28.0835	0.100431	0.001719	58.4267	-1.573543	-166.5	-0.002464	0.017306	-0.996719	-0.998008	0.025052	58.4267	-0.997041	-2.069785E+13	-1.210376E-15	NaN
1104	1.000000	0.026633	7.37585e+06	-55339.1	1055.82	-29741.8	0.000000	0.000000	6.026779	-0.046492	NaN	0.000000	0.001633	0.001687	28.0835	0.132270	0.001828	72.3426	-68.6619	-165.842	-0.026240	0.025285	-0.988680	-0.990028	-0.046492	72.3426	-0.988198	-1.573400E+13	2.954863E-15	NaN
1104	1.000000	0.034621	7.37585e+06	-55339.1	1055.82	-29741.8	0.000000	0.000000	6.034765	-0.075254	NaN	0.000000	0.001639	0.001712	28.0834	0.053428	0.002007	26.6268	-113.277	-167.115	-0.089028	0.033306	-0.980692	-0.982007	-0.075254	26.6268	-0.978573	-1.167296E+13	6.446899E-15	NaN
1104	1.000000	0.042609	7.37585e+06	-55339.1	1055.82	-29741.8	0.000000	0.000000	6.042756	-0.004687	NaN	0.000000	0.001640	0.001733	28.0838	0.157287	0.001889	83.247	-23.2769	-165.093	-0.047629	0.041315	-0.972704	-0.973998	-0.004687	83.247	-0.972662	-9.717174E+12	4.823174E-16	NaN
1104	1.000000	0.050621	7.37585e+06	-55339.1	1055.82	-29741.8	0.000000	0.000000	6.050765	-0.063196	NaN	0.000000	0.001656	0.001681	28.0846	0.156728	0.001993	78.6245	-58.8934	-166.92	0.025306	0.049310	-0.964692	-0.966004	-0.063196	78.6245	-0.964090	-7.447325E+12	8.485711E-15	NaN
1104	1.000000	0.058624	7.37585e+06	-55339.1	1055.82	-29741.8	0.000000	0.000000	6.058771	-0.018074	NaN	0.000000	0.001605	0.001694	28.0849	0.043394	0.002011	21.5731	-147.506	-169.993	-0.008690	0.057318	-0.956689	-0.957995	-0.018074	21.5731	-0.956061	-5.804393E+12	3.113885E-15	NaN
1104	1.000000	0.066605	7.37585e+06	-55339.1	1055.82	-29741.8	0.000000	0.000000	6.066753	0.005327	NaN	0.000000	0.001625	0.001731	28.0842	0.053313	0.001915	27.8356	-160.037	-166.743	-0.041780	0.065290	-0.948708	-0.950023	0.005327	27.8356	-0.948851	-4.640204E+12	-1.147986E-15	NaN
1104	1.000000	0.074606	7.37585e+06	-55339.1	1055.82	-29741.8	0.000000	0.000000	6.074752	-0.047972	NaN	0.000000	0.001614	0.001700	28.0843	0.074425	0.001946	38.2384	-127.029	-164.032	-0.044265	0.073354	-0.940707	-0.941959	-0.047972	38.2384	-0.939766	-3.499286E+12	1.370915E-14	NaN
1104	1.000000	0.082609	7.37585e+06	-55339.1	1055.82	-29741.8	0.000000	0.000000	6.082754	-0.064539	NaN	0.000000	0.001592	0.001753	28.0845	0.138830	0.002056	67.5119	-98.5358	-165.57	-0.053533	0.081316	-0.932704	-0.933997	-0.064539	67.5119	-0.931987	-2.747978E+12	2.348595E-14	NaN
1104	1.000000	0.090609	7.37585e+06	-55339.1	1055.82	-29741.8	0.000000	0.000000	6.090755	-0.044878	NaN	0.000000	0.001568	0.001732	28.0845	0.034784	0.002104	16.5345	120.077	-166.248	0.025364	0.089315	-0.924704	-0.925998	-0.044878	16.5345	-0.922668	-2.056971E+12	2.181772E-14	NaN
1104	1.000000	0.098614	7.37585e+06	-55339.1	1055.82	-29741.8	0.000000	0.000000	6.098759	-0.079869	NaN	0.000000	0.001567	0.001726	28.0847	0.106313	0.001952	54.4684	28.1054	-169.16	-0.037765	0.097302	-0.916699	-0.918011	-0.079869	54.4684	-0.915599	-1.651119E+12	4.837252E-14	NaN
1104	1.000000	0.106637	7.37585e+06	-55339.1	1055.82	-29741.8	0.000000	0.000000	6.106781	-0.076582	NaN	0.000000	0.001563	0.001676	28.0845	0.105663	0.001999	52.868	-161.163	-167.219	-0.068749	0.105263	-0.908676	-0.910050	-0.076582	52.868	-0.907590	-1.287076E+12	5.950055E-14	NaN
1104	1.000000	0.114617	7.37585e+06	-55339.1	1055.82	-29741.8	0.000000	0.000000	6.114763	-0.020581	NaN	0.000000	0.001581	0.001718	28.0847	0.073537	0.002058	35.7328	29.4928	-170.039	-0.063330	0.113324	-0.900696	-0.901989	-0.020581	35.7328	-0.900264	-1.024802E+12	2.008324E-14	NaN
1104	1.000000	0.122629	7.37585e+06	-55339.1	1055.82	-29741.8	0.000000	0.000000	6.122775	-0.028906	NaN	0.000000	0.001536	0.001697	28.0847	0.142495	0.001858	76.6945	12.8033	-165.809	-0.041112	0.121310	-0.892684	-0.894003	-0.028906	76.6945	-0.892401	-8.023689E+11	3.602619E-14	NaN
1104	1.000000	0.130653	7.37585e+06	-55339.1	1055.82	-29741.8	0.000000	0.000000	6.130798	-0.060678	NaN	0.000000	0.001565	0.001736	28.0848	0.091876	0.001955	46.9847	-65.5851	-168.174	0.066988	0.129333	-0.884660	-0.885980	-0.060678	46.9847	-0.883691	-6.118164E+11	9.917674E-14	NaN
1104	1.000000	0.138633	7.37585e+06	-55339.1	1055.82	-29741.8	0.000000	0.000000	6.138781	0.015497	NaN	0.000000	0.001581	0.001736	28.0847	0.101463	0.002057	49.3376	92.6108	-165.851	-0.033392	0.137332	-0.876680	-0.877981	0.015497	49.3376	-0.876915	-4.954389E+11	-3.127847E-14	NaN
1104	1.000000	0.146637	7.37585e+06	-55339.1	1055.82	-29741.8	0.000000	0.000000	6.146784	-0.022422	NaN	0.000000	0.001581	0.001713	28.0845	0.110950	0.001955	56.7568	-173.545	-165.857	0.040057	0.145339	-0.868676	-0.869974	-0.022422	56.7568	-0.868380	-3.797715E+11	5.904151E-14	NaN
1104	1.000000	0.154629	7.37585e+06	-55339.1	1055.82	-29741.8	0.000000	0.000000	6.154773	-0.086189	NaN	0.000000	0.001581	0.001745	28.0851	0.117123	0.002010	58.2583	-45.8188	-166.924	-0.053393	0.153355	-0.860684	-0.861958	-0.086189	58.2583	-0.859575	-2.886462E+11	2.985970E-13	NaN
1104	1.000000	0.162654	7.37585e+06	-55339.1	1055.82	-29741.8	0.000000	0.000000	6.162802	0.020396	NaN	0.000000	0.001566	0.001707	28.0845	0.067172	0.001935	34.7126	166.15	-165.968	0.013860	0.161303	-0.852659	-0.854010	0.020396	34.7126	-0.853100	-2.358892E+11	-8.646496E-14	NaN
1104	1.000000	0.170645	7.37585e+06	-55339.1	1055.82	-29741.8	0.000000	0.000000	6.170791	-0.049451	NaN	0.000000	0.001656	0.001709	28.0847	0.109341	0.001963	55.6976	167.599	-170.117	0.018798	0.169365	-0.844668	-0.845948	-0.049451	55.6976	-0.844002	-1.776248E+11	2.783991E-13	NaN
1104	1.000000	0.178665	7.37585e+06	-55339.1	1055.82	-29741.8	0.000000	0.000000	6.178810	-0.046654	NaN	0.000000	0.001666	0.001709	28.0847	0.150076	0.001999	75.0766	2.595122	-167.473	0.020408	0.177334	-0.836648	-0.837980	-0.046654	75.0766	-0.836182	-1.391773E+11	3.352106E-13	NaN
1104	1.000000	0.186655	7.37585e+06	-55339.1	1055.82	-29741.8	0.000000	0.000000	6.186801	-0.034183	NaN	0.000000	0.001682	0.001700	28.0835	0.031234	0.002054	15.2045	-116.563	-163.466	-0.002823	0.185328	-0.828658	-0.829985	-0.034183	15.2045	-0.826972	-1.044080E+11	3.273953E-13	NaN
1104	1.000000	0.194674	7.37585e+06	-55339.1	1055.82	-29741.8	0.000000	0.000000	6.194819	-0.063778	NaN	0.000000	0.001656	0.001690	28.0839	0.053994	0.002052	26.3113	58.5704	-165.608	-0.140139	0.193353	-0.820639	-0.821960	-0.063778	26.3113	-0.818821	-8.095106E+10	7.878646E-13	NaN
1104	1.000000	0.202657	7.37585e+06	-55339.1	1055.82	-29741.8	0.000000	0.000000	6.202805	0.019512	NaN	0.000000	0.001682	0.001684	28.0833	0.043473	0.002214	19.6347	47.3204	-164.695	-0.064662	0.201398	-0.812656	-0.813916	0.019512	19.6347	-0.813401	-6.834629E+10	-2.854822E-13	NaN
1104	1.000000	0.210696	7.37585e+06	-55339.1	1055.82	-29741.8	0.000000	0.000000	6.210844	0.008255	NaN	0.000000	0.001619	0.001719	28.0833	0.069843	0.002088	33.4535	76.957	-164.903	-0.018049	0.209336	-0.804617	-0.805977	0.008255	33.4535	-0.804802	-5.224475E+10	-1.580096E-13	NaN
1104	1.000000	0.218671	7.37585e+06	-55339.1	1055.82	-29741.8	0.000000	0.000000	6.218814	-0.110831	NaN	0.000000	0.001575	0.001719	28.0832	0.114379	0.001941	58.9203	117.87	-165.591	-0.084229	0.217351	-0.796642	-0.797962	-0.110831	58.9203	-0.795231	-3.873685E+10	2.861137E-12	NaN
1104	1.000000	0.226672	7.37585e+06	-55339.1	1055.82	-29741.8	0.000000	0.000000	6.226820	0.002456	NaN	0.000000	0.001528	0.001697	28.0831	0.095881	0.002097	45.7195	164.43	-168.184	0.031773	0.225346	-0.788641	-0.789967	0.002456	45.7195	-0.788681	-3.156237E+10	-7.782867E-14	NaN
1104	1.000000	0.234666	7.37585e+06	-55339.1	1055.82	-29741.8	0.000000	0.000000	6.234809	-0.100922	NaN	0.000000	0.001573	0.001751	28.0831	0.041801	0.001984	21.0739	-116.532	-164	-0.093891	0.233366	-0.780647	-0.781947	-0.100922	21.0739	-0.777055	-2.193895E+10	4.600110E-12	NaN
1104	1.000000	0.242690	7.37585e+06	-55339.1	1055.82	-29741.8	0.000000	0.000000	6.242838	0.005905	NaN	0.000000	0.001559	0.001697	28.083	0.025224	0.002059	12.2527	-67.6516	-164.108	-0.068200	0.241400	-0.772623	-0.773914	0.005905	12.2527	-0.772984	-1.931432E+10	-3.057253E-13	NaN
1104	1.000000	0.250671	7.37585e+06	-55339.1	1055.82	-29741.8	0.000000	0.000000	6.250816	-0.062251	NaN	0.000000	0.001555	0.001737	28.0833	0.026637	0.002077	12.824	164.323	-165.358	-0.105901	0.249407	-0.764642	-0.765906	-0.062251	12.824	-0.761001	-1.327162E+10	4.690569E-12	NaN
1104	1.000000	0.258686	7.37585e+06	-55339.1	1055.82	-29741.8	0.000000	0.000000	6.258831	-0.059584	NaN	0.000000	0.001564	0.001710	28.0832	0.064078	0.001886	33.9712	16.2906	-168.517	-0.113114	0.257414	-0.756627	-0.757900	-0.059584	33.9712	-0.755311	-1.110474E+10	5.365648E-12	NaN
1104	1.000000	0.266710	7.37585e+06	-55339.1	1055.82	-29741.8	0.000000	0.000000	6.266857	-0.007923	NaN	0.000000	0.001554	0.001707	28.0833	0.103788	0.002059	50.3979	164.509	-167.727	-0.058667	0.265408	-0.748603	-0.749905	-0.007923	50.3979	-0.748485	-8.965983E+9	8.836810E-13	NaN
1104	1.000000	0.274690	7.37585e+06	-55339.1	1055.82	-29741.8	0.000000	0.000000	6.274835	-0.063913	NaN	0.000000	0.001562	0.001704	28.0832	0.078092	0.002082	37.5111	-78.1317	-167.36	-0.038642	0.273403	-0.740623	-0.741910	-0.063913	37.5111	-0.739345	-6.731926E+9	9.494004E-12	NaN
1104	1.000000	0.282708	7.37585e+06	-55339.1	1055.82	-29741.8	0.000000	0.000000	6.282854	-0.032818	NaN	0.000000	0.001551	0.001727	28.0833	0.022010	0.002036	10.8106	-123.102	-168.614	-0.102655	0.281399	-0.732605	-0.733914	-0.032818	10.8106	-0.730328	-5.073163E+9	6.469003E-12	NaN
1104	1.000000	0.290692	7.37585e+06	-55339.1	1055.82	-29741.8	0.000000	0.000000	6.290836	-0.072738	NaN	0.000000	0.001583	0.001713	28.0838	0.124029	0.001966	63.0975	-108.624	-165.777	-0.022771	0.289410	-0.724621	-0.725903	-0.072738	63.0975	-0.723757	-4.127648E+9	1.762211E-11	NaN
1104	1.000000	0.298691	7.37585e+06	-55339.1	1055.82	-29741.8	0.000000	0.000000	6.298837	-0.026975	NaN	0.000000	0.001601	0.001757	28.0834	0.090728	0.001963	46.2257	-79.6256	-171.699	-0.029072	0.297393	-0.716622	-0.717920	-0.026975	46.2257	-0.716185	-3.254121E+9	8.289427E-12	NaN
1104	1.000000	0.306708	7.37585e+06	-55339.1	1055.82	-29741.8	0.000000	0.000000	6.306855	-0.020202	NaN	0.000000	0.001577	0.001729	28.0836	0.031572	0.002083	15.1592	76.2324	-166.67	-0.025656	0.305463	-0.708605	-0.709850	-0.020202	15.1592	-0.707605	-2.485215E+9	8.128867E-12	NaN
1104	1.000000	0.314710	7.37585e+06	-55339.1	1055.82	-29741.8	0.000000	0.000000	6.314858	0.016083	NaN	0.000000	0.001573	0.001740	28.0833	0.034071	0.001959	17.395	88.3569	-165.904	-0.042983	0.313396	-0.700603	-0.701917	0.016083	17.395	-0.701296	-2.038142E+9	-7.891014E-12	NaN
1104	1.000000	0.322740	7.37585e+06	-55339.1	1055.82	-29741.8	0.000000	0.000000	6.322886	-0.026730	NaN	0.000000	0.001638	0.001736	28.0848	0.045995	0.002002	22.9786	-85.3	-164.141	-0.076408	0.321406	-0.692573	-0.693908	-0.026730	22.9786	-0.691701	-1.507163E+9	1.773542E-11	NaN
1104	1.000000	0.330723	7.37585e+06	-55339.1	1055.82	-29741.8	0.000000	0.000000	6.330869	-0.036692	NaN	0.000000	0.001639	0.001741	28.0848	0.082704	0.002067	40.0042	170.112	-169.391	0.057368	0.329357	-0.684590	-0.685956	-0.036692	40.0042	-0.683902	-1.179129E+9	3.111751E-11	NaN
1104	1.000000	0.338705	7.37585e+06	-55339.1	1055.82	-29741.8	0.000000	0.000000	6.338852	0.007608	NaN	0.000000	0.001623	0.001702	28.0847	0.061421	0.002014	30.5039	100.278	-167.341	-0.042618	0.337445	-0.676608	-0.677869	0.007608	30.5039	-0.676796	-9.427031E+8	-8.070899E-12	NaN
1104	1.000000	0.346749	7.37585e+06	-55339.1	1055.82	-29741.8	0.000000	0.000000	6.346896	-0.015173	NaN	0.000000	0.001621	0.001714	28.0848	0.044992	0.001839	24.4613	-84.9705	-166.546	-0.035408	0.345432	-0.668564	-0.669881	-0.015173	24.4613	-0.668099	-7.167432E+8	2.116974E-11	NaN
1104	1.000000	0.354743	7.37585e+06	-55339.1	1055.82	-29741.8	0.000000	0.000000	6.354891	0.021097	NaN	0.000000	0.001662	0.001718	28.0846	0.076105	0.001971	38.6205	68.205	-169.659	0.072883	0.353431	-0.660570	-0.661882	0.021097	38.6205	-0.660980	-5.726491E+8	-3.684046E-11	NaN
1104	1.000000	0.362746	7.37585e+06	-55339.1	1055.82	-29741.8	0.000000	0.000000	6.362892	-0.036613	NaN	0.000000	0.001648	0.001740	28.0851	0.082633	0.002078	39.7717	87.9227	-167.059	-0.059907	0.361460	-0.652567	-0.653853	-0.036613	39.7717	-0.651877	-4.296963E+8	8.520632E-11	NaN
1104	1.000000	0.370751	7.37585e+06	-55339.1	1055.82	-29741.8	0.000000	0.000000	6.370897	-0.028641	NaN	0.000000	0.001652	0.001724	28.0848	0.091868	0.001955	46.9915	2.263908	-166.996	-0.012125	0.369408	-0.644562	-0.645905	-0.028641	46.9915	-0.644105	-3.362071E+8	8.518724E-11	NaN
1104	1.000000	0.378738	7.37585e+06	-55339.1	1055.82	-29741.8	0.000000	0.000000	6.378884	-0.037101	NaN	0.000000	0.001670	0.001717	28.0849	0.119128	0.002011	59.2517	-171.714	-162.939	-0.100863	0.377412	-0.636575	-0.637901	-0.037101	59.2517	-0.636106	-2.611263E+8	1.420795E-10	NaN
1104	1.000000	0.386743	7.37585e+06	-55339.1	1055.82	-29741.8	0.000000	0.000000	6.386887	-0.079768	NaN	0.000000	0.001629	0.001712	28.085	0.146415	0.002072	70.6473	-69.7456	-169.58	-0.029361	0.385448	-0.628570	-0.629865	-0.079768	70.6473	-0.627724	-2.003358E+8	3.981735E-10	NaN
1104	1.000000	0.394760	7.37585e+06	-55339.1	1055.82	-29741.8	0.000000	0.000000	6.394905	-0.060466	NaN	0.000000	0.001666	0.001716	28.0848	0.044850	0.001860	24.108	6.409761	-165.654	-0.091443	0.393508	-0.620553	-0.621805	-0.060466	24.108	-0.618672	-1.504451E+8	4.019126E-10	NaN
1104	1.000000	0.402752	7.37585e+06	-55339.1	1055.82	-29741.8	0.000000	0.000000	6.402898	-0.036505	NaN	0.000000	0.001645	0.001768	28.0851	0.069845	0.002068	33.7791	117.023	-168.892	-0.028161	0.401402	-0.612561	-0.613911	-0.036505	33.7791	-0.611751	-1.208374E+8	3.021030E-10	NaN
1104	1.000000	0.410729	7.37585e+06	-55339.1	1055.82	-29741.8	0.000000	0.000000	6.410876	-0.014272	NaN	0.000000	0.001652	0.001761	28.0848	0.097426	0.002047	47.5907	-168.738	-164.624	0.009840	0.409437	-0.604584	-0.605877	-0.014272	47.5907	-0.604359	-9.560584E+7	1.492792E-10	NaN
1104	1.000000	0.418765	7.37585e+06	-55339.1	1055.82	-29741.8	0.000000	0.000000	6.418911	-0.029917	NaN	0.000000	0.001586	0.001719	28.0851	0.030991	0.002035	15.2254	154.418	-166.959	0.003268	0.417461	-0.596548	-0.597852	-0.029917	15.2254	-0.595074	-7.122001E+7	4.200691E-10	NaN
1104	1.000000	0.426746	7.37585e+06	-55339.1	1055.82	-29741.8	0.000000	0.000000	6.426892	-0.031070	NaN	0.000000	0.001563	0.001739	28.0848	0.060980	0.002023	30.1503	155.021	-168.648	0.014110	0.425453	-0.588567	-0.589860	-0.031070	30.1503	-0.587794	-5.652705E+7	5.496572E-10	NaN
1104	1.000000	0.434783	7.37585e+06	-55339.1	1055.82	-29741.8	0.000000	0.000000	6.434928	-0.051195	NaN	0.000000	0.001549	0.001738	28.0848	0.009370	0.002065	4.537071	-159.312	-165.808	-0.075126	0.433456	-0.580530	-0.581857	-0.051195	4.537071	-0.572067	-3.429188E+7	1.492920E-9	NaN
1104	1.000000	0.442749	7.37585e+06	-55339.1	1055.82	-29741.8	0.000000	0.000000	6.442893	-0.065282	NaN	0.000000	0.001587	0.001715	28.0848	0.069177	0.002015	34.3342	-31.347	-166.434	-0.077094	0.441407	-0.572565	-0.573906	-0.065282	34.3342	-0.571139	-3.329373E+7	1.960795E-9	NaN
1104	1.000000	0.450780	7.37585e+06	-55339.1	1055.82	-29741.8	0.000000	0.000000	6.450926	-0.024905	NaN	0.000000	0.001619	0.001685	28.0848	0.080113	0.002087	38.3937	97.4303	-165.552	-0.011558	0.449481	-0.564533	-0.565833	-0.024905	38.3937	-0.564047	-2.656701E+7	9.374331E-10	NaN
1104	1.000000	0.458792	7.37585e+06	-55339.1	1055.82	-29741.8	0.000000	0.000000	6.458939	-0.022973	NaN	0.000000	0.001606	0.001717	28.0838	0.058704	0.002068	28.3884	-91.2693	-166.651	-0.053782	0.457462	-0.556521	-0.557851	-0.022973	28.3884	-0.555914	-2.050409E+7	1.120414E-9	NaN
1104	1.000000	0.466774	7.37585e+06	-55339.1	1055.82	-29741.8	0.000000	0.000000	6.466920	-0.029639	NaN	0.000000	0.001589	0.001726	28.0834	0.022743	0.001924	11.8226	-110.098	-166.595	0.045250	0.465443	-0.548539	-0.549870	-0.029639	11.8226	-0.546659	-1.526389E+7	1.941788E-9	NaN
1104	1.000000	0.474783	7.37585e+06	-55339.1	1055.82	-29741.8	0.000000	0.000000	6.474929	-0.022969	NaN	0.000000	0.001598	0.001738	28.0831	0.023283	0.002027	11.4879	128.135	-167.671	0.010474	0.473474	-0.540531	-0.541839	-0.022969	11.4879	-0.539031	-1.196515E+7	1.919638E-9	NaN
1104	1.000000	0.482797	7.37585e+06	-55339.1	1055.82	-29741.8	0.000000	0.000000	6.482944	-0.007468	NaN	0.000000	0.001620	0.001732	28.0835	0.071881	0.002021	35.5646	12.1504	-165.877	0.025755	0.481497	-0.532517	-0.533816	-0.007468	35.5646	-0.532359	-9.66791e+06	7.724780E-10	NaN
1104	1.000000	0.490762	7.37585e+06	-55339.1	1055.82	-29741.8	0.000000	0.000000	6.490906	-0.093476	NaN	0.000000	0.001579	0.001709	28.0833	0.092387	0.001952	47.3378	153.664	-166.835	-0.116911	0.489496	-0.524551	-0.525817	-0.093476	47.3378	-0.523070	-7.18259e+06	1.301421E-8	NaN
1104	1.000000	0.498808	7.37585e+06	-55339.1	1055.82	-29741.8	0.000000	0.000000	6.498953	-0.066028	NaN	0.000000	0.001606	0.001734	28.0833	0.011427	0.001818	6.284327	116.148	-165.493	-0.043929	0.497484	-0.516505	-0.517829	-0.066028	6.284327	-0.508625	-4.52127e+06	1.460377E-8	NaN
1104	1.000000	0.506794	7.37585e+06	-55339.1	1055.82	-29741.8	0.000000	0.000000	6.506939	-0.070890	NaN	0.000000	0.001608	0.001732	28.0835	0.140184	0.002079	67.4423	-136.189	-167.923	0.003596	0.505544	-0.508519	-0.509769	-0.070890	67.4423	-0.507730	-4.39335e+06	1.613564E-8	NaN
1104	1.000000	0.514806	7.37585e+06	-55339.1	1055.82	-29741.8	0.000000	0.000000	6.514949	-0.102048	NaN	0.000000	0.001594	0.001765	28.0835	0.045929	0.002016	22.7838	-98.2083	-165.31	-0.123358	0.513501	-0.500507	-0.501813	-0.102048	22.7838	-0.497148	-3.12764e+06	3.262784E-8	NaN
1104	1.000000	0.522786	7.37585e+06	-55339.1	1055.82	-29741.8	0.000000	0.000000	6.522930	-0.084436	NaN	0.000000	0.001589	0.001728	28.0835	0.041935	0.002044	20.5126	-152.418	-165.179	-0.052601	0.521544	-0.492527	-0.493769	-0.084436	20.5126	-0.489440	-2.44099e+06	3.459074E-8	NaN
1104	1.000000	0.530819	7.37585e+06	-55339.1	1055.82	-29741.8	0.000000	0.000000	6.530964	-0.060513	NaN	0.000000	0.001582	0.001710	28.0835	0.013824	0.001972	7.010438	-60.254	-167.578	0.037358	0.529430	-0.484494	-0.485883	-0.060513	7.010438	-0.478021	-1.68971e+06	3.581260E-8	NaN
1104	1.000000	0.538836	7.37585e+06	-55339.1	1055.82	-29741.8	0.000000	0.000000	6.538983	0.005661	NaN	0.000000	0.001613	0.001716	28.0834	0.003365	0.001862	1.806877	-46.4128	-165.193	-0.027017	0.537527	-0.476477	-0.477786	0.005661	1.806877	-0.478827	-1.73423e+06	-3.264313E-9	NaN
1104	1.000000	0.546834	7.37585e+06	-55339.1	1055.82	-29741.8	0.000000	0.000000	6.546982	0.009670	NaN	0.000000	0.001583	0.001699	28.0836	0.068366	0.002109	32.4101	-176.128	-166.835	-0.050379	0.545516	-0.468479	-0.469797	0.009670	32.4101	-0.468703	-1.25086e+06	-7.730939E-9	NaN
1104	1.000000	0.554806	7.37585e+06	-55339.1	1055.82	-29741.8	0.000000	0.000000	6.554952	-0.038212	NaN	0.000000	0.001599	0.001736	28.0835	0.067083	0.002195	30.5617	-59.2047	-167.164	-0.010966	0.553492	-0.460507	-0.461821	-0.038212	30.5617	-0.459569	-931020	4.104323E-8	NaN
1104	1.000000	0.562834	7.37585e+06	-55339.1	1055.82	-29741.8	0.000000	0.000000	6.562981	-0.002343	NaN	0.000000	0.001559	0.001751	28.0836	0.124806	0.002053	60.8064	-156.642	-165.778	0.001330	0.561568	-0.452479	-0.453745	-0.002343	60.8064	-0.452450	-739337	3.169417E-9	NaN
1104	1.000000	0.570813	7.37585e+06	-55339.1	1055.82	-29741.8	0.000000	0.000000	6.570958	-0.057797	NaN	0.000000	0.001596	0.001759	28.0833	0.016095	0.001993	8.073804	-92.0318	-163.888	-0.082184	0.569486	-0.444500	-0.445827	-0.057797	8.073804	-0.439131	-479841	1.204497E-7	NaN
1104	1.000000	0.578828	7.37585e+06	-55339.1	1055.82	-29741.8	0.000000	0.000000	6.578975	-0.021299	NaN	0.000000	0.001611	0.001744	28.0835	0.027710	0.001866	14.8499	-0.228449	-168.923	-0.072617	0.577516	-0.436485	-0.437797	-0.021299	14.8499	-0.435409	-425141	5.009943E-8	NaN
1104	1.000000	0.586840	7.37585e+06	-55339.1	1055.82	-29741.8	0.000000	0.000000	6.586983	-0.109235	NaN	0.000000	0.001553	0.001751	28.0833	0.030230	0.001958	15.4413	25.2499	-165.845	-0.119288	0.585542	-0.428473	-0.429771	-0.109235	15.4413	-0.423167	-285311	3.828632E-7	NaN
1104	1.000000	0.594884	7.37585e+06	-55339.1	1055.82	-29741.8	0.000000	0.000000	6.595032	0.017161	NaN	0.000000	0.001571	0.001725	28.0845	0.098050	0.002071	47.3372	116.57	-167.193	-0.063845	0.593521	-0.420429	-0.421793	0.017161	47.3372	-0.420701	-263245	-6.519180E-8	NaN
1104	1.000000	0.602834	7.37585e+06	-55339.1	1055.82	-29741.8	0.000000	0.000000	6.602980	-0.018246	NaN	0.000000	0.001585	0.001735	28.0847	0.104798	0.002073	50.5605	57.1939	-166.913	-0.117030	0.601496	-0.412479	-0.413818	-0.018246	50.5605	-0.412209	-199435	9.149012E-8	NaN
1104	1.000000	0.610844	7.37585e+06	-55339.1	1055.82	-29741.8	0.000000	0.000000	6.610986	-0.126186	NaN	0.000000	0.001547	0.001769	28.0848	0.096415	0.002101	45.8908	-161.548	-163.205	-0.044902	0.609553	-0.404469	-0.405760	-0.126186	45.8908	-0.402407	-144647	8.723713E-7	NaN
1104	1.000000	0.618845	7.37585e+06	-55339.1	1055.82	-29741.8	0.000000	0.000000	6.618992	-0.015816	NaN	0.000000	0.001553	0.001765	28.0849	0.068418	0.001961	34.8875	57.6692	-166.176	0.002324	0.617572	-0.396468	-0.397741	-0.015816	34.8875	-0.396128	-117690	1.343847E-7	NaN
1104	1.000000	0.626851	7.37585e+06	-55339.1	1055.82	-29741.8	0.000000	0.000000	6.626994	-0.112949	NaN	0.000000	0.001556	0.001718	28.0849	0.039045	0.002156	18.1111	-70.9844	-164.373	-0.124679	0.625582	-0.388462	-0.389732	-0.112949	18.1111	-0.383785	-78374	1.441150E-6	NaN
1104	1.000000	0.634849	7.37585e+06	-55339.1	1055.82	-29741.8	0.000000	0.000000	6.634995	-0.035184	NaN	0.000000	0.001591	0.001667	28.0847	0.133008	0.002161	61.5365	-164.129	-166.248	-0.014372	0.633505	-0.380464	-0.381808	-0.035184	61.5365	-0.380035	-69245.1	5.081140E-7	NaN
1104	1.000000	0.642854	7.37585e+06	-55339.1	1055.82	-29741.8	0.000000	0.000000	6.642998	-0.068031	NaN	0.000000	0.001603	0.001738	28.0849	0.068058	0.002014	33.7999	95.559	-166.468	-0.091526	0.641489	-0.372459	-0.373824	-0.068031	33.7999	-0.370950	-51263.2	1.327090E-6	NaN
1104	1.000000	0.650868	7.37585e+06	-55339.1	1055.82	-29741.8	0.000000	0.000000	6.651013	-0.069283	NaN	0.000000	0.001576	0.001699	28.0846	0.099357	0.002071	47.9803	-48.4471	-166.129	-0.070209	0.649537	-0.364445	-0.365776	-0.069283	47.9803	-0.363362	-39848.4	1.738673E-6	NaN
1104	1.000000	0.658865	7.37585e+06	-55339.1	1055.82	-29741.8	0.000000	0.000000	6.659011	-0.031357	NaN	0.000000	0.001539	0.001753	28.0847	0.052081	0.001960	26.5686	-176.03	-167.63	0.034548	0.657568	-0.356448	-0.357745	-0.031357	26.5686	-0.355563	-30735.8	1.020195E-6	NaN
1104	1.000000	0.666863	7.37585e+06	-55339.1	1055.82	-29741.8	0.000000	0.000000	6.667011	0.010315	NaN	0.000000	0.001572	0.001726	28.0849	0.144190	0.001970	73.193	-116.939	-167.308	0.021486	0.665570	-0.348450	-0.349743	0.010315	73.193	-0.348556	-24324.1	-4.240490E-7	NaN
1104	1.000000	0.674848	7.37585e+06	-55339.1	1055.82	-29741.8	0.000000	0.000000	6.674993	-0.064555	NaN	0.000000	0.001557	0.001737	28.0847	0.032247	0.002086	15.4613	-90.6572	-164.91	0.033738	0.673540	-0.340465	-0.341773	-0.064555	15.4613	-0.337333	-16697.7	3.866113E-6	NaN
1104	1.000000	0.682870	7.37585e+06	-55339.1	1055.82	-29741.8	0.000000	0.000000	6.683015	-0.044413	NaN	0.000000	0.001604	0.001717	28.0846	0.089879	0.001986	45.2525	101.225	-169.014	-0.032017	0.681521	-0.332443	-0.333792	-0.044413	45.2525	-0.331707	-13817.9	3.214197E-6	NaN
1104	1.000000	0.690878	7.37585e+06	-55339.1	1055.82	-29741.8	0.000000	0.000000	6.691025	-0.007778	NaN	0.000000	0.001604	0.001710	28.0843	0.043328	0.002017	21.4869	48.0269	-165.068	0.023200	0.689563	-0.324435	-0.325750	-0.007778	21.4869	-0.324164	-10711.8	7.261631E-7	NaN
1104	1.000000	0.698864	7.37585e+06	-55339.1	1055.82	-29741.8	0.000000	0.000000	6.699011	0.002323	NaN	0.000000	0.001601	0.001725	28.0845	0.047403	0.001851	25.6138	80.2938	-169.868	-0.083910	0.697575	-0.316449	-0.317738	0.002323	25.6138	-0.316517	-8266.69	-2.809579E-7	NaN
1104	1.000000	0.706916	7.37585e+06	-55339.1	1055.82	-29741.8	0.000000	0.000000	6.707060	-0.087977	NaN	0.000000	0.001608	0.001738	28.0848	0.096007	0.002068	46.4203	-100.778	-166.983	-0.102401	0.705559	-0.308397	-0.309754	-0.087977	46.4203	-0.306976	-5973.93	1.472685E-5	NaN
1104	1.000000	0.714879	7.37585e+06	-55339.1	1055.82	-29741.8	0.000000	0.000000	6.715023	-0.087527	NaN	0.000000	0.001643	0.001700	28.0847	0.062526	0.002086	29.9683	-91.1528	-164.763	-0.093362	0.713558	-0.300434	-0.301755	-0.087527	29.9683	-0.298243	-4430.7	1.975470E-5	NaN
1104	1.000000	0.722886	7.37585e+06	-55339.1	1055.82	-29741.8	0.000000	0.000000	6.723030	-0.065262	NaN	0.000000	0.001614	0.001705	28.0847	0.057894	0.002086	27.7477	19.5943	-166.747	-0.039827	0.721570	-0.292427	-0.293743	-0.065262	27.7477	-0.290663	-3413.8	1.911700E-5	NaN
1104	1.000000	0.730900	7.37585e+06	-55339.1	1055.82	-29741.8	0.000000	0.000000	6.731045	-0.058694	NaN	0.000000	0.001605	0.001742	28.0831	0.112515	0.002154	52.2439	-116.34	-166.423	-0.011203	0.729586	-0.284413	-0.285727	-0.058694	52.2439	-0.283571	-2671.59	2.196979E-5	NaN
1104	1.000000	0.738918	7.37585e+06	-55339.1	1055.82	-29741.8	0.000000	0.000000	6.739062	-0.101914	NaN	0.000000	0.001633	0.001752	28.0832	0.040795	0.001943	20.9992	-177.145	-165.536	-0.015953	0.737600	-0.276395	-0.277713	-0.101914	20.9992	-0.272755	-1833.89	5.557276E-5	NaN
1104	1.000000	0.746939	7.37585e+06	-55339.1	1055.82	-29741.8	0.000000	0.000000	6.747088	0.019048	NaN	0.000000	0.001640	0.001737	28.0831	0.104666	0.001979	52.8938	128.101	-167.209	0.020762	0.745586	-0.268374	-0.269727	0.019048	52.8938	-0.268644	-1588.25	-1.199312E-5	NaN
1104	1.000000	0.754895	7.37585e+06	-55339.1	1055.82	-29741.8	0.000000	0.000000	6.755044	0.038309	NaN	0.000000	0.001616	0.001735	28.0832	0.064024	0.002108	30.37	29.1485	-167.378	0.064670	0.753632	-0.260418	-0.261681	0.038309	30.37	-0.261364	-1229.72	-3.115272E-5	NaN
1104	1.000000	0.762862	7.37585e+06	-55339.1	1055.82	-29741.8	0.000000	0.000000	6.763006	-0.071485	NaN	0.000000	0.001589	0.001738	28.0831	0.063335	0.001937	32.7031	83.3284	-165.274	-0.123685	0.761636	-0.252451	-0.253677	-0.071485	32.7031	-0.250812	-846.285	8.446978E-5	NaN
1104	1.000000	0.770905	7.37585e+06	-55339.1	1055.82	-29741.8	0.000000	0.000000	6.771051	-0.038870	NaN	0.000000	0.001580	0.001709	28.0831	0.081055	0.001965	41.2407	-13.1069	-166.351	0.011925	0.769596	-0.244408	-0.245717	-0.038870	41.2407	-0.243701	-656.521	5.920618E-5	NaN
1104	1.000000	0.778935	7.37585e+06	-55339.1	1055.82	-29741.8	0.000000	0.000000	6.779080	-0.072641	NaN	0.000000	0.001548	0.001750	28.0834	0.024360	0.001959	12.4349	151.806	-168.208	-0.032052	0.777634	-0.236378	-0.237679	-0.072641	12.4349	-0.231997	-430.535	0.000169	NaN
1104	1.000000	0.786896	7.37585e+06	-55339.1	1055.82	-29741.8	0.000000	0.000000	6.787040	-0.079973	NaN	0.000000	0.001554	0.001756	28.0832	0.051977	0.001969	26.4033	-152.27	-169	-0.133493	0.785579	-0.228417	-0.229735	-0.079973	26.4033	-0.226145	-347.945	0.000230	NaN
1104	1.000000	0.794931	7.37585e+06	-55339.1	1055.82	-29741.8	0.000000	0.000000	6.795079	0.014054	NaN	0.000000	0.001569	0.001766	28.0833	0.047751	0.001999	23.8879	-161.295	-171.493	-0.119509	0.793635	-0.220382	-0.221678	0.014054	23.8879	-0.220823	-286.305	-4.908610E-5	NaN
1104	1.000000	0.802943	7.37585e+06	-55339.1	1055.82	-29741.8	0.000000	0.000000	6.803090	-0.001640	NaN	0.000000	0.001603	0.001725	28.083	0.054119	0.001925	28.1166	129.957	-168.097	0.029560	0.801609	-0.212370	-0.213704	-0.001640	28.1166	-0.212326	-209.138	7.840953E-6	NaN
1104	1.000000	0.810922	7.37585e+06	-55339.1	1055.82	-29741.8	0.000000	0.000000	6.811066	-0.080695	NaN	0.000000	0.001577	0.001774	28.0832	0.056278	0.001976	28.4772	-160.339	-169.727	-0.086355	0.809611	-0.204391	-0.205702	-0.080695	28.4772	-0.202266	-143.507	0.000562	NaN
1104	1.000000	0.818917	7.37585e+06	-55339.1	1055.82	-29741.8	0.000000	0.000000	6.819064	-0.005922	NaN	0.000000	0.001561	0.001738	28.0832	0.021498	0.002116	10.1585	31.479	-163.204	-0.094599	0.817593	-0.196397	-0.197720	-0.005922	10.1585	-0.195959	-113.001	5.240580E-5	NaN
1104	1.000000	0.826942	7.37585e+06	-55339.1	1055.82	-29741.8	0.000000	0.000000	6.827089	-0.010894	NaN	0.000000	0.001579	0.001703	28.0829	0.072364	0.002061	35.1062	-48.8415	-166.982	-0.023705	0.825641	-0.188371	-0.189672	-0.010894	35.1062	-0.188138	-83.7292	0.000130	NaN
1104	1.000000	0.834916	7.37585e+06	-55339.1	1055.82	-29741.8	0.000000	0.000000	6.835062	-0.035698	NaN	0.000000	0.001605	0.001735	28.0834	0.177130	0.001886	93.9242	-61.9996	-163.69	-0.059350	0.833599	-0.180397	-0.181714	-0.035698	93.9242	-0.180112	-61.2887	0.000582	NaN
1104	1.000000	0.842956	7.37585e+06	-55339.1	1055.82	-29741.8	0.000000	0.000000	6.843102	-0.047982	NaN	0.000000	0.001617	0.001750	28.0832	0.025400	0.001832	13.863	143.714	-165.208	-0.025759	0.841603	-0.172357	-0.173711	-0.047982	13.863	-0.169761	-40.6874	0.001179	NaN
1104	1.000000	0.850941	7.37585e+06	-55339.1	1055.82	-29741.8	0.000000	0.000000	6.851088	-0.013662	NaN	0.000000	0.001586	0.001716	28.083	0.155196	0.001919	80.8624	-104.641	-165.585	-0.049080	0.849635	-0.164372	-0.165678	-0.013662	80.8624	-0.164245	-32.5867	0.000419	NaN
1104	1.000000	0.858930	7.37585e+06	-55339.1	1055.82	-29741.8	0.000000	0.000000	6.859076	-0.047108	NaN	0.000000	0.001530	0.001745	28.0831	0.060135	0.001995	30.1488	100.699	-166.955	-0.035431	0.857590	-0.156383	-0.157723	-0.047108	30.1488	-0.155211	-22.51	0.002093	NaN
1104	1.000000	0.866909	7.37585e+06	-55339.1	1055.82	-29741.8	0.000000	0.000000	6.867056	-0.004809	NaN	0.000000	0.001591	0.001731	28.0845	0.047899	0.001878	25.5055	-66.0147	-165.864	-0.031928	0.865658	-0.148404	-0.149656	-0.004809	25.5055	-0.148263	-16.8361	0.000286	NaN
1104	1.000000	0.874951	7.37585e+06	-55339.1	1055.82	-29741.8	0.000000	0.000000	6.875096	-0.052824	NaN	0.000000	0.001586	0.001724	28.0844	0.050402	0.001939	25.9894	-94.0086	-165.216	0.017307	0.873644	-0.140362	-0.141669	-0.052824	25.9894	-0.138837	-11.2484	0.004696	NaN
1104	1.000000	0.882975	7.37585e+06	-55339.1	1055.82	-29741.8	0.000000	0.000000	6.883121	-0.043446	NaN	0.000000	0.001578	0.001761	28.0845	0.018674	0.002001	9.334421	-151.845	-162.557	-0.027690	0.881657	-0.132338	-0.133656	-0.043446	9.334421	-0.128847	-7.237183	0.006003	NaN
1104	1.000000	0.890936	7.37585e+06	-55339.1	1055.82	-29741.8	0.000000	0.000000	6.891081	-0.050243	NaN	0.000000	0.001583	0.001711	28.0844	0.078011	0.002083	37.4428	-51.6659	-164.196	-0.053266	0.889617	-0.124377	-0.125696	-0.050243	37.4428	-0.123371	-5.644843	0.008901	NaN
1104	1.000000	0.898977	7.37585e+06	-55339.1	1055.82	-29741.8	0.000000	0.000000	6.899124	-0.008249	NaN	0.000000	0.001574	0.001771	28.0843	0.086460	0.002039	42.4092	40.3509	-167.647	-0.043676	0.897625	-0.116336	-0.117688	-0.008249	42.4092	-0.116191	-4.041891	0.002041	NaN
1104	1.000000	0.906948	7.37585e+06	-55339.1	1055.82	-29741.8	0.000000	0.000000	6.907098	0.042757	NaN	0.000000	0.001578	0.001723	28.0845	0.028464	0.002054	13.8558	-11.3225	-166.388	0.036432	0.905630	-0.108365	-0.109683	0.042757	13.8558	-0.110679	-3.105763	-0.013767	NaN
1104	1.000000	0.914938	7.37585e+06	-55339.1	1055.82	-29741.8	0.000000	0.000000	6.915088	0.047170	NaN	0.000000	0.001604	0.001726	28.0842	0.084707	0.001973	42.9236	173.437	-165.541	-0.000736	0.913651	-0.100375	-0.101662	0.047170	42.9236	-0.101199	-1.942090	-0.024288	NaN
1104	1.000000	0.922976	7.37585e+06	-55339.1	1055.82	-29741.8	0.000000	0.000000	6.923121	-0.042895	NaN	0.000000	0.001583	0.001724	28.0841	0.161016	0.001988	81.0012	73.4404	-167.484	-0.066094	0.921665	-0.092338	-0.093648	-0.042895	81.0012	-0.091940	-1.199723	0.035754	NaN
1104	1.000000	0.930977	7.37585e+06	-55339.1	1055.82	-29741.8	0.000000	0.000000	6.931123	-0.015757	NaN	0.000000	0.001638	0.001722	28.0843	0.165660	0.002037	81.3431	-95.529	-167.853	-0.025831	0.929717	-0.084336	-0.085596	-0.015757	81.3431	-0.084191	-0.785331	0.020065	NaN
1104	1.000000	0.938976	7.37585e+06	-55339.1	1055.82	-29741.8	0.000000	0.000000	6.939121	-0.051806	NaN	0.000000	0.001652	0.001722	28.0842	0.076129	0.002091	36.4063	139.611	-166.341	-0.032458	0.937657	-0.076337	-0.077656	-0.051806	36.4063	-0.075270	-0.469359	0.110377	NaN
1104	1.000000	0.946968	7.37585e+06	-55339.1	1055.82	-29741.8	0.000000	0.000000	6.947111	-0.098368	NaN	0.000000	0.001657	0.001715	28.0845	0.061662	0.001902	32.4209	159.302	-166.367	-0.170483	0.945722	-0.068345	-0.069591	-0.098368	32.4209	-0.066070	-0.266772	0.368735	NaN
1104	1.000000	0.955011	7.37585e+06	-55339.1	1055.82	-29741.8	0.000000	0.000000	6.955156	-0.052077	NaN	0.000000	0.001633	0.001723	28.084	0.103529	0.001936	53.4651	5.450763	-162.848	-0.043925	0.953663	-0.060302	-0.061650	-0.052077	53.4651	-0.059572	-0.175062	0.297476	NaN
1104	1.000000	0.963009	7.37585e+06	-55339.1	1055.82	-29741.8	0.000000	0.000000	6.963154	-0.044748	NaN	0.000000	0.001649	0.001763	28.0842	0.106546	0.001923	55.4196	-127.016	-168.92	-0.028647	0.961674	-0.052304	-0.053639	-0.044748	55.4196	-0.051699	-0.102671	0.435835	NaN
1104	1.000000	0.970986	7.37585e+06	-55339.1	1055.82	-29741.8	0.000000	0.000000	6.971131	-0.055185	NaN	0.000000	0.001631	0.001741	28.0841	0.070961	0.001993	35.6033	102.269	-167.148	-0.048400	0.969717	-0.044327	-0.045596	-0.055185	35.6033	-0.043165	-0.056477	0.977128	NaN
1104	1.000000	0.978987	7.37585e+06	-55339.1	1055.82	-29741.8	0.000000	0.000000	6.979135	0.013507	NaN	0.000000	0.001607	0.001723	28.0841	0.014853	0.001994	7.447223	108.763	-166.448	-0.007907	0.977674	-0.036326	-0.037639	0.013507	7.447223	-0.037686	-0.038498	-0.350854	NaN
1104	1.000000	0.987003	7.37585e+06	-55339.1	1055.82	-29741.8	0.000000	0.000000	6.987148	-0.052269	NaN	0.000000	0.001591	0.001701	28.0844	0.025777	0.002039	12.6399	3.598023	-165.754	-0.056394	0.985675	-0.028310	-0.029638	-0.052269	12.6399	-0.025209	-0.017084	3.059561	NaN
1104	1.000000	0.994985	7.37585e+06	-55339.1	1055.82	-29741.8	0.000000	0.000000	6.995134	0.035673	NaN	0.000000	0.001608	0.001700	28.0839	0.071139	0.002027	35.0973	-167.468	-169.636	0.054361	0.993678	-0.020328	-0.021635	0.035673	35.0973	-0.021091	-0.013389	-2.664403	NaN
1104	1.000000	1.003001	7.37585e+06	-55339.1	1055.82	-29741.8	0.000000	0.000000	7.003149	0.007961	NaN	0.000000	0.001626	0.001783	28.0829	0.073611	0.001948	37.7896	67.8676	-164.19	-0.032372	1.001686	-0.012312	-0.013627	0.007961	37.7896	-0.012470	-0.007798	-1.020959	NaN
1104	1.000000	1.011024	7.37585e+06	-55339.1	1055.82	-29741.8	0.000000	0.000000	7.011207	0.862204	NaN	0.000000	0.001610	0.001730	28.0827	1.630033	0.001987	820.272	15.9908	-169.424	0.264050	1.009684	-0.004289	-0.005629	0.862204	820.272	-0.005077	-0.003465	-248.836	NaN
1104	2.000000	1.018391	7.37585e+06	-55339.1	1055.82	-29741.8	0.000000	0.000000	7.018909	8.993776	NaN	0.000000	0.001583	0.001730	28.0825	8.694929	0.001524	5705.56	7.816094	-173.4	8.523997	1.017618	0.003078	0.002305	8.993776	5705.56	0.001896	0.001471	6114.72	135922
1104	2.000000	1.020573	7.37585e+06	-55339.1	1055.82	-29741.8	0.000000	0.000000	7.021228	12.3233	NaN	0.000000	0.001569	0.001700	28.0831	11.4795	0.001732	6628.78	7.994615	-172.51	12.2999	1.020243	0.005260	0.004930	12.3233	6628.78	0.003866	0.003122	3947.44	108393
1104	2.000000	1.022531	7.37585e+06	-55339.1	1055.82	-29741.8	0.000000	0.000000	7.023258	14.0867	NaN	0.000000	0.001560	0.001707	28.083	13.5164	0.001684	8026.78	8.316185	-176.622	15.1462	1.022231	0.007218	0.006918	14.0867	8026.78	0.005902	0.004971	2833.63	104012
1104	2.000000	1.024524	7.37585e+06	-55339.1	1055.82	-29741.8	0.000000	0.000000	7.025375	17.1185	NaN	0.000000	0.001563	0.001694	28.0829	16.1693	0.001731	9340.33	6.980032	-176.339	17.2117	1.024192	0.009211	0.008879	17.1185	9340.33	0.007836	0.006874	2490.28	102926
1104	2.000000	1.026507	7.37585e+06	-55339.1	1055.82	-29741.8	0.000000	0.000000	7.027585	22.6192	NaN	0.000000	0.001569	0.001722	28.0826	18.2739	0.001697	10766	6.738413	-179.393	23.2264	1.026143	0.011194	0.010830	22.6192	10766	0.009618	0.008761	2581.96	105091
1104	2.000000	1.028504	7.37585e+06	-55339.1	1055.82	-29741.8	0.000000	0.000000	7.029733	26.2972	NaN	0.000000	0.001545	0.001732	28.0826	20.5803	0.001892	10877.1	7.497164	-178.427	25.9603	1.028179	0.013191	0.012866	26.2972	10877.1	0.011377	0.010753	2445.6	95835.4
1104	2.000000	1.030469	7.37585e+06	-55339.1	1055.82	-29741.8	0.000000	0.000000	7.031874	30.5701	NaN	0.000000	0.001576	0.001723	28.0828	22.4503	0.001847	12157.3	6.147886	-179.296	29.5458	1.030197	0.015156	0.014884	30.5701	12157.3	0.013270	0.013047	2343.09	97242.5
1104	2.000000	1.032483	7.37585e+06	-55339.1	1055.82	-29741.8	0.000000	0.000000	7.034128	36.3957	NaN	0.000000	0.001568	0.001715	28.0826	23.8943	0.001712	13956.6	3.566771	-176.771	36.0623	1.032167	0.017170	0.016854	36.3957	13956.6	0.015214	0.015572	2337.19	102182
1104	2.000000	1.034459	7.37585e+06	-55339.1	1055.82	-29741.8	0.000000	0.000000	7.036325	41.787	NaN	0.000000	0.001581	0.001767	28.0835	26.6954	0.001852	14413	5.857567	179.073	41.6387	1.034182	0.019145	0.018869	41.787	14413	0.016971	0.018004	2320.96	98138.5
1104	2.000000	1.036461	7.37585e+06	-55339.1	1055.82	-29741.8	0.000000	0.000000	7.038610	48.6372	NaN	0.000000	0.001589	0.001742	28.0827	27.5792	0.001741	15840.1	7.409981	178.448	48.2432	1.036133	0.021148	0.020820	48.6372	15840.1	0.018845	0.020760	2342.8	100442
1104	2.000000	1.038453	7.37585e+06	-55339.1	1055.82	-29741.8	0.000000	0.000000	7.040850	54.6717	NaN	0.000000	0.001585	0.001715	28.0831	29.2143	0.001664	17555.5	1.681073	-177.915	53.8971	1.038158	0.023140	0.022845	54.6717	17555.5	0.020804	0.023822	2294.99	103919
1104	2.000000	1.040502	7.37585e+06	-55339.1	1055.82	-29741.8	0.000000	0.000000	7.043238	62.9264	NaN	0.000000	0.001554	0.001732	28.0831	32.4311	0.001744	18592.9	7.773524	177.608	63.4358	1.040056	0.025189	0.024742	62.9264	18592.9	0.022650	0.026879	2341.07	103613
1104	2.000000	1.042415	7.37585e+06	-55339.1	1055.82	-29741.8	0.000000	0.000000	7.045417	69.3912	NaN	0.000000	0.001530	0.001759	28.0828	35.1203	0.001838	19112.6	7.885199	175.602	68.2706	1.042147	0.027102	0.026834	69.3912	19112.6	0.024379	0.029896	2321.09	100992
1104	2.000000	1.044395	7.37585e+06	-55339.1	1055.82	-29741.8	0.000000	0.000000	7.047671	76.0582	NaN	0.000000	0.001609	0.001733	28.0833	36.2175	0.001818	19921.9	1.565062	-178.583	72.3243	1.044125	0.029082	0.028812	76.0582	19921.9	0.026218	0.033270	2286.11	99788.1
1104	2.000000	1.046433	7.37585e+06	-55339.1	1055.82	-29741.8	0.000000	0.000000	7.049987	82.7977	NaN	0.000000	0.001564	0.001728	28.0829	38.05	0.001844	20638.2	6.741780	175.825	82.5945	1.046120	0.031120	0.030807	82.7977	20638.2	0.028111	0.036920	2242.61	98132.4
1104	2.000000	1.048443	7.37585e+06	-55339.1	1055.82	-29741.8	0.000000	0.000000	7.052479	94.5281	NaN	0.000000	0.001560	0.001738	28.0842	40.4622	0.001757	23024.8	2.088210	-179.726	93.488	1.048023	0.033130	0.032710	94.5281	23024.8	0.030051	0.040849	2314.11	104083
1104	2.000000	1.050505	7.37585e+06	-55339.1	1055.82	-29741.8	0.000000	0.000000	7.054869	102.505	NaN	0.000000	0.001570	0.001777	28.0842	43.0256	0.001838	23403.8	6.330139	176.626	103.84	1.050068	0.035192	0.034755	102.505	23403.8	0.031907	0.044789	2288.61	101035
1104	2.000000	1.052375	7.37585e+06	-55339.1	1055.82	-29741.8	0.000000	0.000000	7.057097	111.197	NaN	0.000000	0.001611	0.001732	28.0841	44.21	0.001682	26277.4	3.545404	177.376	109.224	1.052101	0.037062	0.036787	111.197	26277.4	0.033888	0.049189	2260.61	108249
1104	2.000000	1.054388	7.37585e+06	-55339.1	1055.82	-29741.8	0.000000	0.000000	7.059443	119.296	NaN	0.000000	0.001590	0.001737	28.0846	47.5262	0.001930	24623.2	3.575178	177.647	115.643	1.054089	0.039075	0.038776	119.296	24623.2	0.035442	0.052779	2260.27	97923.1
1104	2.000000	1.056454	7.37585e+06	-55339.1	1055.82	-29741.8	0.000000	0.000000	7.061724	124.525	NaN	0.000000	0.001572	0.001730	28.0841	49.1908	0.001740	28275	6.319397	173.59	125.638	1.056215	0.041141	0.040902	124.525	28275	0.037838	0.058561	2126.41	106751
1104	2.000000	1.058356	7.37585e+06	-55339.1	1055.82	-29741.8	0.000000	0.000000	7.064172	137.788	NaN	0.000000	0.001583	0.001710	28.0843	50.7657	0.001756	28908.5	4.236162	175.546	134.386	1.058068	0.043043	0.042755	137.788	28908.5	0.039468	0.062661	2198.93	105511
1104	2.000000	1.060406	7.37585e+06	-55339.1	1055.82	-29741.8	0.000000	0.000000	7.066647	148.118	NaN	0.000000	0.001581	0.001755	28.0842	52.7068	0.001788	29480.1	0.974935	179.11	146.043	1.060123	0.045093	0.044810	148.118	29480.1	0.041325	0.067497	2194.44	103671
1104	2.000000	1.062423	7.37585e+06	-55339.1	1055.82	-29741.8	0.000000	0.000000	7.069132	159.505	NaN	0.000000	0.001576	0.001714	28.0841	54.3468	0.001748	31094.5	5.108975	174.231	160.61	1.062147	0.047110	0.046834	159.505	31094.5	0.043263	0.072732	2193.05	105340
1104	2.000000	1.064361	7.37585e+06	-55339.1	1055.82	-29741.8	0.000000	0.000000	7.071496	169.849	NaN	0.000000	0.001569	0.001684	28.0854	56.3713	0.001725	32686.8	1.677634	177.958	167.424	1.064086	0.049048	0.048773	169.849	32686.8	0.045151	0.078016	2177.11	106919
1104	2.000000	1.066423	7.37585e+06	-55339.1	1055.82	-29741.8	0.000000	0.000000	7.073922	178.717	NaN	0.000000	0.001567	0.001708	28.0841	57.6639	0.001822	31644.5	5.226991	174.397	180.209	1.066059	0.051110	0.050746	178.717	31644.5	0.046874	0.082997	2153.31	100356
1104	2.000000	1.068402	7.37585e+06	-55339.1	1055.82	-29741.8	0.000000	0.000000	7.076317	188.808	NaN	0.000000	0.001587	0.001713	28.0844	61.1441	0.001690	36174.3	7.813255	169.711	189.522	1.068114	0.053089	0.052801	188.808	36174.3	0.049175	0.089879	2100.69	110241
1104	2.000000	1.070392	7.37585e+06	-55339.1	1055.82	-29741.8	0.000000	0.000000	7.078721	198.88	NaN	0.000000	0.001550	0.001717	28.0841	62.309	0.001759	35419.8	6.416206	172.51	196.831	1.070091	0.055079	0.054778	198.88	35419.8	0.050868	0.095115	2090.95	104929
1104	2.000000	1.072371	7.37585e+06	-55339.1	1055.82	-29741.8	0.000000	0.000000	7.081015	206.562	NaN	0.000000	0.001577	0.001732	28.0841	64.1998	0.001826	35164.5	5.222161	172.861	204.429	1.072162	0.057057	0.056849	206.562	35164.5	0.052652	0.100786	2049.52	101199
1104	2.000000	1.074338	7.37585e+06	-55339.1	1055.82	-29741.8	0.000000	0.000000	7.083558	220.53	NaN	0.000000	0.001589	0.001738	28.0843	64.9972	0.001821	35690.2	0.602222	177.912	217.947	1.074168	0.059025	0.058855	220.53	35690.2	0.054391	0.106467	2071.34	99934.3
1104	2.000000	1.076395	7.37585e+06	-55339.1	1055.82	-29741.8	0.000000	0.000000	7.086089	232.081	NaN	0.000000	0.001627	0.001714	28.0844	66.9663	0.001757	38112.4	5.422851	172.39	232.548	1.076042	0.061082	0.060729	232.081	38112.4	0.056514	0.113607	2042.84	103309
1104	2.000000	1.078570	7.37585e+06	-55339.1	1055.82	-29741.8	0.000000	0.000000	7.088421	235.885	NaN	0.000000	0.001623	0.001727	28.0846	69.8282	0.001924	36296.5	5.031961	173.883	245.549	1.078126	0.063257	0.062812	235.885	36296.5	0.058383	0.120074	1964.49	95700.1
1104	2.000000	1.080424	7.37585e+06	-55339.1	1055.82	-29741.8	0.000000	0.000000	7.091157	257.34	NaN	0.000000	0.001646	0.001701	28.0842	71.259	0.001771	40232.5	7.723067	169.666	256.74	1.080074	0.065111	0.064761	257.34	40232.5	0.060313	0.126935	2027.34	103172
1104	2.000000	1.082377	7.37585e+06	-55339.1	1055.82	-29741.8	0.000000	0.000000	7.093534	267.631	NaN	0.000000	0.001654	0.001672	28.0831	70.6911	0.001675	42194.6	2.656814	174.779	266.293	1.082117	0.067064	0.066804	267.631	42194.6	0.062307	0.134211	1994.1	105229
1104	2.000000	1.084361	7.37585e+06	-55339.1	1055.82	-29741.8	0.000000	0.000000	7.095939	277.861	NaN	0.000000	0.001605	0.001685	28.0829	74.5249	0.001736	42937.6	3.127596	173.641	275.538	1.083989	0.069048	0.068676	277.861	42937.6	0.064195	0.141278	1966.76	104370
1104	2.000000	1.086373	7.37585e+06	-55339.1	1055.82	-29741.8	0.000000	0.000000	7.098754	297.374	NaN	0.000000	0.001637	0.001729	28.083	74.5564	0.001749	42639.5	5.613508	172.349	296.581	1.085963	0.071060	0.070649	297.374	42639.5	0.065830	0.147539	2015.56	101422
1104	2.000000	1.088360	7.37585e+06	-55339.1	1055.82	-29741.8	0.000000	0.000000	7.100886	300.904	NaN	0.000000	0.001635	0.001655	28.0831	78.7909	0.001777	44347.9	4.425610	172.059	300.223	1.088094	0.073047	0.072781	300.904	44347.9	0.067959	0.155883	1930.32	102624
1104	2.000000	1.090449	7.37585e+06	-55339.1	1055.82	-29741.8	0.000000	0.000000	7.103553	314.956	NaN	0.000000	0.001649	0.001687	28.0829	81.1864	0.001853	43817.9	7.575543	171.337	317.528	1.089995	0.075136	0.074682	314.956	43817.9	0.069745	0.163052	1931.63	99142.8
1104	2.000000	1.092294	7.37585e+06	-55339.1	1055.82	-29741.8	0.000000	0.000000	7.105905	327.29	NaN	0.000000	0.001628	0.001695	28.083	82.6579	0.001837	44988.4	4.103758	173.018	323.084	1.091975	0.076981	0.076662	327.29	44988.4	0.071524	0.170345	1921.34	99588.5
1104	2.000000	1.094395	7.37585e+06	-55339.1	1055.82	-29741.8	0.000000	0.000000	7.108565	340.892	NaN	0.000000	0.001664	0.001701	28.083	85.3639	0.001809	47196.8	6.302121	170.103	339.78	1.093994	0.079082	0.078681	340.892	47196.8	0.073665	0.179313	1901.1	101831
1104	2.000000	1.096383	7.37585e+06	-55339.1	1055.82	-29741.8	0.000000	0.000000	7.111113	354.479	NaN	0.000000	0.001673	0.001688	28.083	85.609	0.001809	47320.8	1.275610	174.959	356.325	1.096127	0.081070	0.080814	354.479	47320.8	0.075452	0.186971	1895.9	99985.8
1104	2.000000	1.098317	7.37585e+06	-55339.1	1055.82	-29741.8	0.000000	0.000000	7.113751	371.614	NaN	0.000000	0.001685	0.001660	28.0832	89.3655	0.001806	49478.3	8.849474	167.038	368.651	1.098032	0.083004	0.082718	371.614	49478.3	0.077371	0.195357	1902.24	102276
1104	2.000000	1.100365	7.37585e+06	-55339.1	1055.82	-29741.8	0.000000	0.000000	7.116436	387.08	NaN	0.000000	0.001688	0.001693	28.0829	90.3933	0.001754	51527.4	4.997523	170.693	385.76	1.100080	0.085052	0.084767	387.08	51527.4	0.079418	0.204496	1892.85	104104
1104	2.000000	1.102337	7.37585e+06	-55339.1	1055.82	-29741.8	0.000000	0.000000	7.118866	398.216	NaN	0.000000	0.001664	0.001713	28.083	90.7803	0.001748	51920.1	2.590390	172.999	396.679	1.102123	0.087024	0.086810	398.216	51920.1	0.081272	0.212938	1870.1	102797
1104	2.000000	1.104281	7.37585e+06	-55339.1	1055.82	-29741.8	0.000000	0.000000	7.121447	413.695	NaN	0.000000	0.001699	0.001763	28.083	94.5221	0.001748	54072	7.596427	168.101	409.72	1.103954	0.088968	0.088641	413.695	54072	0.083230	0.222030	1863.24	104843
1104	2.000000	1.106368	7.37585e+06	-55339.1	1055.82	-29741.8	0.000000	0.000000	7.124023	425.583	NaN	0.000000	0.001682	0.001721	28.0832	94.6356	0.001850	51144.1	0.534103	175.348	426.4	1.106076	0.091055	0.090763	425.583	51144.1	0.084814	0.229517	1854.26	97535.3
1104	2.000000	1.108270	7.37585e+06	-55339.1	1055.82	-29741.8	0.000000	0.000000	7.126605	442.128	NaN	0.000000	0.001663	0.001721	28.0832	98.7953	0.001925	51326.3	9.018422	167.399	435.608	1.107956	0.092957	0.092643	442.128	51326.3	0.086496	0.237590	1860.88	96205.3
1104	2.000000	1.110423	7.37585e+06	-55339.1	1055.82	-29741.8	0.000000	0.000000	7.129415	458.085	NaN	0.000000	0.001665	0.001771	28.0831	100.109	0.001830	54705.8	6.780364	169.169	460.294	1.109976	0.095110	0.094663	458.085	54705.8	0.088830	0.249011	1839.62	100161
1104	2.000000	1.112356	7.37585e+06	-55339.1	1055.82	-29741.8	0.000000	0.000000	7.131800	469.08	NaN	0.000000	0.001658	0.001742	28.0831	99.5801	0.001780	55933.9	0.246954	174.937	469.063	1.112138	0.097042	0.096825	469.08	55933.9	0.090753	0.258606	1813.88	100491
1104	2.000000	1.114498	7.37585e+06	-55339.1	1055.82	-29741.8	0.000000	0.000000	7.134454	481.525	NaN	0.000000	0.001677	0.001710	28.083	103.48	0.001753	59042	6.636179	168.793	491.183	1.114047	0.099185	0.098734	481.525	59042	0.093068	0.270387	1780.87	103739
1104	2.000000	1.116407	7.37585e+06	-55339.1	1055.82	-29741.8	0.000000	0.000000	7.137403	506.813	NaN	0.000000	0.001673	0.001724	28.0845	104.381	0.001974	52864.8	7.575786	168.974	508.04	1.115900	0.101094	0.100587	506.813	52864.8	0.093904	0.274699	1844.98	92153.4
1104	2.000000	1.116932	7.37585e+06	-55339.1	1055.82	-29741.8	0.000000	0.000000	7.137730	502.005	NaN	0.000000	0.001677	0.001715	28.0845	104.487	0.001808	57801.2	3.603491	-8.497436	502.358	1.116729	0.101619	0.101416	502.005	57801.2	0.095105	0.280952	1786.8	99630.8