File: remote_trans/data/nanoindenter/0828-1/data/Data_2025-08-06,11h17m57s/2025-07-22_16-23-58_1_376.txt
2025-07-22, 16:23:58, 1
Index	Phase	Displacement	Time	Pos X	Pos Y	Pos Z	Rot A	Rot B	Piezo Z	Force A	Force B	Gripper	Voltage A	Voltage B	Temperature	Amplitude force	Amplitude pos	Stiffness	Phase shift	Phase excitation	Force A raw	Displacement raw	HMax	HMax raw	Real Force	Real Stiffness	Contact Depth	Area	Hardness	Reduced Mod.
[#]	[#]	[um]	[s]	[um]	[um]	[um]	[m°]	[m°]	[um]	[uN]	[uN]	[V]	[V]	[V]	[°C]	[uN]	[um]	[N/m]	[°]	[°]	[uN]	[um]	[um]	[um]	[uN]	[N/m]	[um]	[um^2]	[MPa]	[MPa]
376	1.000000	0.002614	7.36874e+06	-57439.1	955.819	-29737.2	0.000000	0.000000	6.002850	-0.004268	NaN	0.000000	0.001595	0.001695	28.0817	0.054653	0.000854	64.0261	176.778	-165.7	-0.088746	0.001326	-1.076700	-1.077988	-0.004268	64.0261	-1.076650	-2.435124E+14	1.752820E-17	NaN
376	1.000000	0.012641	7.36874e+06	-57439.1	955.818	-29737.2	0.000000	0.000000	6.012877	0.003243	NaN	0.000000	0.001562	0.001658	28.0818	0.136500	0.001074	127.108	-6.894687	19.811	-0.052274	0.011219	-1.066673	-1.068095	0.003243	127.108	-1.066692	-1.789563E+14	-1.812077E-17	NaN
376	1.000000	0.022528	7.36874e+06	-57439.1	955.819	-29737.2	0.000000	0.000000	6.022763	-0.028034	NaN	0.000000	0.001573	0.001691	28.0816	0.036644	0.001606	22.8164	68.5443	-168.267	-0.035769	0.021214	-1.056786	-1.058099	-0.028034	22.8164	-1.055864	-1.280092E+14	2.189970E-16	NaN
376	1.000000	0.032505	7.36874e+06	-57439.1	955.819	-29737.2	0.000000	0.000000	6.032745	0.072291	NaN	0.000000	0.001631	0.001689	28.0808	0.085630	0.001795	47.7063	121.68	15.8778	0.092293	0.031154	-1.046809	-1.048160	0.072291	47.7063	-1.047945	-1.001824E+14	-7.215922E-16	NaN
376	1.000000	0.042529	7.36874e+06	-57439.1	955.818	-29737.2	0.000000	0.000000	6.042767	0.040284	NaN	0.000000	0.001610	0.001679	28.0805	0.008188	0.002009	4.075359	111.254	-165.226	0.042933	0.041210	-1.036785	-1.038104	0.040284	4.075359	-1.044198	-8.921060E+13	-4.515623E-16	NaN
376	1.000000	0.052520	7.36874e+06	-57439.1	955.818	-29737.2	0.000000	0.000000	6.052759	0.056420	NaN	0.000000	0.001576	0.001665	28.0804	0.077498	0.001950	39.7323	-97.3364	14.1975	-0.048973	0.051153	-1.026794	-1.028161	0.056420	39.7323	-1.027859	-5.378728E+13	-1.048955E-15	NaN
376	1.000000	0.062546	7.36874e+06	-57439.1	955.817	-29737.2	0.000000	0.000000	6.062785	0.041280	NaN	0.000000	0.001577	0.001685	28.0802	0.138857	0.002058	67.4652	-119.911	-164.979	0.105611	0.061209	-1.016767	-1.018105	0.041280	67.4652	-1.017226	-3.869291E+13	-1.066873E-15	NaN
376	1.000000	0.072533	7.36874e+06	-57439.1	955.819	-29737.2	0.000000	0.000000	6.072767	-0.058187	NaN	0.000000	0.001573	0.001683	28.08	0.127043	0.001985	63.991	110.623	14.8117	0.000264	0.071177	-1.006781	-1.008137	-0.058187	63.991	-1.006099	-2.740804E+13	2.122977E-15	NaN
376	1.000000	0.082532	7.36874e+06	-57439.1	955.818	-29737.2	0.000000	0.000000	6.082769	0.010016	NaN	0.000000	0.001536	0.001658	28.0803	0.076761	0.002028	37.8502	9.724665	-166.8	-0.016383	0.081214	-0.996781	-0.998100	0.010016	37.8502	-0.996980	-2.065879E+13	-4.848362E-16	NaN
376	1.000000	0.092523	7.36874e+06	-57439.1	955.818	-29737.2	0.000000	0.000000	6.092759	-0.005354	NaN	0.000000	0.001565	0.001679	28.0802	0.230949	0.002001	115.423	163.691	10.541	0.016317	0.091131	-0.986791	-0.988183	-0.005354	115.423	-0.986756	-1.504612E+13	3.558402E-16	NaN
376	1.000000	0.102542	7.36874e+06	-57439.1	955.817	-29737.2	0.000000	0.000000	6.102780	0.024051	NaN	0.000000	0.001547	0.001696	28.0803	0.066853	0.002173	30.7709	158.979	-166.799	-0.056861	0.101243	-0.976772	-0.978070	0.024051	30.7709	-0.977358	-1.124119E+13	-2.139517E-15	NaN
376	1.000000	0.112563	7.36874e+06	-57439.1	955.818	-29737.2	0.000000	0.000000	6.112801	0.042506	NaN	0.000000	0.001528	0.001661	28.0802	0.048518	0.002139	22.6804	63.951	15.1047	-0.068356	0.111150	-0.966751	-0.968164	0.042506	22.6804	-0.968156	-8.449224E+12	-5.030741E-15	NaN
376	1.000000	0.122534	7.36874e+06	-57439.1	955.818	-29737.2	0.000000	0.000000	6.122769	-0.049301	NaN	0.000000	0.001604	0.001684	28.0807	0.045747	0.001801	25.4025	-56.0187	-165.752	0.001736	0.121190	-0.956780	-0.958124	-0.049301	25.4025	-0.955324	-5.673131E+12	8.690194E-15	NaN
376	1.000000	0.132558	7.36874e+06	-57439.1	955.818	-29737.2	0.000000	0.000000	6.132793	-0.056221	NaN	0.000000	0.001617	0.001670	28.0802	0.014107	0.001952	7.226719	-119.328	13.3853	0.011178	0.131173	-0.946756	-0.948141	-0.056221	7.226719	-0.940921	-3.627100E+12	1.550038E-14	NaN
376	1.000000	0.142551	7.36874e+06	-57439.1	955.818	-29737.2	0.000000	0.000000	6.142784	-0.096827	NaN	0.000000	0.001629	0.001680	28.0803	0.076378	0.001999	38.2151	153.494	-165.509	0.006782	0.141224	-0.936763	-0.938090	-0.096827	38.2151	-0.934862	-3.004813E+12	3.222393E-14	NaN
376	1.000000	0.152538	7.36874e+06	-57439.1	955.818	-29737.2	0.000000	0.000000	6.152771	-0.086944	NaN	0.000000	0.001621	0.001675	28.0802	0.062092	0.002040	30.4355	-157.033	13.7911	-0.086077	0.151246	-0.926776	-0.928068	-0.086944	30.4355	-0.924633	-2.186543E+12	3.976312E-14	NaN
376	1.000000	0.162569	7.36874e+06	-57439.1	955.818	-29737.2	0.000000	0.000000	6.162804	-0.039226	NaN	0.000000	0.001614	0.001691	28.0805	0.012808	0.002095	6.114753	116.445	-165.394	-0.071663	0.161266	-0.916745	-0.918048	-0.039226	6.114753	-0.911934	-1.473270E+12	2.662504E-14	NaN
376	1.000000	0.172570	7.36874e+06	-57439.1	955.818	-29737.2	0.000000	0.000000	6.172806	-0.011471	NaN	0.000000	0.001613	0.001673	28.0813	0.070576	0.002062	34.2324	98.4702	17.2633	0.023506	0.171206	-0.906744	-0.908108	-0.011471	34.2324	-0.906493	-1.243907E+12	9.222006E-15	NaN
376	1.000000	0.182532	7.36874e+06	-57439.1	955.818	-29737.2	0.000000	0.000000	6.182770	0.042470	NaN	0.000000	0.001601	0.001693	28.0814	0.065553	0.002019	32.4643	-121.271	-166.359	-0.024851	0.181242	-0.896782	-0.898072	0.042470	32.4643	-0.897763	-9.480748E+11	-4.479591E-14	NaN
376	1.000000	0.192561	7.36874e+06	-57439.1	955.818	-29737.2	0.000000	0.000000	6.192798	-0.009145	NaN	0.000000	0.001623	0.001663	28.0813	0.060237	0.002057	29.2805	-49.8385	15.4063	0.030420	0.191200	-0.886752	-0.888114	-0.009145	29.2805	-0.886518	-6.681061E+11	1.368723E-14	NaN
376	1.000000	0.202591	7.36874e+06	-57439.1	955.819	-29737.2	0.000000	0.000000	6.202827	-0.002232	NaN	0.000000	0.001613	0.001688	28.0818	0.092498	0.001868	49.5227	129.448	-166.133	-0.053515	0.201224	-0.876723	-0.878090	-0.002232	49.5227	-0.876689	-4.919629E+11	4.536494E-15	NaN
376	1.000000	0.212554	7.36874e+06	-57439.1	955.818	-29737.2	0.000000	0.000000	6.212790	-0.017592	NaN	0.000000	0.001632	0.001669	28.0813	0.091589	0.002007	45.6253	34.6176	14.6674	-0.067650	0.211215	-0.866760	-0.868098	-0.017592	45.6253	-0.866471	-3.578433E+11	4.916195E-14	NaN
376	1.000000	0.222577	7.36874e+06	-57439.1	955.819	-29737.2	0.000000	0.000000	6.222813	-0.006055	NaN	0.000000	0.001614	0.001667	28.0816	0.028638	0.002054	13.9421	156.923	-165.134	0.084595	0.221297	-0.856737	-0.858017	-0.006055	13.9421	-0.856411	-2.615417E+11	2.315305E-14	NaN
376	1.000000	0.232576	7.36874e+06	-57439.1	955.82	-29737.2	0.000000	0.000000	6.232813	0.014442	NaN	0.000000	0.001621	0.001690	28.0817	0.070932	0.001970	36.0059	-56.764	17.406	0.030908	0.231210	-0.846738	-0.848103	0.014442	36.0059	-0.847039	-1.952716E+11	-7.395862E-14	NaN
376	1.000000	0.242595	7.36874e+06	-57439.1	955.818	-29737.2	0.000000	0.000000	6.242829	-0.064958	NaN	0.000000	0.001640	0.001660	28.0818	0.032310	0.001985	16.2783	16.9554	-165.778	-0.059121	0.241297	-0.836719	-0.838017	-0.064958	16.2783	-0.833726	-1.289082E+11	5.039107E-13	NaN
376	1.000000	0.252585	7.36874e+06	-57439.1	955.817	-29737.2	0.000000	0.000000	6.252817	-0.108136	NaN	0.000000	0.001594	0.001700	28.0817	0.098167	0.001986	49.4244	-124.259	13.6859	-0.087507	0.251315	-0.826729	-0.827998	-0.108136	49.4244	-0.825088	-9.844670E+10	1.098419E-12	NaN
376	1.000000	0.262619	7.36874e+06	-57439.1	955.818	-29737.2	0.000000	0.000000	6.262855	-0.026855	NaN	0.000000	0.001602	0.001612	28.0818	0.022920	0.001936	11.8402	80.9666	-166.094	-0.095986	0.261281	-0.816695	-0.818033	-0.026855	11.8402	-0.814993	-7.183092E+10	3.738595E-13	NaN
376	1.000000	0.272633	7.36874e+06	-57439.1	955.818	-29737.2	0.000000	0.000000	6.272870	-0.000781	NaN	0.000000	0.001623	0.001628	28.0818	0.108673	0.001960	55.4464	166.158	14.9572	0.030198	0.271287	-0.806681	-0.808026	-0.000781	55.4464	-0.806670	-5.538452E+10	1.409751E-14	NaN
376	1.000000	0.282635	7.36874e+06	-57439.1	955.818	-29737.2	0.000000	0.000000	6.282869	-0.046673	NaN	0.000000	0.001628	0.001630	28.0816	0.060626	0.002127	28.504	-108.455	-162.303	-0.088781	0.281260	-0.796679	-0.798053	-0.046673	28.504	-0.795451	-3.900362E+10	1.196637E-12	NaN
376	1.000000	0.292617	7.36874e+06	-57439.1	955.818	-29737.2	0.000000	0.000000	6.292851	-0.070944	NaN	0.000000	0.001646	0.001679	28.0815	0.063625	0.002026	31.4056	-56.1509	15.4878	-0.064991	0.291295	-0.786697	-0.788018	-0.070944	31.4056	-0.785003	-2.813206E+10	2.521819E-12	NaN
376	1.000000	0.302639	7.36874e+06	-57439.1	955.819	-29737.2	0.000000	0.000000	6.302871	-0.107114	NaN	0.000000	0.001620	0.001666	28.0816	0.012123	0.001890	6.414517	133.349	-160.114	-0.085524	0.301307	-0.776675	-0.778007	-0.107114	6.414517	-0.764151	-1.464742E+10	7.312819E-12	NaN
376	1.000000	0.312610	7.36874e+06	-57439.1	955.818	-29737.2	0.000000	0.000000	6.312848	0.030490	NaN	0.000000	0.001617	0.001647	28.0803	0.069503	0.002210	31.4495	90.892	14.8851	0.032548	0.311284	-0.766704	-0.768030	0.030490	31.4495	-0.767431	-1.623204E+10	-1.878362E-12	NaN
376	1.000000	0.322662	7.36874e+06	-57439.1	955.818	-29737.2	0.000000	0.000000	6.322897	-0.050525	NaN	0.000000	0.001588	0.001700	28.0803	0.063033	0.001906	33.079	-143.142	-162.062	-0.084941	0.321301	-0.756651	-0.758012	-0.050525	33.079	-0.755506	-1.117257E+10	4.522252E-12	NaN
376	1.000000	0.332644	7.36874e+06	-57439.1	955.819	-29737.2	0.000000	0.000000	6.332880	-0.003724	NaN	0.000000	0.001546	0.001690	28.0802	0.152755	0.001951	78.2809	-104.278	13.7222	0.045997	0.331232	-0.746670	-0.748082	-0.003724	78.2809	-0.746634	-8.460536E+9	4.401663E-13	NaN
376	1.000000	0.342638	7.36874e+06	-57439.1	955.818	-29737.2	0.000000	0.000000	6.342873	-0.032135	NaN	0.000000	0.001576	0.001693	28.0802	0.022994	0.002091	10.9986	-78.4202	-167.71	-0.059968	0.341315	-0.736676	-0.737999	-0.032135	10.9986	-0.734485	-5.779891E+9	5.559833E-12	NaN
376	1.000000	0.352643	7.36874e+06	-57439.1	955.818	-29737.2	0.000000	0.000000	6.352878	-0.042367	NaN	0.000000	0.001591	0.001669	28.08	0.042470	0.001948	21.8038	118.472	16.4528	0.011860	0.351271	-0.726670	-0.728043	-0.042367	21.8038	-0.725213	-4.320729E+9	9.805409E-12	NaN
376	1.000000	0.362651	7.36874e+06	-57439.1	955.819	-29737.2	0.000000	0.000000	6.362886	-0.030384	NaN	0.000000	0.001628	0.001694	28.08	0.113588	0.001964	57.8449	36.7095	-164.115	0.014940	0.361306	-0.716663	-0.718008	-0.030384	57.8449	-0.716269	-3.262773E+9	9.312298E-12	NaN
376	1.000000	0.372670	7.36874e+06	-57439.1	955.819	-29737.2	0.000000	0.000000	6.372907	0.011285	NaN	0.000000	0.001596	0.001682	28.0797	0.117473	0.002088	56.2743	70.0202	15.6107	0.030846	0.371301	-0.706643	-0.708013	0.011285	56.2743	-0.706794	-2.422643E+9	-4.658179E-12	NaN
376	1.000000	0.382671	7.36874e+06	-57439.1	955.818	-29737.2	0.000000	0.000000	6.382908	-0.009094	NaN	0.000000	0.001647	0.001659	28.0801	0.102289	0.002003	51.0562	50.2274	-169.1	-0.018421	0.381399	-0.696642	-0.697915	-0.009094	51.0562	-0.696509	-1.753262E+9	5.186951E-12	NaN
376	1.000000	0.392655	7.36874e+06	-57439.1	955.819	-29737.2	0.000000	0.000000	6.392893	0.037267	NaN	0.000000	0.001626	0.001685	28.08	0.056755	0.001893	29.9764	-20.7037	17.2449	-0.043433	0.391296	-0.686659	-0.688017	0.037267	29.9764	-0.687591	-1.324340E+9	-2.813993E-11	NaN
376	1.000000	0.402656	7.36874e+06	-57439.1	955.818	-29737.2	0.000000	0.000000	6.402892	-0.009168	NaN	0.000000	0.001650	0.001681	28.0799	0.025680	0.001927	13.3298	-41.0718	-164.98	-0.011070	0.401356	-0.676658	-0.677957	-0.009168	13.3298	-0.676142	-9.234905E+8	9.927453E-12	NaN
376	1.000000	0.412660	7.36874e+06	-57439.1	955.817	-29737.2	0.000000	0.000000	6.412897	-0.003504	NaN	0.000000	0.001645	0.001687	28.08	0.116486	0.002176	53.5426	-179.046	16.5717	-0.039690	0.411373	-0.666654	-0.667940	-0.003504	53.5426	-0.666604	-6.837708E+8	5.124444E-12	NaN
376	1.000000	0.422680	7.36874e+06	-57439.1	955.818	-29737.2	0.000000	0.000000	6.422915	-0.042956	NaN	0.000000	0.001618	0.001699	28.0801	0.138157	0.002047	67.4993	-25.0964	-167.948	0.013362	0.421344	-0.656634	-0.657970	-0.042956	67.4993	-0.656156	-4.918260E+8	8.733917E-11	NaN
376	1.000000	0.432677	7.36874e+06	-57439.1	955.819	-29737.2	0.000000	0.000000	6.432913	-0.006303	NaN	0.000000	0.001602	0.001714	28.0801	0.044646	0.001965	22.7187	138.045	14.4771	0.022897	0.431298	-0.646637	-0.648016	-0.006303	22.7187	-0.646429	-3.618029E+8	1.742118E-11	NaN
376	1.000000	0.442663	7.36874e+06	-57439.1	955.818	-29737.2	0.000000	0.000000	6.442897	-0.066856	NaN	0.000000	0.001573	0.001661	28.0813	0.101674	0.002022	50.2947	-169.302	-165.815	-0.139971	0.441375	-0.636650	-0.637939	-0.066856	50.2947	-0.635653	-2.574189E+8	2.597151E-10	NaN
376	1.000000	0.452691	7.36874e+06	-57439.1	955.819	-29737.2	0.000000	0.000000	6.452927	-0.023564	NaN	0.000000	0.001604	0.001696	28.0819	0.040824	0.002143	19.0496	163.746	12.3443	-0.009059	0.451304	-0.626623	-0.628010	-0.023564	19.0496	-0.625695	-1.878856E+8	1.254169E-10	NaN
376	1.000000	0.462673	7.36874e+06	-57439.1	955.817	-29737.2	0.000000	0.000000	6.462911	0.048975	NaN	0.000000	0.001591	0.001670	28.0813	0.059379	0.002093	28.3721	-102.981	-163.383	0.031755	0.461392	-0.616641	-0.617922	0.048975	28.3721	-0.617936	-1.469786E+8	-3.332093E-10	NaN
376	1.000000	0.472701	7.36874e+06	-57439.1	955.818	-29737.2	0.000000	0.000000	6.472935	-0.062101	NaN	0.000000	0.001571	0.001667	28.0814	0.043759	0.002082	21.0186	-162.186	14.2463	-0.072879	0.471348	-0.606613	-0.607965	-0.062101	21.0186	-0.604397	-9.571901E+7	6.487884E-10	NaN
376	1.000000	0.482693	7.36874e+06	-57439.1	955.818	-29737.2	0.000000	0.000000	6.482928	-0.042121	NaN	0.000000	0.001582	0.001708	28.0813	0.092545	0.001916	48.3091	166.202	-164.697	-0.075712	0.481408	-0.596621	-0.597906	-0.042121	48.3091	-0.595967	-7.326560E+7	5.749064E-10	NaN
376	1.000000	0.492697	7.36874e+06	-57439.1	955.819	-29737.2	0.000000	0.000000	6.492932	-0.036925	NaN	0.000000	0.001586	0.001696	28.0815	0.073680	0.001945	37.8856	160.566	13.879	-0.056105	0.491324	-0.586616	-0.587990	-0.036925	37.8856	-0.585885	-5.320197E+7	6.940491E-10	NaN
376	1.000000	0.502712	7.36874e+06	-57439.1	955.818	-29737.2	0.000000	0.000000	6.502946	-0.064044	NaN	0.000000	0.001581	0.001676	28.0811	0.046628	0.001858	25.0893	-116.888	-167.323	-0.115345	0.501431	-0.576602	-0.577883	-0.064044	25.0893	-0.574688	-3.727212E+7	1.718278E-9	NaN
376	1.000000	0.512717	7.36874e+06	-57439.1	955.817	-29737.2	0.000000	0.000000	6.512953	-0.008977	NaN	0.000000	0.001601	0.001696	28.0813	0.017498	0.001971	8.879992	-178.474	13.8195	0.000141	0.511320	-0.566597	-0.567994	-0.008977	8.879992	-0.565839	-2.812666E+7	3.191580E-10	NaN
376	1.000000	0.522707	7.36874e+06	-57439.1	955.817	-29737.2	0.000000	0.000000	6.522943	-0.006320	NaN	0.000000	0.001611	0.001693	28.0815	0.166748	0.002040	81.7476	165.042	-168.001	-0.057422	0.521397	-0.556607	-0.557917	-0.006320	81.7476	-0.556549	-2.092321E+7	3.020594E-10	NaN
376	1.000000	0.532715	7.36874e+06	-57439.1	955.817	-29737.2	0.000000	0.000000	6.532949	-0.063008	NaN	0.000000	0.001561	0.001679	28.0813	0.094532	0.002002	47.2155	57.0669	15.3547	0.034481	0.531427	-0.546599	-0.547887	-0.063008	47.2155	-0.545598	-1.475585E+7	4.270023E-9	NaN
376	1.000000	0.542725	7.36874e+06	-57439.1	955.818	-29737.2	0.000000	0.000000	6.542960	-0.032275	NaN	0.000000	0.001583	0.001653	28.081	0.109547	0.002057	53.2564	120.564	-168.08	0.008217	0.541415	-0.536589	-0.537898	-0.032275	53.2564	-0.536135	-1.090777E+7	2.958862E-9	NaN
376	1.000000	0.552722	7.36874e+06	-57439.1	955.818	-29737.2	0.000000	0.000000	6.552961	0.046222	NaN	0.000000	0.001597	0.001660	28.0812	0.155657	0.002032	76.5951	-160.084	14.1698	0.054763	0.551337	-0.526592	-0.527976	0.046222	76.5951	-0.527044	-8.15675e+06	-5.666688E-9	NaN
376	1.000000	0.562735	7.36874e+06	-57439.1	955.817	-29737.2	0.000000	0.000000	6.562969	-0.075929	NaN	0.000000	0.001585	0.001708	28.081	0.077106	0.002044	37.7302	-137.299	-165.658	-0.082900	0.561405	-0.516578	-0.517909	-0.075929	37.7302	-0.515069	-5.55895e+06	1.365879E-8	NaN
376	1.000000	0.572745	7.36874e+06	-57439.1	955.818	-29737.2	0.000000	0.000000	6.572981	0.000360	NaN	0.000000	0.001636	0.001704	28.0813	0.062463	0.002046	30.5263	80.7706	14.5012	-0.003890	0.571371	-0.506569	-0.507943	0.000360	30.5263	-0.506578	-4.23386e+06	-8.510862E-11	NaN
376	1.000000	0.582745	7.36874e+06	-57439.1	955.818	-29737.2	0.000000	0.000000	6.582979	-0.078546	NaN	0.000000	0.001628	0.001692	28.0797	0.040614	0.001945	20.879	91.6309	-164.459	0.005537	0.581450	-0.496569	-0.497864	-0.078546	20.879	-0.493747	-2.80374e+06	2.801471E-8	NaN
376	1.000000	0.592738	7.36874e+06	-57439.1	955.818	-29737.2	0.000000	0.000000	6.592975	0.006744	NaN	0.000000	0.001623	0.001689	28.0799	0.020135	0.002215	9.091199	-178.74	12.8862	0.054793	0.591384	-0.486576	-0.487929	0.006744	9.091199	-0.487132	-2.26623e+06	-2.975912E-9	NaN
376	1.000000	0.602748	7.36874e+06	-57439.1	955.817	-29737.2	0.000000	0.000000	6.602985	-0.012433	NaN	0.000000	0.001653	0.001691	28.0798	0.107972	0.001902	56.7528	-166.135	-167.053	0.016234	0.601438	-0.476565	-0.477876	-0.012433	56.7528	-0.476401	-1.60372e+06	7.752766E-9	NaN
376	1.000000	0.612763	7.36874e+06	-57439.1	955.818	-29737.2	0.000000	0.000000	6.613000	-0.006856	NaN	0.000000	0.001636	0.001699	28.0799	0.046193	0.001946	23.7393	109.03	14.8966	-0.007453	0.611353	-0.466551	-0.467960	-0.006856	23.7393	-0.466334	-1.1587e+06	5.917393E-9	NaN
376	1.000000	0.622762	7.36874e+06	-57439.1	955.818	-29737.2	0.000000	0.000000	6.622997	-0.041723	NaN	0.000000	0.001564	0.001706	28.0799	0.053341	0.001938	27.5223	-79.8598	-166.806	-0.064073	0.621413	-0.456551	-0.457901	-0.041723	27.5223	-0.455414	-813855	5.126566E-8	NaN
376	1.000000	0.632775	7.36874e+06	-57439.1	955.818	-29737.2	0.000000	0.000000	6.633009	-0.050896	NaN	0.000000	0.001592	0.001669	28.08	0.104477	0.002104	49.6608	-167.95	13.2676	-0.119605	0.631430	-0.446539	-0.447884	-0.050896	49.6608	-0.445770	-595323	8.549273E-8	NaN
376	1.000000	0.642736	7.36874e+06	-57439.1	955.818	-29737.2	0.000000	0.000000	6.642971	-0.034517	NaN	0.000000	0.001584	0.001709	28.0803	0.014540	0.002029	7.165397	15.3604	-164.545	0.031467	0.641435	-0.436578	-0.437879	-0.034517	7.165397	-0.432965	-392640	8.790974E-8	NaN
376	1.000000	0.652812	7.36874e+06	-57439.1	955.819	-29737.2	0.000000	0.000000	6.653049	-0.005752	NaN	0.000000	0.001589	0.001691	28.0801	0.075037	0.001930	38.8872	-94.9415	14.4953	0.011918	0.651365	-0.426502	-0.427949	-0.005752	38.8872	-0.426391	-316940	1.814738E-8	NaN
376	1.000000	0.662755	7.36874e+06	-57439.1	955.818	-29737.2	0.000000	0.000000	6.662989	-0.077655	NaN	0.000000	0.001552	0.001718	28.0802	0.036744	0.001923	19.1111	111.713	-164.878	-0.014241	0.661435	-0.416558	-0.417878	-0.077655	19.1111	-0.413511	-208115	3.731355E-7	NaN
376	1.000000	0.672790	7.36874e+06	-57439.1	955.818	-29737.2	0.000000	0.000000	6.673029	0.076122	NaN	0.000000	0.001560	0.001699	28.0803	0.112967	0.002082	54.2469	179.75	15.9439	0.057372	0.671392	-0.406524	-0.407921	0.076122	54.2469	-0.407577	-171367	-4.442056E-7	NaN
376	1.000000	0.682808	7.36874e+06	-57439.1	955.818	-29737.2	0.000000	0.000000	6.683044	-0.004303	NaN	0.000000	0.001644	0.001721	28.0801	0.080166	0.002101	38.1552	-128.771	-164.227	0.036220	0.681512	-0.396506	-0.397802	-0.004303	38.1552	-0.396422	-118832	3.621229E-8	NaN
376	1.000000	0.692786	7.36874e+06	-57439.1	955.818	-29737.2	0.000000	0.000000	6.693021	-0.052048	NaN	0.000000	0.001685	0.001677	28.0799	0.057708	0.002064	27.9583	79.049	18.0854	0.014258	0.691366	-0.386527	-0.387948	-0.052048	27.9583	-0.385131	-81934.1	6.352453E-7	NaN
376	1.000000	0.702788	7.36874e+06	-57439.1	955.818	-29737.2	0.000000	0.000000	6.703023	-0.057942	NaN	0.000000	0.001673	0.001692	28.0801	0.052776	0.001991	26.5063	112.581	-162.37	-0.123833	0.701469	-0.376525	-0.377845	-0.057942	26.5063	-0.374886	-58402.5	9.921217E-7	NaN
376	1.000000	0.712763	7.36874e+06	-57439.1	955.818	-29737.2	0.000000	0.000000	6.712996	-0.085026	NaN	0.000000	0.001656	0.001675	28.0802	0.036225	0.002072	17.4825	152.812	12.5076	-0.153004	0.711446	-0.366551	-0.367868	-0.085026	17.4825	-0.362903	-39245.2	2.166530E-6	NaN
376	1.000000	0.722806	7.36874e+06	-57439.1	955.818	-29737.2	0.000000	0.000000	6.723043	0.000943	NaN	0.000000	0.001669	0.001738	28.0811	0.068977	0.001891	36.4768	33.1408	-168.703	-0.013366	0.721494	-0.356508	-0.357819	0.000943	36.4768	-0.356527	-31739.9	-2.969974E-8	NaN
376	1.000000	0.732802	7.36874e+06	-57439.1	955.818	-29737.2	0.000000	0.000000	6.733035	-0.069492	NaN	0.000000	0.001641	0.001704	28.0814	0.040161	0.001999	20.0932	-153.821	14.9328	-0.026185	0.731451	-0.346512	-0.347863	-0.069492	20.0932	-0.343918	-20826.7	3.336692E-6	NaN
376	1.000000	0.742814	7.36874e+06	-57439.1	955.818	-29737.2	0.000000	0.000000	6.743047	-0.076713	NaN	0.000000	0.001642	0.001703	28.0815	0.098522	0.002062	47.785	59.9072	-167.399	-0.074905	0.741510	-0.336500	-0.337803	-0.076713	47.785	-0.335296	-15592.4	4.919914E-6	NaN
376	1.000000	0.752811	7.36874e+06	-57439.1	955.817	-29737.2	0.000000	0.000000	6.753048	0.011659	NaN	0.000000	0.001649	0.001694	28.0815	0.120041	0.001945	61.724	157.065	11.8216	-0.043614	0.751462	-0.326503	-0.327851	0.011659	61.724	-0.326645	-11648.5	-1.000932E-6	NaN
376	1.000000	0.762822	7.36874e+06	-57439.1	955.818	-29737.2	0.000000	0.000000	6.763057	-0.039760	NaN	0.000000	0.001641	0.001700	28.0812	0.023110	0.002046	11.2938	-47.7131	-165.272	0.085749	0.761481	-0.316491	-0.317833	-0.039760	11.2938	-0.313851	-7550.67	5.265728E-6	NaN
376	1.000000	0.772832	7.36874e+06	-57439.1	955.818	-29737.2	0.000000	0.000000	6.773068	-0.018497	NaN	0.000000	0.001651	0.001708	28.0813	0.115309	0.002049	56.2682	-143.443	15.6481	-0.065836	0.771467	-0.306481	-0.307846	-0.018497	56.2682	-0.306235	-5824.7	3.175595E-6	NaN
376	1.000000	0.782843	7.36874e+06	-57439.1	955.818	-29737.2	0.000000	0.000000	6.783079	-0.029546	NaN	0.000000	0.001679	0.001706	28.0812	0.093059	0.001993	46.7032	-75.2572	-165.779	-0.008778	0.781520	-0.296470	-0.297794	-0.029546	46.7032	-0.295996	-4101.6	7.203520E-6	NaN
376	1.000000	0.792805	7.36874e+06	-57439.1	955.818	-29737.2	0.000000	0.000000	6.793041	-0.002191	NaN	0.000000	0.001696	0.001693	28.0815	0.016536	0.002075	7.970446	136.425	14.6397	-0.030601	0.791467	-0.286509	-0.287847	-0.002191	7.970446	-0.286303	-2936.58	7.459576E-7	NaN
376	1.000000	0.802821	7.36874e+06	-57439.1	955.817	-29737.2	0.000000	0.000000	6.803054	-0.092301	NaN	0.000000	0.001682	0.001676	28.0815	0.112135	0.001962	57.1653	149.227	-165.275	-0.061901	0.801514	-0.276493	-0.277800	-0.092301	57.1653	-0.275282	-2002.93	4.608302E-5	NaN
376	1.000000	0.812817	7.36874e+06	-57439.1	955.818	-29737.2	0.000000	0.000000	6.813054	0.015071	NaN	0.000000	0.001666	0.001683	28.0814	0.061903	0.002013	30.756	-71.7017	16.2853	-0.081861	0.811453	-0.266497	-0.267861	0.015071	30.756	-0.266864	-1492.17	-1.009987E-5	NaN
376	1.000000	0.822840	7.36874e+06	-57439.1	955.818	-29737.2	0.000000	0.000000	6.823079	0.057350	NaN	0.000000	0.001652	0.001696	28.0815	0.042792	0.001909	22.4184	-163.035	-165.526	-0.036548	0.821586	-0.256474	-0.257728	0.057350	22.4184	-0.258393	-1107.3	-5.179269E-5	NaN
376	1.000000	0.832830	7.36874e+06	-57439.1	955.818	-29737.2	0.000000	0.000000	6.833067	0.011693	NaN	0.000000	0.001600	0.001695	28.0813	0.053460	0.001976	27.052	-37.9575	12.0389	-0.033474	0.831489	-0.246484	-0.247825	0.011693	27.052	-0.246808	-733.705	-1.593693E-5	NaN
376	1.000000	0.842840	7.36874e+06	-57439.1	955.818	-29737.2	0.000000	0.000000	6.843078	0.015454	NaN	0.000000	0.001699	0.001687	28.081	0.019326	0.001964	9.838236	63.5096	-167.881	0.065966	0.841539	-0.236473	-0.237775	0.015454	9.838236	-0.237651	-528.231	-2.925705E-5	NaN
376	1.000000	0.852818	7.36874e+06	-57439.1	955.817	-29737.2	0.000000	0.000000	6.853054	-0.018222	NaN	0.000000	0.001641	0.001677	28.0799	0.034175	0.001937	17.6477	102.926	17.2139	0.058030	0.851481	-0.226496	-0.227833	-0.018222	17.6477	-0.225721	-342.599	5.318736E-5	NaN
376	1.000000	0.862862	7.36875e+06	-57439.1	955.818	-29737.2	0.000000	0.000000	6.863098	-0.006757	NaN	0.000000	0.001684	0.001683	28.08	0.116052	0.001963	59.1104	-72.0712	-164.229	0.036198	0.861523	-0.216452	-0.217791	-0.006757	59.1104	-0.216366	-242.921	2.781532E-5	NaN
376	1.000000	0.872860	7.36875e+06	-57439.1	955.817	-29737.2	0.000000	0.000000	6.873096	-0.020815	NaN	0.000000	0.001665	0.001694	28.0798	0.052285	0.001943	26.9044	18.9363	13.5902	0.047714	0.871525	-0.206454	-0.207788	-0.020815	26.9044	-0.205873	-164.359	0.000127	NaN
376	1.000000	0.882877	7.36875e+06	-57439.1	955.818	-29737.2	0.000000	0.000000	6.883112	-0.029501	NaN	0.000000	0.001694	0.001681	28.0797	0.090325	0.001976	45.7049	-72.8401	-167.37	-0.048112	0.881561	-0.196437	-0.197753	-0.029501	45.7049	-0.195953	-112.973	0.000261	NaN
376	1.000000	0.892868	7.36875e+06	-57439.1	955.818	-29737.2	0.000000	0.000000	6.893103	-0.033772	NaN	0.000000	0.001623	0.001690	28.0799	0.122820	0.002005	61.2633	-172.412	13.7135	-0.029193	0.891553	-0.186446	-0.187760	-0.033772	61.2633	-0.186032	-77.1823	0.000438	NaN
376	1.000000	0.902872	7.36875e+06	-57439.1	955.818	-29737.2	0.000000	0.000000	6.903108	-0.011483	NaN	0.000000	0.001654	0.001693	28.0799	0.027570	0.001988	13.8708	136.879	-164.707	0.074086	0.901589	-0.176442	-0.177725	-0.011483	13.8708	-0.175821	-51.7698	0.000222	NaN
376	1.000000	0.912856	7.36875e+06	-57439.1	955.818	-29737.2	0.000000	0.000000	6.913088	-0.101480	NaN	0.000000	0.001642	0.001685	28.0799	0.131777	0.002060	63.9625	-126.953	12.6721	-0.046915	0.911563	-0.166458	-0.167750	-0.101480	63.9625	-0.165268	-33.9636	0.002988	NaN
376	1.000000	0.922895	7.36875e+06	-57439.1	955.818	-29737.2	0.000000	0.000000	6.923127	-0.102710	NaN	0.000000	0.001693	0.001645	28.0797	0.097569	0.001949	50.069	176.564	-167.062	-0.016664	0.921538	-0.156419	-0.157776	-0.102710	50.069	-0.154880	-22.2036	0.004626	NaN
376	1.000000	0.932883	7.36875e+06	-57439.1	955.818	-29737.2	0.000000	0.000000	6.933115	-0.100391	NaN	0.000000	0.001623	0.001637	28.0803	0.121984	0.001883	64.7896	-73.8069	15.201	-0.121212	0.931502	-0.146431	-0.147812	-0.100391	64.7896	-0.145269	-14.83	0.006769	NaN
376	1.000000	0.942883	7.36875e+06	-57439.1	955.817	-29737.2	0.000000	0.000000	6.943119	-0.016342	NaN	0.000000	0.001622	0.001638	28.08	0.063904	0.002111	30.2752	85.7262	-166.175	-0.051280	0.941603	-0.136430	-0.137711	-0.016342	30.2752	-0.136026	-9.950280	0.001642	NaN
376	1.000000	0.952888	7.36875e+06	-57439.1	955.818	-29737.2	0.000000	0.000000	6.953120	-0.125663	NaN	0.000000	0.001642	0.001681	28.0803	0.122062	0.001918	63.6395	-112.31	16.1177	-0.054812	0.951550	-0.126425	-0.127763	-0.125663	63.6395	-0.124944	-6.065866	0.020716	NaN
376	1.000000	0.962907	7.36875e+06	-57439.1	955.818	-29737.2	0.000000	0.000000	6.963144	-0.003686	NaN	0.000000	0.001668	0.001682	28.08	0.093682	0.002081	45.022	-26.2452	-167.742	-0.045689	0.961539	-0.116406	-0.117774	-0.003686	45.022	-0.116345	-4.071435	0.000905	NaN
376	1.000000	0.972873	7.36875e+06	-57439.1	955.818	-29737.2	0.000000	0.000000	6.973105	-0.127993	NaN	0.000000	0.001674	0.001688	28.0802	0.031994	0.002041	15.6778	178.465	18.069	-0.034245	0.971537	-0.106441	-0.107777	-0.127993	15.6778	-0.100318	-1.856985	0.068925	NaN
376	1.000000	0.982917	7.36875e+06	-57439.1	955.817	-29737.2	0.000000	0.000000	6.983153	-0.015343	NaN	0.000000	0.001595	0.001704	28.0799	0.018296	0.001965	9.312218	-65.6508	-165.978	-0.077669	0.981610	-0.096396	-0.097704	-0.015343	9.312218	-0.095161	-1.422570	0.010785	NaN
376	1.000000	0.992919	7.36875e+06	-57439.1	955.817	-29737.2	0.000000	0.000000	6.993154	-0.025594	NaN	0.000000	0.001615	0.001696	28.0816	0.049602	0.002011	24.6702	-178.071	12.2293	-0.034308	0.991534	-0.086395	-0.087780	-0.025594	24.6702	-0.085617	-0.850324	0.030099	NaN
376	1.000000	1.002881	7.36875e+06	-57439.1	955.817	-29737.2	0.000000	0.000000	7.003119	0.013120	NaN	0.000000	0.001610	0.001692	28.0813	0.052096	0.001950	26.7167	-138.661	-166.807	0.021663	1.001624	-0.076432	-0.077690	0.013120	26.7167	-0.076801	-0.513827	-0.025534	NaN
376	1.000000	1.012914	7.36875e+06	-57439.1	955.816	-29737.2	0.000000	0.000000	7.013151	0.017316	NaN	0.000000	0.001601	0.001725	28.0814	0.055167	0.001919	28.7533	-146.27	15.1629	0.000367	1.011548	-0.066400	-0.067766	0.017316	28.7533	-0.066852	-0.280292	-0.061777	NaN
376	1.000000	1.022923	7.36875e+06	-57439.1	955.816	-29737.2	0.000000	0.000000	7.023159	-0.011188	NaN	0.000000	0.001578	0.001719	28.0811	0.026003	0.002017	12.8915	-56.0146	-160.105	-0.047278	1.021590	-0.056391	-0.057724	-0.011188	12.8915	-0.055740	-0.135416	0.082621	NaN
376	1.000000	1.032942	7.36875e+06	-57439.1	955.817	-29737.2	0.000000	0.000000	7.033179	0.018503	NaN	0.000000	0.001599	0.001733	28.0813	0.095164	0.002039	46.6827	-62.9096	13.4081	0.034384	1.031597	-0.046372	-0.047716	0.018503	46.6827	-0.046669	-0.072275	-0.256001	NaN
376	1.000000	1.042914	7.36875e+06	-57439.1	955.816	-29737.2	0.000000	0.000000	7.043149	-0.042101	NaN	0.000000	0.001656	0.001718	28.0813	0.079983	0.002133	37.4921	-141.713	-167.4	0.013670	1.041576	-0.036400	-0.037737	-0.042101	37.4921	-0.035558	-0.033262	1.265764	NaN
376	1.000000	1.052929	7.36875e+06	-57439.1	955.816	-29737.2	0.000000	0.000000	7.053165	-0.028192	NaN	0.000000	0.001638	0.001749	28.0815	0.096874	0.002039	47.5093	-147.053	14.4283	0.026279	1.051573	-0.026385	-0.027740	-0.028192	47.5093	-0.025939	-0.017857	1.578807	NaN
376	1.000000	1.062952	7.36875e+06	-57439.1	955.817	-29737.2	0.000000	0.000000	7.063185	-0.072645	NaN	0.000000	0.001652	0.001685	28.0813	0.031175	0.002063	15.1125	89.5023	-165.759	-0.046632	1.061622	-0.016362	-0.017692	-0.072645	15.1125	-0.012757	-0.007962	9.123772	NaN
376	1.000000	1.072915	7.36875e+06	-57439.1	955.817	-29737.2	0.000000	0.000000	7.073150	-0.040461	NaN	0.000000	0.001661	0.001680	28.0813	0.049809	0.002194	22.7066	49.6408	19.3306	0.025555	1.071594	-0.006399	-0.007719	-0.040461	22.7066	-0.005062	-0.003456	11.7085	NaN
376	1.000000	1.082938	7.36875e+06	-57439.1	955.817	-29737.2	0.000000	0.000000	7.083175	0.012301	NaN	0.000000	0.001629	0.001650	28.0815	0.089613	0.002059	43.5226	40.6927	-166.54	0.002811	1.081626	0.003624	0.002312	0.012301	43.5226	0.003412	0.002730	4.505755	761.042
376	1.000000	1.092910	7.36875e+06	-57439.1	955.817	-29737.2	0.000000	0.000000	7.093391	5.952766	NaN	0.000000	0.001649	0.001645	28.0813	5.579850	0.001647	3387.06	11.3269	9.916030	3.961661	1.091572	0.013596	0.012258	5.952766	3387.06	0.012278	0.011825	503.412	28457.7
376	2.000000	1.098497	7.36875e+06	-57439.1	955.817	-29737.2	0.000000	0.000000	7.099148	10.0621	NaN	0.000000	0.001644	0.001624	28.0812	8.847309	0.001440	6143.37	-3.705029	-165.889	9.139433	1.098169	0.019183	0.018855	10.0621	6143.37	0.017955	0.019430	517.86	40266.3
376	2.000000	1.101027	7.36875e+06	-57439.1	955.817	-29737.2	0.000000	0.000000	7.101799	13.0171	NaN	0.000000	0.001652	0.001696	28.0813	12.152	0.001802	6742.64	12.6272	3.695225	15.1911	1.100614	0.021713	0.021300	13.0171	6742.64	0.020266	0.022961	566.913	40654.2
376	2.000000	1.103464	7.36875e+06	-57439.1	955.816	-29737.2	0.000000	0.000000	7.104368	16.2201	NaN	0.000000	0.001675	0.001666	28.0813	14.6753	0.001670	8785.86	2.339292	-171	16.5771	1.103215	0.024151	0.023901	16.2201	8785.86	0.022766	0.027076	599.051	48782.4
376	2.000000	1.105927	7.36875e+06	-57439.1	955.817	-29737.2	0.000000	0.000000	7.107134	23.5835	NaN	0.000000	0.001661	0.001691	28.0801	17.7762	0.001733	10258.5	10.8999	-0.280838	22.8758	1.105594	0.026613	0.026280	23.5835	10258.5	0.024889	0.030813	765.364	53393.1
376	2.000000	1.108405	7.36875e+06	-57439.1	955.817	-29737.2	0.000000	0.000000	7.109885	30.2069	NaN	0.000000	0.001646	0.001687	28.0801	20.1888	0.001770	11406.3	4.448105	-175.742	28.938	1.108095	0.029091	0.028781	30.2069	11406.3	0.027105	0.034957	864.11	55737.9
376	2.000000	1.110876	7.36875e+06	-57439.1	955.817	-29737.2	0.000000	0.000000	7.112540	34.7094	NaN	0.000000	0.001621	0.001671	28.08	23.3211	0.001785	13065.2	6.698180	1.272497	32.7909	1.110543	0.031562	0.031229	34.7094	13065.2	0.029570	0.039856	870.867	59791.6
376	2.000000	1.113410	7.36875e+06	-57439.1	955.816	-29737.2	0.000000	0.000000	7.115300	40.1963	NaN	0.000000	0.001602	0.001683	28.0802	26.3513	0.001871	14083.3	8.888750	-179.864	40.8032	1.113034	0.034096	0.033721	40.1963	14083.3	0.031955	0.044894	895.356	60727.3
376	2.000000	1.115877	7.36875e+06	-57439.1	955.815	-29737.2	0.000000	0.000000	7.118112	48.5807	NaN	0.000000	0.001622	0.001670	28.0801	27.7212	0.001692	16388.5	4.041581	2.681625	46.4549	1.115468	0.036563	0.036154	48.5807	16388.5	0.034340	0.050220	967.365	66815.2
376	2.000000	1.118394	7.36875e+06	-57439.1	955.817	-29737.2	0.000000	0.000000	7.120872	54.477	NaN	0.000000	0.001629	0.001686	28.0799	29.8127	0.001701	17522.4	5.658237	179.798	54.3542	1.118051	0.039080	0.038737	54.477	17522.4	0.036748	0.055895	974.631	67714.2
376	2.000000	1.120814	7.36875e+06	-57439.1	955.816	-29737.2	0.000000	0.000000	7.123560	60.9963	NaN	0.000000	0.001686	0.001666	28.0803	32.8539	0.001788	18375.7	5.206804	-0.289558	57.1459	1.120474	0.041500	0.041161	60.9963	18375.7	0.039011	0.061496	991.872	67700.8
376	2.000000	1.123340	7.36875e+06	-57439.1	955.817	-29737.2	0.000000	0.000000	7.126333	66.9954	NaN	0.000000	0.001653	0.001650	28.0803	35.5585	0.001911	18603.2	7.094304	177.711	66.3695	1.123025	0.044026	0.043711	66.9954	18603.2	0.041325	0.067497	992.564	65420.9
376	2.000000	1.125863	7.36875e+06	-57439.1	955.816	-29737.2	0.000000	0.000000	7.129155	74.2598	NaN	0.000000	0.001660	0.001663	28.0803	37.1097	0.001847	20092.4	6.475897	-2.001269	72.0821	1.125542	0.046550	0.046229	74.2598	20092.4	0.043778	0.074155	1001.41	67411.6
376	2.000000	1.128333	7.36875e+06	-57439.1	955.816	-29737.2	0.000000	0.000000	7.131907	81.1193	NaN	0.000000	0.001657	0.001653	28.0801	39.0493	0.001766	22106.6	4.402418	179.594	79.4421	1.127993	0.049019	0.048679	81.1193	22106.6	0.046267	0.081226	998.689	70867.6
376	2.000000	1.130882	7.36875e+06	-57439.1	955.817	-29737.2	0.000000	0.000000	7.134712	87.3227	NaN	0.000000	0.001694	0.001673	28.0802	41.6679	0.001828	22790.1	5.811980	-2.282734	87.4061	1.130551	0.051569	0.051237	87.3227	22790.1	0.048695	0.088422	987.565	70022.6
376	2.000000	1.133368	7.36875e+06	-57439.1	955.817	-29737.2	0.000000	0.000000	7.137589	96.8393	NaN	0.000000	0.001691	0.001679	28.0804	43.5765	0.001741	25023.3	3.791969	178.215	97.3339	1.133138	0.054054	0.053824	96.8393	25023.3	0.051152	0.096007	1008.67	73784.7
376	2.000000	1.135878	7.36875e+06	-57439.1	955.817	-29737.2	0.000000	0.000000	7.140700	111.448	NaN	0.000000	0.001674	0.001669	28.0802	45.7477	0.001773	25799.5	2.272688	-0.043142	108.762	1.135538	0.056565	0.056224	111.448	25799.5	0.053325	0.102966	1082.37	73457.6
376	2.000000	1.138302	7.36875e+06	-57439.1	955.816	-29737.2	0.000000	0.000000	7.143479	120.088	NaN	0.000000	0.001673	0.001675	28.0812	48.159	0.001737	27728	3.987271	177.2	117.821	1.138100	0.058988	0.058786	120.088	27728	0.055740	0.110976	1082.11	76046.1
376	2.000000	1.140819	7.36875e+06	-57439.1	955.817	-29737.2	0.000000	0.000000	7.146538	133.242	NaN	0.000000	0.001650	0.001686	28.0813	49.9671	0.001750	28554.6	2.776355	-0.821168	129.989	1.140426	0.061505	0.061112	133.242	28554.6	0.058006	0.118754	1122	75705.1
376	2.000000	1.143343	7.36875e+06	-57439.1	955.818	-29737.2	0.000000	0.000000	7.149313	139.352	NaN	0.000000	0.001671	0.001651	28.0815	54.1111	0.001894	28574.5	4.683030	176.539	137.684	1.143036	0.064030	0.063723	139.352	28574.5	0.060372	0.127146	1096	73215.2
376	2.000000	1.145835	7.36875e+06	-57439.1	955.818	-29737.2	0.000000	0.000000	7.152369	153.053	NaN	0.000000	0.001650	0.001649	28.0813	55.9319	0.001840	30399	8.123346	-6.751939	149.668	1.145377	0.066521	0.066064	153.053	30399	0.062745	0.135836	1126.75	75357.3
376	2.000000	1.148365	7.36875e+06	-57439.1	955.817	-29737.2	0.000000	0.000000	7.155230	161.095	NaN	0.000000	0.001647	0.001644	28.0813	57.4919	0.001836	31309.1	4.291373	176.128	162.353	1.148001	0.069051	0.068687	161.095	31309.1	0.065192	0.145082	1110.37	75099.4
376	2.000000	1.150784	7.36875e+06	-57439.1	955.817	-29737.2	0.000000	0.000000	7.158041	170.615	NaN	0.000000	0.001606	0.001681	28.0814	60.1762	0.001738	34628.9	2.558436	-3.269263	165.384	1.150490	0.071471	0.071176	170.615	34628.9	0.067776	0.155157	1099.63	80320.5
376	2.000000	1.153326	7.36875e+06	-57439.1	955.817	-29737.2	0.000000	0.000000	7.161365	189.647	NaN	0.000000	0.001619	0.001672	28.0816	63.5314	0.001702	37335.3	6.131307	173.021	189.352	1.152940	0.074012	0.073626	189.647	37335.3	0.070202	0.164911	1149.99	83997.8
376	2.000000	1.155809	7.36875e+06	-57439.1	955.818	-29737.2	0.000000	0.000000	7.164385	202.667	NaN	0.000000	0.001599	0.001664	28.0813	65.0919	0.001687	38593.9	3.798632	-4.924326	199.046	1.155528	0.076496	0.076214	202.667	38593.9	0.072557	0.174646	1160.44	84374.9
376	2.000000	1.158258	7.36875e+06	-57439.1	955.817	-29737.2	0.000000	0.000000	7.167624	221.889	NaN	0.000000	0.001627	0.001684	28.0815	67.8672	0.001827	37146.5	2.149945	176.9	218.97	1.157964	0.078945	0.078650	221.889	37146.5	0.074465	0.182722	1214.36	79395.6
376	2.000000	1.160800	7.36875e+06	-57439.1	955.817	-29737.2	0.000000	0.000000	7.170642	233.456	NaN	0.000000	0.001613	0.001692	28.0815	71.6035	0.001883	38030.9	3.896883	-5.104925	230.719	1.160444	0.081486	0.081130	233.456	38030.9	0.076882	0.193204	1208.34	79050.1
376	2.000000	1.163317	7.36875e+06	-57439.1	955.817	-29737.2	0.000000	0.000000	7.173547	242.884	NaN	0.000000	0.001605	0.001686	28.0816	73.3221	0.001836	39941.6	3.527827	174.448	240.695	1.163034	0.084004	0.083720	242.884	39941.6	0.079443	0.204608	1187.07	80674.8
376	2.000000	1.165757	7.36875e+06	-57439.1	955.817	-29737.2	0.000000	0.000000	7.177060	268.97	NaN	0.000000	0.001624	0.001675	28.0812	74.4898	0.001855	40159.5	4.725122	-5.637693	262.938	1.165326	0.086443	0.086013	268.97	40159.5	0.081420	0.213619	1259.11	79385.6
376	2.000000	1.168320	7.36875e+06	-57439.1	955.817	-29737.2	0.000000	0.000000	7.180096	280.467	NaN	0.000000	0.001678	0.001646	28.0815	76.9821	0.001780	43246.2	7.708376	170.128	279.631	1.167944	0.089006	0.088630	280.467	43246.2	0.084142	0.226327	1239.21	83052.4
376	2.000000	1.170745	7.36875e+06	-57439.1	955.817	-29737.2	0.000000	0.000000	7.183429	302.519	NaN	0.000000	0.001667	0.001673	28.0813	78.1851	0.001742	44891.1	4.567104	-6.987787	296.103	1.170454	0.091431	0.091141	302.519	44891.1	0.086377	0.237015	1276.37	84245.4
376	2.000000	1.173224	7.36875e+06	-57439.1	955.817	-29737.2	0.000000	0.000000	7.186349	313.245	NaN	0.000000	0.001656	0.001656	28.0801	82.0841	0.001812	45290.3	8.705198	168.725	309.114	1.172896	0.093910	0.093583	313.245	45290.3	0.088723	0.248481	1260.64	83010.2
376	2.000000	1.175773	7.36875e+06	-57439.1	955.817	-29737.2	0.000000	0.000000	7.189590	330.057	NaN	0.000000	0.001648	0.001659	28.08	83.9157	0.001813	46276.6	9.595852	-12.0881	324.439	1.175397	0.096459	0.096084	330.057	46276.6	0.091110	0.260409	1267.45	82852.6
376	2.000000	1.178274	7.36875e+06	-57439.1	955.816	-29737.2	0.000000	0.000000	7.192738	345.786	NaN	0.000000	0.001673	0.001653	28.0802	86.6297	0.001857	46646	8.350291	168.622	344.03	1.177880	0.098960	0.098566	345.786	46646	0.093400	0.272098	1270.81	81700.5
376	2.000000	1.180674	7.36875e+06	-57439.1	955.817	-29737.2	0.000000	0.000000	7.195863	363.405	NaN	0.000000	0.001683	0.001688	28.0801	88.3094	0.001799	49078.8	3.769116	-6.607036	354.983	1.180264	0.101360	0.100951	363.405	49078.8	0.095807	0.284638	1276.72	84046.7
376	2.000000	1.183200	7.36875e+06	-57439.1	955.818	-29737.2	0.000000	0.000000	7.198942	376.869	NaN	0.000000	0.001685	0.001719	28.0802	91.741	0.001778	51594.3	3.162561	173.222	372.281	1.182919	0.103886	0.103605	376.869	51594.3	0.098408	0.298487	1262.6	86280.4
376	2.000000	1.185809	7.36875e+06	-57439.1	955.817	-29737.2	0.000000	0.000000	7.202580	401.864	NaN	0.000000	0.001667	0.001693	28.0801	94.0772	0.001807	52057.6	7.323339	-10.4988	399.4	1.185421	0.106495	0.106107	401.864	52057.6	0.100705	0.310980	1292.25	85288.6
376	2.000000	1.188436	7.36875e+06	-57439.1	955.816	-29737.2	0.000000	0.000000	7.205603	411.478	NaN	0.000000	0.001676	0.001683	28.0802	96.1777	0.001772	54267.9	5.962312	170.287	420.508	1.187996	0.109122	0.108682	411.478	54267.9	0.103435	0.326133	1261.69	86819.8
376	2.000000	1.190769	7.36875e+06	-57439.1	955.818	-29737.2	0.000000	0.000000	7.208955	436.25	NaN	0.000000	0.001717	0.001700	28.0802	96.979	0.001675	57905.8	2.093406	-6.323075	430.239	1.190286	0.111455	0.110972	436.25	57905.8	0.105805	0.339560	1284.75	90789.7
376	2.000000	1.193232	7.36875e+06	-57439.1	955.818	-29737.2	0.000000	0.000000	7.212000	450.401	NaN	0.000000	0.001682	0.001665	28.0804	101.231	0.001886	53668.6	3.383500	172.691	447.693	1.193034	0.113918	0.113721	450.401	53668.6	0.107624	0.350040	1286.71	82877.1
376	2.000000	1.195276	7.36875e+06	-57439.1	955.817	-29737.2	0.000000	0.000000	7.214573	463.272	NaN	0.000000	0.001670	0.001666	28.0802	101.277	0.001677	60398.1	3.306984	171.678	462.522	1.194986	0.115962	0.115672	463.272	60398.1	0.110209	0.365194	1268.57	91313.5