File: remote_trans/data/nanoindenter/0828-1/data/Data_2025-08-06,11h17m57s/2025-07-22_16-23-58_1_502.txt
2025-07-22, 16:23:58, 1
Index	Phase	Displacement	Time	Pos X	Pos Y	Pos Z	Rot A	Rot B	Piezo Z	Force A	Force B	Gripper	Voltage A	Voltage B	Temperature	Amplitude force	Amplitude pos	Stiffness	Phase shift	Phase excitation	Force A raw	Displacement raw	HMax	HMax raw	Real Force	Real Stiffness	Contact Depth	Area	Hardness	Reduced Mod.
[#]	[#]	[um]	[s]	[um]	[um]	[um]	[m°]	[m°]	[um]	[uN]	[uN]	[V]	[V]	[V]	[°C]	[uN]	[um]	[N/m]	[°]	[°]	[uN]	[um]	[um]	[um]	[uN]	[N/m]	[um]	[um^2]	[MPa]	[MPa]
502	1.000000	0.002633	7.36996e+06	-51989.1	1005.82	-29750.7	0.000000	0.000000	6.002765	-0.107494	NaN	0.000000	0.001551	0.001761	28.0823	0.038155	0.001048	36.3917	-36.1658	-166.378	-0.125115	0.001417	-0.960687	-0.961904	-0.107494	36.3917	-0.958472	-6.255604E+12	1.718365E-14	NaN
502	1.000000	0.010645	7.36996e+06	-51989.1	1005.82	-29750.7	0.000000	0.000000	6.010779	-0.057456	NaN	0.000000	0.001548	0.001772	28.0843	0.087671	0.000875	100.233	166.695	-163.231	0.033617	0.009307	-0.952675	-0.954013	-0.057456	100.233	-0.952245	-5.155949E+12	1.114359E-14	NaN
502	1.000000	0.018608	7.36996e+06	-51989.1	1005.82	-29750.7	0.000000	0.000000	6.018742	-0.053450	NaN	0.000000	0.001568	0.001740	28.0858	0.048020	0.001817	26.4311	-59.9543	-162.093	-0.067408	0.017302	-0.944713	-0.946019	-0.053450	26.4311	-0.943196	-3.892751E+12	1.373073E-14	NaN
502	1.000000	0.026654	7.36996e+06	-51989.1	1005.82	-29750.7	0.000000	0.000000	6.026790	-0.025151	NaN	0.000000	0.001512	0.001763	28.0831	0.043657	0.001812	24.097	-63.2658	-167.218	-0.035850	0.025334	-0.936666	-0.937987	-0.025151	24.097	-0.935883	-3.101652E+12	8.108782E-15	NaN
502	1.000000	0.034637	7.36996e+06	-51989.1	1005.82	-29750.7	0.000000	0.000000	6.034772	-0.031885	NaN	0.000000	0.001543	0.001772	28.0822	0.073546	0.001897	38.7678	162.611	-164.588	-0.002875	0.033250	-0.928684	-0.930070	-0.031885	38.7678	-0.928067	-2.432779E+12	1.310641E-14	NaN
502	1.000000	0.042626	7.36996e+06	-51989.1	1005.82	-29750.7	0.000000	0.000000	6.042758	-0.100889	NaN	0.000000	0.001552	0.001759	28.0822	0.069941	0.001982	35.2813	-120.388	-167.698	-0.117667	0.041278	-0.920695	-0.922042	-0.100889	35.2813	-0.918550	-1.809781E+12	5.574650E-14	NaN
502	1.000000	0.050610	7.36996e+06	-51989.1	1005.82	-29750.7	0.000000	0.000000	6.050743	-0.069775	NaN	0.000000	0.001568	0.001795	28.0821	0.124607	0.001859	67.0464	-145.104	-164.813	-0.083597	0.049269	-0.912711	-0.914052	-0.069775	67.0464	-0.911930	-1.473101E+12	4.736584E-14	NaN
502	1.000000	0.058610	7.36996e+06	-51989.1	1005.82	-29750.7	0.000000	0.000000	6.058747	0.027191	NaN	0.000000	0.001583	0.001806	28.0822	0.102658	0.002124	48.3399	-65.3189	-167.491	-0.042237	0.057331	-0.904711	-0.905989	0.027191	48.3399	-0.905133	-1.192383E+12	-2.280389E-14	NaN
502	1.000000	0.066600	7.36996e+06	-51989.1	1005.82	-29750.7	0.000000	0.000000	6.066734	-0.060561	NaN	0.000000	0.001539	0.001795	28.0827	0.150369	0.001980	75.9454	14.3921	-167.219	-0.046979	0.065336	-0.896720	-0.897984	-0.060561	75.9454	-0.896122	-9.008795E+11	6.722411E-14	NaN
502	1.000000	0.074619	7.36996e+06	-51989.1	1005.82	-29750.7	0.000000	0.000000	6.074749	-0.158217	NaN	0.000000	0.001571	0.001779	28.0821	0.041208	0.002055	20.0567	68.4609	-166.133	-0.106233	0.073327	-0.888702	-0.889994	-0.158217	20.0567	-0.882785	-5.947999E+11	2.660010E-13	NaN
502	1.000000	0.082655	7.36996e+06	-51989.1	1005.82	-29750.7	0.000000	0.000000	6.082790	-0.011016	NaN	0.000000	0.001579	0.001773	28.0823	0.053155	0.002042	26.028	44.8953	-166.493	0.049723	0.081292	-0.880666	-0.882028	-0.011016	26.028	-0.880349	-5.513426E+11	1.997944E-14	NaN
502	1.000000	0.090632	7.36996e+06	-51989.1	1005.82	-29750.7	0.000000	0.000000	6.090767	-0.036108	NaN	0.000000	0.001581	0.001789	28.0822	0.048196	0.002104	22.9105	153.05	-164.85	-0.088947	0.089283	-0.872688	-0.874038	-0.036108	22.9105	-0.871506	-4.186204E+11	8.625373E-14	NaN
502	1.000000	0.098641	7.36996e+06	-51989.1	1005.82	-29750.7	0.000000	0.000000	6.098772	-0.139202	NaN	0.000000	0.001564	0.001793	28.0822	0.173492	0.002021	85.8409	44.7493	-168.108	-0.157352	0.097404	-0.864679	-0.865917	-0.139202	85.8409	-0.863463	-3.258269E+11	4.272270E-13	NaN
502	1.000000	0.106616	7.36996e+06	-51989.1	1005.82	-29750.7	0.000000	0.000000	6.106750	-0.039283	NaN	0.000000	0.001582	0.001787	28.0824	0.123419	0.002110	58.4908	143.561	-166.513	-0.073448	0.105322	-0.856705	-0.857998	-0.039283	58.4908	-0.856201	-2.598354E+11	1.511843E-13	NaN
502	1.000000	0.114612	7.36996e+06	-51989.1	1005.82	-29750.7	0.000000	0.000000	6.114748	-0.026481	NaN	0.000000	0.001563	0.001747	28.0822	0.047128	0.002127	22.1602	-123.39	-163.85	0.034771	0.113335	-0.848708	-0.849985	-0.026481	22.1602	-0.847812	-2.000345E+11	1.323800E-13	NaN
502	1.000000	0.122639	7.36996e+06	-51989.1	1005.82	-29750.7	0.000000	0.000000	6.122774	-0.035471	NaN	0.000000	0.001513	0.001773	28.0826	0.088876	0.001982	44.8514	-159.306	-164.062	0.066985	0.121297	-0.840681	-0.842023	-0.035471	44.8514	-0.840088	-1.572116E+11	2.256278E-13	NaN
502	1.000000	0.130677	7.36996e+06	-51989.1	1005.82	-29750.7	0.000000	0.000000	6.130812	-0.030801	NaN	0.000000	0.001512	0.001770	28.0808	0.117416	0.001906	61.6085	113.059	-165.219	-0.047249	0.129328	-0.832643	-0.833993	-0.030801	61.6085	-0.832268	-1.231769E+11	2.500533E-13	NaN
502	1.000000	0.138648	7.36996e+06	-51989.1	1005.82	-29750.7	0.000000	0.000000	6.138783	-0.022282	NaN	0.000000	0.001546	0.001750	28.0809	0.077305	0.001998	38.6971	76.6712	-170.223	-0.022952	0.137373	-0.824673	-0.825947	-0.022282	38.6971	-0.824241	-9.587635E+10	2.324061E-13	NaN
502	1.000000	0.146657	7.36996e+06	-51989.1	1005.82	-29750.7	0.000000	0.000000	6.146790	-0.074689	NaN	0.000000	0.001547	0.001767	28.0811	0.097255	0.001995	48.7456	123.429	-166.091	-0.149890	0.145358	-0.816664	-0.817962	-0.074689	48.7456	-0.815515	-7.300949E+10	1.023010E-12	NaN
502	1.000000	0.154671	7.36996e+06	-51989.1	1005.82	-29750.7	0.000000	0.000000	6.154804	-0.064196	NaN	0.000000	0.001549	0.001739	28.081	0.110609	0.002083	53.1078	166.208	-167.651	-0.084073	0.153341	-0.808650	-0.809979	-0.064196	53.1078	-0.807743	-5.727308E+10	1.120872E-12	NaN
502	1.000000	0.162669	7.36996e+06	-51989.1	1005.82	-29750.7	0.000000	0.000000	6.162804	-0.032425	NaN	0.000000	0.001554	0.001753	28.0816	0.104555	0.001956	53.4434	-176.243	-165.241	-0.174557	0.161351	-0.800651	-0.801970	-0.032425	53.4434	-0.800196	-4.524065E+10	7.167316E-13	NaN
502	1.000000	0.170681	7.36996e+06	-51989.1	1005.82	-29750.7	0.000000	0.000000	6.170814	-0.091724	NaN	0.000000	0.001601	0.001734	28.0812	0.026508	0.001934	13.7082	20.449	-164.417	-0.095615	0.169360	-0.792639	-0.793960	-0.091724	13.7082	-0.787621	-3.053311E+10	3.004078E-12	NaN
502	1.000000	0.178672	7.36996e+06	-51989.1	1005.82	-29750.7	0.000000	0.000000	6.178804	-0.096829	NaN	0.000000	0.001536	0.001762	28.0815	0.087235	0.002008	43.4441	95.5106	-164.229	-0.134411	0.177377	-0.784649	-0.785944	-0.096829	43.4441	-0.782977	-2.640508E+10	3.667041E-12	NaN
502	1.000000	0.186704	7.36996e+06	-51989.1	1005.82	-29750.7	0.000000	0.000000	6.186835	-0.114125	NaN	0.000000	0.001577	0.001751	28.0811	0.019486	0.001984	9.819256	103.137	-164.538	-0.033705	0.185361	-0.776617	-0.777959	-0.114125	9.819256	-0.767900	-1.647216E+10	6.928339E-12	NaN
502	1.000000	0.194678	7.36996e+06	-51989.1	1005.82	-29750.7	0.000000	0.000000	6.194811	-0.072850	NaN	0.000000	0.001583	0.001712	28.0811	0.178131	0.002034	87.5881	175.795	-168.458	-0.052711	0.193420	-0.768643	-0.769900	-0.072850	87.5881	-0.768019	-1.653372E+10	4.406152E-12	NaN
502	1.000000	0.202697	7.36996e+06	-51989.1	1005.82	-29750.7	0.000000	0.000000	6.202830	-0.071354	NaN	0.000000	0.001574	0.001741	28.0813	0.036214	0.001940	18.6636	47.337	-165.705	-0.051866	0.201347	-0.760624	-0.761973	-0.071354	18.6636	-0.757757	-1.198890E+10	5.951634E-12	NaN
502	1.000000	0.210673	7.36996e+06	-51989.1	1005.82	-29750.7	0.000000	0.000000	6.210806	-0.066014	NaN	0.000000	0.001547	0.001731	28.082	0.061559	0.002034	30.2606	-65.1273	-163.785	-0.027351	0.209361	-0.752648	-0.753960	-0.066014	30.2606	-0.751011	-9.704837E+9	6.802154E-12	NaN
502	1.000000	0.218713	7.36996e+06	-51989.1	1005.82	-29750.7	0.000000	0.000000	6.218843	-0.143259	NaN	0.000000	0.001552	0.001750	28.0814	0.052380	0.002130	24.5879	65.0733	-168.744	-0.097400	0.217383	-0.744608	-0.745938	-0.143259	24.5879	-0.740238	-6.923065E+9	2.069300E-11	NaN
502	1.000000	0.226679	7.36996e+06	-51989.1	1005.82	-29750.7	0.000000	0.000000	6.226815	-0.016200	NaN	0.000000	0.001565	0.001712	28.0808	0.057777	0.002012	28.7155	-177.723	-165.263	-0.094966	0.225389	-0.736641	-0.737931	-0.016200	28.7155	-0.736218	-6.102934E+9	2.654517E-12	NaN
502	1.000000	0.234673	7.36996e+06	-51989.1	1005.82	-29750.7	0.000000	0.000000	6.234804	-0.127680	NaN	0.000000	0.001568	0.001740	28.081	0.086283	0.002032	42.4715	91.3581	-165.28	-0.145400	0.233417	-0.728648	-0.729904	-0.127680	42.4715	-0.726393	-4.483792E+9	2.847597E-11	NaN
502	1.000000	0.242700	7.36996e+06	-51989.1	1005.82	-29750.7	0.000000	0.000000	6.242834	-0.055103	NaN	0.000000	0.001549	0.001725	28.081	0.077290	0.001847	41.8476	-16.855	-164.931	0.023806	0.241355	-0.720621	-0.721966	-0.055103	41.8476	-0.719633	-3.626380E+9	1.519510E-11	NaN
502	1.000000	0.250742	7.36996e+06	-51989.1	1005.82	-29750.7	0.000000	0.000000	6.250872	-0.134728	NaN	0.000000	0.001577	0.001750	28.0806	0.092804	0.002080	44.6182	-79.4015	-166.947	-0.084283	0.249374	-0.712579	-0.713947	-0.134728	44.6182	-0.710314	-2.706053E+9	4.978765E-11	NaN
502	1.000000	0.258714	7.36996e+06	-51989.1	1005.82	-29750.7	0.000000	0.000000	6.258846	-0.103756	NaN	0.000000	0.001594	0.001756	28.081	0.065596	0.002102	31.2136	-103.197	-166.782	-0.086923	0.257381	-0.704607	-0.705940	-0.103756	31.2136	-0.702114	-2.091210E+9	4.961534E-11	NaN
502	1.000000	0.266694	7.36996e+06	-51989.1	1005.82	-29750.7	0.000000	0.000000	6.266831	0.007751	NaN	0.000000	0.001610	0.001724	28.0822	0.098594	0.002035	48.456	-151.849	-163.864	-0.014499	0.265359	-0.696626	-0.697962	0.007751	48.456	-0.696746	-1.766399E+9	-4.388196E-12	NaN
502	1.000000	0.274693	7.36996e+06	-51989.1	1005.82	-29750.7	0.000000	0.000000	6.274826	-0.075431	NaN	0.000000	0.001602	0.001776	28.0826	0.046136	0.002031	22.711	97.5673	-164.164	-0.053358	0.273410	-0.688627	-0.689911	-0.075431	22.711	-0.686136	-1.265056E+9	5.962682E-11	NaN
502	1.000000	0.282724	7.36996e+06	-51989.1	1005.82	-29750.7	0.000000	0.000000	6.282859	-0.021494	NaN	0.000000	0.001558	0.001761	28.0823	0.156704	0.001989	78.8028	-151.425	-168.478	0.040704	0.281423	-0.680596	-0.681897	-0.021494	78.8028	-0.680392	-1.055757E+9	2.035857E-11	NaN
502	1.000000	0.290708	7.36996e+06	-51989.1	1005.82	-29750.7	0.000000	0.000000	6.290842	-0.039181	NaN	0.000000	0.001564	0.001739	28.0821	0.044554	0.001928	23.1138	-163.733	-168.353	-0.046047	0.289402	-0.672613	-0.673918	-0.039181	23.1138	-0.671342	-7.938726E+8	4.935414E-11	NaN
502	1.000000	0.298715	7.36996e+06	-51989.1	1005.82	-29750.7	0.000000	0.000000	6.298848	-0.077111	NaN	0.000000	0.001550	0.001773	28.0823	0.057732	0.001898	30.4247	168.681	-165.824	-0.163985	0.297409	-0.664606	-0.665912	-0.077111	30.4247	-0.662705	-6.046664E+8	1.275267E-10	NaN
502	1.000000	0.306692	7.36996e+06	-51989.1	1005.82	-29750.7	0.000000	0.000000	6.306823	-0.108265	NaN	0.000000	0.001593	0.001781	28.0822	0.071549	0.002113	33.869	-37.7999	-164.239	-0.027332	0.305436	-0.656629	-0.657884	-0.108265	33.869	-0.654231	-4.628439E+8	2.339116E-10	NaN
502	1.000000	0.314733	7.36996e+06	-51989.1	1005.82	-29750.7	0.000000	0.000000	6.314871	0.039099	NaN	0.000000	0.001645	0.001751	28.0824	0.057319	0.001975	29.0162	156.452	-168.88	0.028948	0.313434	-0.648588	-0.649886	0.039099	29.0162	-0.649598	-3.998796E+8	-9.777800E-11	NaN
502	1.000000	0.322749	7.36996e+06	-51989.1	1005.82	-29750.7	0.000000	0.000000	6.322883	-0.033898	NaN	0.000000	0.001649	0.001762	28.0822	0.043325	0.001956	22.1456	88.8007	-164.198	-0.082109	0.321414	-0.640572	-0.641906	-0.033898	22.1456	-0.639424	-2.899920E+8	1.168922E-10	NaN
502	1.000000	0.330740	7.36996e+06	-51989.1	1005.82	-29750.7	0.000000	0.000000	6.330875	-0.036612	NaN	0.000000	0.001636	0.001712	28.0823	0.013939	0.001972	7.069883	-32.7778	-167.748	-0.069747	0.329363	-0.632580	-0.633957	-0.036612	7.069883	-0.628696	-2.065935E+8	1.772164E-10	NaN
502	1.000000	0.338748	7.36996e+06	-51989.1	1005.82	-29750.7	0.000000	0.000000	6.338880	-0.112466	NaN	0.000000	0.001643	0.001722	28.0821	0.109036	0.002089	52.1861	92.7213	-170.5	-0.078984	0.337443	-0.624573	-0.625878	-0.112466	52.1861	-0.622956	-1.722912E+8	6.527648E-10	NaN
502	1.000000	0.346722	7.36996e+06	-51989.1	1005.82	-29750.7	0.000000	0.000000	6.346854	-0.097577	NaN	0.000000	0.001622	0.001717	28.0823	0.055960	0.001968	28.4342	5.025345	-165.966	-0.103856	0.345421	-0.616598	-0.617899	-0.097577	28.4342	-0.614025	-1.298605E+8	7.514003E-10	NaN
502	1.000000	0.354739	7.36996e+06	-51989.1	1005.82	-29750.7	0.000000	0.000000	6.354871	-0.099952	NaN	0.000000	0.001609	0.001720	28.0822	0.019029	0.001996	9.531512	-23.6399	-167.821	-0.048071	0.353449	-0.608582	-0.609871	-0.099952	9.531512	-0.600717	-8.517872E+7	1.173433E-9	NaN
502	1.000000	0.362748	7.36996e+06	-51989.1	1005.82	-29750.7	0.000000	0.000000	6.362882	-0.068360	NaN	0.000000	0.001602	0.001711	28.082	0.120107	0.001904	63.0814	131.006	-167.618	-0.106894	0.361427	-0.600572	-0.601893	-0.068360	63.0814	-0.599759	-8.263151E+7	8.272891E-10	NaN
502	1.000000	0.370742	7.36996e+06	-51989.1	1005.82	-29750.7	0.000000	0.000000	6.370876	-0.051778	NaN	0.000000	0.001615	0.001738	28.0825	0.048003	0.002069	23.2027	49.5751	-162.952	-0.050069	0.369411	-0.592579	-0.593910	-0.051778	23.2027	-0.590905	-6.239370E+7	8.298558E-10	NaN
502	1.000000	0.378750	7.36996e+06	-51989.1	1005.82	-29750.7	0.000000	0.000000	6.378882	-0.093132	NaN	0.000000	0.001603	0.001751	28.082	0.016294	0.002013	8.095052	-89.1635	-168.344	-0.066853	0.377433	-0.584571	-0.585888	-0.093132	8.095052	-0.575942	-3.878892E+7	2.401004E-9	NaN
502	1.000000	0.386767	7.36996e+06	-51989.1	1005.82	-29750.7	0.000000	0.000000	6.386900	-0.080530	NaN	0.000000	0.001570	0.001724	28.0821	0.024811	0.001990	12.471	-172.283	-164.586	-0.032926	0.385498	-0.576554	-0.577823	-0.080530	12.471	-0.571711	-3.390516E+7	2.375140E-9	NaN
502	1.000000	0.394776	7.36996e+06	-51989.1	1005.82	-29750.7	0.000000	0.000000	6.394907	-0.141830	NaN	0.000000	0.001580	0.001749	28.082	0.056009	0.002016	27.7856	15.8435	-164.305	-0.108352	0.393476	-0.568544	-0.569845	-0.141830	27.7856	-0.564716	-2.713935E+7	5.226004E-9	NaN
502	1.000000	0.402759	7.36996e+06	-51989.1	1005.82	-29750.7	0.000000	0.000000	6.402891	-0.102540	NaN	0.000000	0.001589	0.001710	28.0808	0.048426	0.002094	23.1213	6.432229	-163.299	-0.071406	0.401408	-0.560562	-0.561913	-0.102540	23.1213	-0.557236	-2.138612E+7	4.794719E-9	NaN
502	1.000000	0.410788	7.36996e+06	-51989.1	1005.82	-29750.7	0.000000	0.000000	6.410921	-0.084589	NaN	0.000000	0.001574	0.001684	28.0814	0.045818	0.002052	22.3326	-148.402	-163.813	-0.057800	0.409476	-0.552532	-0.553845	-0.084589	22.3326	-0.549692	-1.681452E+7	5.030720E-9	NaN
502	1.000000	0.418798	7.36996e+06	-51989.1	1005.82	-29750.7	0.000000	0.000000	6.418933	-0.030185	NaN	0.000000	0.001579	0.001739	28.0811	0.083054	0.002014	41.2479	130.846	-165.449	0.047189	0.417463	-0.544523	-0.545857	-0.030185	41.2479	-0.543974	-1.401058E+7	2.154436E-9	NaN
502	1.000000	0.426760	7.36996e+06	-51989.1	1005.82	-29750.7	0.000000	0.000000	6.426893	-0.080967	NaN	0.000000	0.001593	0.001782	28.0815	0.068199	0.002057	33.1591	156.042	-159.691	-0.032104	0.425493	-0.536561	-0.537828	-0.080967	33.1591	-0.534730	-1.042885E+7	7.763733E-9	NaN
502	1.000000	0.434782	7.36996e+06	-51989.1	1005.82	-29750.7	0.000000	0.000000	6.434917	-0.021123	NaN	0.000000	0.001615	0.001767	28.081	0.019401	0.001946	9.971121	157.443	-163.782	0.038164	0.433479	-0.528539	-0.529842	-0.021123	9.971121	-0.526950	-8.13224e+06	2.597428E-9	NaN
502	1.000000	0.442782	7.36996e+06	-51989.1	1005.82	-29750.7	0.000000	0.000000	6.442916	-0.037702	NaN	0.000000	0.001552	0.001729	28.0812	0.040774	0.001974	20.6539	17.8009	-166.645	-0.048566	0.441481	-0.520539	-0.521840	-0.037702	20.6539	-0.519170	-6.33944e+06	5.947216E-9	NaN
502	1.000000	0.450803	7.36996e+06	-51989.1	1005.82	-29750.7	0.000000	0.000000	6.450937	-0.060001	NaN	0.000000	0.001561	0.001717	28.0811	0.122699	0.002026	60.5646	165.291	-167.064	-0.085053	0.449424	-0.512517	-0.513896	-0.060001	60.5646	-0.511774	-5.00179e+06	1.199590E-8	NaN
502	1.000000	0.458786	7.36996e+06	-51989.1	1005.82	-29750.7	0.000000	0.000000	6.458917	-0.130097	NaN	0.000000	0.001555	0.001700	28.0811	0.021572	0.001870	11.5333	-4.166246	-168.206	-0.075795	0.457515	-0.504534	-0.505806	-0.130097	11.5333	-0.496074	-3.02157e+06	4.305609E-8	NaN
502	1.000000	0.466813	7.36996e+06	-51989.1	1005.82	-29750.7	0.000000	0.000000	6.466946	-0.065867	NaN	0.000000	0.001570	0.001758	28.0813	0.025159	0.002074	12.1315	-145.334	-168.883	-0.068679	0.465487	-0.496508	-0.497834	-0.065867	12.1315	-0.492435	-2.68794e+06	2.450473E-8	NaN
502	1.000000	0.474764	7.36996e+06	-51989.1	1005.82	-29750.7	0.000000	0.000000	6.474897	-0.067120	NaN	0.000000	0.001577	0.001719	28.0811	0.089403	0.001976	45.2464	110.223	-167.186	-0.078887	0.473477	-0.488557	-0.489843	-0.067120	45.2464	-0.487444	-2.28911e+06	2.932133E-8	NaN
502	1.000000	0.482799	7.36996e+06	-51989.1	1005.82	-29750.7	0.000000	0.000000	6.482932	-0.080913	NaN	0.000000	0.001565	0.001746	28.0813	0.113766	0.001992	57.1058	-148.097	-166.345	-0.097994	0.481483	-0.480522	-0.481838	-0.080913	57.1058	-0.479459	-1.76993e+06	4.571529E-8	NaN
502	1.000000	0.490772	7.36996e+06	-51989.1	1005.82	-29750.7	0.000000	0.000000	6.490905	-0.074783	NaN	0.000000	0.001598	0.001767	28.0812	0.058843	0.002034	28.9312	73.8719	-164.146	-0.144668	0.489508	-0.472549	-0.473812	-0.074783	28.9312	-0.470610	-1.33033e+06	5.621401E-8	NaN
502	1.000000	0.498769	7.36996e+06	-51989.1	1005.82	-29750.7	0.000000	0.000000	6.498903	-0.040355	NaN	0.000000	0.001557	0.001707	28.0812	0.146853	0.001922	76.3938	28.0828	-165.488	-0.067557	0.497533	-0.464552	-0.465787	-0.040355	76.3938	-0.464155	-1.07992e+06	3.736827E-8	NaN
502	1.000000	0.506802	7.36996e+06	-51989.1	1005.82	-29750.7	0.000000	0.000000	6.506934	-0.090736	NaN	0.000000	0.001597	0.001726	28.081	0.089946	0.002154	41.7523	-37.3556	-163.874	-0.054511	0.505496	-0.456519	-0.457825	-0.090736	41.7523	-0.454889	-800115	1.134037E-7	NaN
502	1.000000	0.514822	7.36996e+06	-51989.1	1005.82	-29750.7	0.000000	0.000000	6.514958	-0.013386	NaN	0.000000	0.001562	0.001768	28.0809	0.073507	0.001955	37.6078	115.548	-164.512	-0.033082	0.513520	-0.448498	-0.449801	-0.013386	37.6078	-0.448231	-644805	2.075928E-8	NaN
502	1.000000	0.522806	7.36996e+06	-51989.1	1005.82	-29750.7	0.000000	0.000000	6.522940	-0.062460	NaN	0.000000	0.001557	0.001758	28.0813	0.132305	0.002133	62.0347	80.8269	-164.865	-0.108238	0.521472	-0.440514	-0.441849	-0.062460	62.0347	-0.439759	-489737	1.275379E-7	NaN
502	1.000000	0.530826	7.36996e+06	-51989.1	1005.82	-29750.7	0.000000	0.000000	6.530959	-0.083693	NaN	0.000000	0.001576	0.001792	28.0814	0.092191	0.002118	43.52	65.6821	-168.78	-0.155200	0.529546	-0.432495	-0.433774	-0.083693	43.52	-0.431052	-368932	2.268525E-7	NaN
502	1.000000	0.538833	7.36996e+06	-51989.1	1005.82	-29750.7	0.000000	0.000000	6.538966	-0.068879	NaN	0.000000	0.001584	0.001759	28.0822	0.049249	0.001929	25.5358	-73.0982	-166.48	-0.095666	0.537547	-0.424488	-0.425773	-0.068879	25.5358	-0.422465	-278845	2.470148E-7	NaN
502	1.000000	0.546840	7.36996e+06	-51989.1	1005.82	-29750.7	0.000000	0.000000	6.546973	-0.082159	NaN	0.000000	0.001597	0.001759	28.0823	0.041520	0.001979	20.9774	37.6195	-166.824	-0.136734	0.545543	-0.416480	-0.417777	-0.082159	20.9774	-0.413543	-208331	3.943669E-7	NaN
502	1.000000	0.554809	7.36996e+06	-51989.1	1005.82	-29750.7	0.000000	0.000000	6.554943	-0.050000	NaN	0.000000	0.001555	0.001707	28.0823	0.041819	0.002110	19.8166	119.329	-165.213	-0.020568	0.553515	-0.408511	-0.409806	-0.050000	19.8166	-0.406619	-166072	3.010725E-7	NaN
502	1.000000	0.562827	7.36997e+06	-51989.1	1005.82	-29750.7	0.000000	0.000000	6.562960	-0.080479	NaN	0.000000	0.001628	0.001717	28.0835	0.029733	0.001834	16.2143	-72.1751	-165.955	-0.140454	0.561556	-0.400493	-0.401764	-0.080479	16.2143	-0.396770	-120203	6.695255E-7	NaN
502	1.000000	0.570826	7.36997e+06	-51989.1	1005.82	-29750.7	0.000000	0.000000	6.570957	-0.130917	NaN	0.000000	0.001607	0.001741	28.0826	0.032240	0.001946	16.5638	-102.581	-165.527	-0.140300	0.569556	-0.392495	-0.393765	-0.130917	16.5638	-0.386567	-85907.7	1.523922E-6	NaN
502	1.000000	0.578846	7.36997e+06	-51989.1	1005.82	-29750.7	0.000000	0.000000	6.578982	-0.015435	NaN	0.000000	0.001606	0.001785	28.0825	0.043030	0.002058	20.9097	147.042	-162.534	0.015479	0.577548	-0.384475	-0.385773	-0.015435	20.9097	-0.383921	-78726.9	1.960625E-7	NaN
502	1.000000	0.586842	7.36997e+06	-51989.1	1005.82	-29750.7	0.000000	0.000000	6.586977	-0.035929	NaN	0.000000	0.001618	0.001785	28.0823	0.031073	0.001963	15.8266	-176.106	-165.506	-0.093026	0.585449	-0.376479	-0.377872	-0.035929	15.8266	-0.374776	-58190.4	6.174368E-7	NaN
502	1.000000	0.594826	7.36997e+06	-51989.1	1005.82	-29750.7	0.000000	0.000000	6.594959	-0.076879	NaN	0.000000	0.001638	0.001749	28.0823	0.121546	0.001937	62.742	117.463	-162.658	-0.000720	0.593522	-0.368495	-0.369799	-0.076879	62.742	-0.367576	-45835	1.677308E-6	NaN
502	1.000000	0.602852	7.36997e+06	-51989.1	1005.82	-29750.7	0.000000	0.000000	6.602984	-0.093266	NaN	0.000000	0.001568	0.001741	28.0823	0.065027	0.002010	32.3504	125.315	-166.73	-0.062932	0.601550	-0.360469	-0.361770	-0.093266	32.3504	-0.358306	-33678.7	2.769295E-6	NaN
502	1.000000	0.610824	7.36997e+06	-51989.1	1005.82	-29750.7	0.000000	0.000000	6.610956	-0.105033	NaN	0.000000	0.001585	0.001738	28.0825	0.071631	0.002055	34.8529	-110.396	-167.328	-0.068338	0.609563	-0.352496	-0.353758	-0.105033	34.8529	-0.350236	-25729.1	4.082254E-6	NaN
502	1.000000	0.618874	7.36997e+06	-51989.1	1005.82	-29750.7	0.000000	0.000000	6.619007	-0.076018	NaN	0.000000	0.001555	0.001714	28.0825	0.029343	0.002151	13.6428	5.391028	-162.436	-0.079117	0.617527	-0.344446	-0.345793	-0.076018	13.6428	-0.340267	-18426.8	4.125433E-6	NaN
502	1.000000	0.626823	7.36997e+06	-51989.1	1005.82	-29750.7	0.000000	0.000000	6.626959	-0.012446	NaN	0.000000	0.001567	0.001705	28.0823	0.107274	0.001927	55.683	-73.2382	-165.589	-0.082715	0.625572	-0.336497	-0.337748	-0.012446	55.683	-0.336329	-16143.7	7.709328E-7	NaN
502	1.000000	0.634858	7.36997e+06	-51989.1	1005.82	-29750.7	0.000000	0.000000	6.634994	-0.005465	NaN	0.000000	0.001581	0.001744	28.0826	0.047615	0.001924	24.7513	-64.9218	-168.998	0.061889	0.633566	-0.328462	-0.329755	-0.005465	24.7513	-0.328297	-12316.7	4.436682E-7	NaN
502	1.000000	0.642860	7.36997e+06	-51989.1	1005.82	-29750.7	0.000000	0.000000	6.642993	-0.078896	NaN	0.000000	0.001540	0.001777	28.0825	0.023430	0.002031	11.5365	-137.618	-168.648	-0.051118	0.641511	-0.320461	-0.321809	-0.078896	11.5365	-0.315332	-7940.37	9.936075E-6	NaN
502	1.000000	0.650889	7.36997e+06	-51989.1	1005.82	-29750.7	0.000000	0.000000	6.651023	-0.061895	NaN	0.000000	0.001601	0.001753	28.0822	0.065872	0.001941	33.943	-30.5252	-165.488	-0.015392	0.649541	-0.312432	-0.313779	-0.061895	33.943	-0.311064	-6867.46	9.012793E-6	NaN
502	1.000000	0.658872	7.36997e+06	-51989.1	1005.82	-29750.7	0.000000	0.000000	6.659003	-0.133297	NaN	0.000000	0.001584	0.001766	28.0824	0.015356	0.001985	7.737825	177.623	-163.992	-0.136145	0.657545	-0.304448	-0.305775	-0.133297	7.737825	-0.291528	-3517.09	3.789968E-5	NaN
502	1.000000	0.666863	7.36997e+06	-51989.1	1005.82	-29750.7	0.000000	0.000000	6.667000	0.009203	NaN	0.000000	0.001589	0.001726	28.0823	0.150926	0.001971	76.5572	-133.282	-168.858	0.024382	0.665524	-0.296457	-0.297796	0.009203	76.5572	-0.296548	-4180.11	-2.201641E-6	NaN
502	1.000000	0.674903	7.36997e+06	-51989.1	1005.82	-29750.7	0.000000	0.000000	6.675037	-0.050014	NaN	0.000000	0.001561	0.001759	28.0814	0.122815	0.001949	63.0208	-54.1416	-166.66	-0.083080	0.673554	-0.288417	-0.289767	-0.050014	63.0208	-0.287822	-3094.92	1.616015E-5	NaN
502	1.000000	0.682860	7.36997e+06	-51989.1	1005.82	-29750.7	0.000000	0.000000	6.682994	-0.051655	NaN	0.000000	0.001536	0.001728	28.0809	0.086158	0.002013	42.7958	-105.104	-168.484	-0.071133	0.681587	-0.280461	-0.281733	-0.051655	42.7958	-0.279556	-2324.15	2.222510E-5	NaN
502	1.000000	0.690896	7.36997e+06	-51989.1	1005.82	-29750.7	0.000000	0.000000	6.691027	-0.126769	NaN	0.000000	0.001572	0.001718	28.081	0.096026	0.001939	49.5296	36.5311	-165.041	-0.120280	0.689543	-0.272424	-0.273778	-0.126769	49.5296	-0.270505	-1695.18	7.478214E-5	NaN
502	1.000000	0.698899	7.36997e+06	-51989.1	1005.82	-29750.7	0.000000	0.000000	6.699032	-0.070223	NaN	0.000000	0.001586	0.001740	28.0812	0.055282	0.001954	28.29	-44.2617	-164.289	-0.073341	0.697597	-0.264422	-0.265724	-0.070223	28.29	-0.262560	-1282.66	5.474750E-5	NaN
502	1.000000	0.706890	7.36997e+06	-51989.1	1005.82	-29750.7	0.000000	0.000000	6.707023	-0.078109	NaN	0.000000	0.001573	0.001751	28.081	0.023263	0.002041	11.3962	115.521	-166.751	-0.023488	0.705532	-0.256430	-0.257789	-0.078109	11.3962	-0.251290	-860.802	9.074015E-5	NaN
502	1.000000	0.714899	7.36997e+06	-51989.1	1005.82	-29750.7	0.000000	0.000000	6.715033	-0.048836	NaN	0.000000	0.001581	0.001757	28.0814	0.067967	0.001838	36.9814	-21.8695	-166.948	-0.035906	0.713583	-0.248421	-0.249737	-0.048836	36.9814	-0.247431	-750.217	6.509647E-5	NaN
502	1.000000	0.722884	7.36997e+06	-51989.1	1005.82	-29750.7	0.000000	0.000000	6.723016	-0.099104	NaN	0.000000	0.001536	0.001748	28.081	0.058223	0.002161	26.9375	153.636	-166.3	-0.056475	0.721611	-0.240437	-0.241709	-0.099104	26.9375	-0.237677	-528.726	0.000187	NaN
502	1.000000	0.730891	7.36997e+06	-51989.1	1005.82	-29750.7	0.000000	0.000000	6.731024	-0.090400	NaN	0.000000	0.001542	0.001714	28.0809	0.051065	0.002033	25.1147	-12.0628	-163.272	-0.092929	0.729598	-0.232429	-0.233723	-0.090400	25.1147	-0.229730	-396.503	0.000228	NaN
502	1.000000	0.738931	7.36997e+06	-51989.1	1005.82	-29750.7	0.000000	0.000000	6.739061	-0.143466	NaN	0.000000	0.001553	0.001717	28.0811	0.068312	0.001957	34.9146	-110.383	-165.736	-0.212052	0.737632	-0.224389	-0.225688	-0.143466	34.9146	-0.221308	-291.444	0.000492	NaN
502	1.000000	0.746908	7.36997e+06	-51989.1	1005.82	-29750.7	0.000000	0.000000	6.747042	-0.046826	NaN	0.000000	0.001538	0.001753	28.081	0.036404	0.001897	19.1874	68.4246	-161.294	-0.040063	0.745630	-0.216413	-0.217691	-0.046826	19.1874	-0.214582	-227.402	0.000206	NaN
502	1.000000	0.754902	7.36997e+06	-51989.1	1005.82	-29750.7	0.000000	0.000000	6.755034	-0.106948	NaN	0.000000	0.001607	0.001678	28.0812	0.091355	0.001841	49.6354	-66.8788	-162.702	-0.073379	0.753566	-0.208418	-0.209754	-0.106948	49.6354	-0.206802	-170.184	0.000628	NaN
502	1.000000	0.762937	7.36997e+06	-51989.1	1005.82	-29750.7	0.000000	0.000000	6.763072	-0.027011	NaN	0.000000	0.001608	0.001734	28.0811	0.111404	0.002125	52.4268	174.219	-166.236	-0.045837	0.761583	-0.200384	-0.201737	-0.027011	52.4268	-0.199997	-131.721	0.000205	NaN
502	1.000000	0.770940	7.36997e+06	-51989.1	1005.82	-29750.7	0.000000	0.000000	6.771075	-0.017969	NaN	0.000000	0.001534	0.001738	28.0811	0.050040	0.002080	24.0635	-106.21	-162.973	0.034843	0.769563	-0.192381	-0.193758	-0.017969	24.0635	-0.191821	-96.471	0.000186	NaN
502	1.000000	0.778905	7.36997e+06	-51989.1	1005.82	-29750.7	0.000000	0.000000	6.779038	-0.084368	NaN	0.000000	0.001558	0.001763	28.0813	0.030478	0.002037	14.9639	41.8929	-166.118	-0.200362	0.777605	-0.184415	-0.185716	-0.084368	14.9639	-0.180187	-61.4674	0.001373	NaN
502	1.000000	0.786913	7.36997e+06	-51989.1	1005.82	-29750.7	0.000000	0.000000	6.787048	-0.028922	NaN	0.000000	0.001532	0.001750	28.0811	0.127919	0.001993	64.1923	70.4475	-167.613	-0.094688	0.785627	-0.176407	-0.177693	-0.028922	64.1923	-0.176070	-52.2803	0.000553	NaN
502	1.000000	0.794923	7.36997e+06	-51989.1	1005.82	-29750.7	0.000000	0.000000	6.795059	-0.003435	NaN	0.000000	0.001557	0.001716	28.0811	0.070560	0.001866	37.8184	61.8099	-160.515	-0.069214	0.793561	-0.168398	-0.169759	-0.003435	37.8184	-0.168330	-38.42	8.940656E-5	NaN
502	1.000000	0.802921	7.36997e+06	-51989.1	1005.82	-29750.7	0.000000	0.000000	6.803052	-0.124983	NaN	0.000000	0.001572	0.001737	28.0811	0.092634	0.002005	46.201	-148.321	-162.392	-0.104749	0.801615	-0.160400	-0.161706	-0.124983	46.201	-0.158371	-25.6438	0.004874	NaN
502	1.000000	0.810922	7.36997e+06	-51989.1	1005.82	-29750.7	0.000000	0.000000	6.811055	-0.092426	NaN	0.000000	0.001631	0.001723	28.0827	0.088068	0.002011	43.796	-24.1073	-168.187	-0.087240	0.809693	-0.152398	-0.153628	-0.092426	43.796	-0.150815	-18.744	0.004931	NaN
502	1.000000	0.818943	7.36997e+06	-51989.1	1005.82	-29750.7	0.000000	0.000000	6.819076	-0.075832	NaN	0.000000	0.001566	0.001782	28.0824	0.089102	0.001958	45.5123	-96.352	-164.642	-0.053064	0.817595	-0.144377	-0.145725	-0.075832	45.5123	-0.143128	-13.5342	0.005603	NaN
502	1.000000	0.826926	7.36997e+06	-51989.1	1005.82	-29750.7	0.000000	0.000000	6.827060	-0.036412	NaN	0.000000	0.001583	0.001761	28.0825	0.030393	0.001859	16.3468	84.5723	-164.348	-0.051076	0.825641	-0.136395	-0.137680	-0.036412	16.3468	-0.134724	-9.397718	0.003875	NaN
502	1.000000	0.834950	7.36997e+06	-51989.1	1005.82	-29750.7	0.000000	0.000000	6.835084	-0.057209	NaN	0.000000	0.001597	0.001771	28.0822	0.066502	0.001977	33.6344	-27.1399	-166.966	-0.012857	0.833651	-0.128370	-0.129669	-0.057209	33.6344	-0.127094	-6.687610	0.008555	NaN
502	1.000000	0.842954	7.36997e+06	-51989.1	1005.82	-29750.7	0.000000	0.000000	6.843090	-0.008380	NaN	0.000000	0.001601	0.001754	28.0824	0.002657	0.001913	1.389417	-178.767	-166.824	-0.048535	0.841672	-0.120366	-0.121649	-0.008380	1.389417	-0.115843	-3.976003	0.002108	NaN
502	1.000000	0.850934	7.36997e+06	-51989.1	1005.82	-29750.7	0.000000	0.000000	6.851069	-0.041503	NaN	0.000000	0.001588	0.001746	28.0825	0.066770	0.002006	33.2808	-98.1623	-164.885	-0.024156	0.849657	-0.112386	-0.113664	-0.041503	33.2808	-0.111451	-3.223745	0.012874	NaN
502	1.000000	0.858934	7.36997e+06	-51989.1	1005.82	-29750.7	0.000000	0.000000	6.859068	-0.056346	NaN	0.000000	0.001569	0.001714	28.0823	0.057896	0.002065	28.03	-17.2855	-164.628	-0.061699	0.857629	-0.104386	-0.105692	-0.056346	28.03	-0.102879	-2.114002	0.026654	NaN
502	1.000000	0.866932	7.36997e+06	-51989.1	1005.82	-29750.7	0.000000	0.000000	6.867068	-0.003586	NaN	0.000000	0.001573	0.001738	28.0823	0.090868	0.001961	46.3476	-129.662	-165.455	-0.009396	0.865665	-0.096389	-0.097655	-0.003586	46.3476	-0.096331	-1.512246	0.002372	NaN
502	1.000000	0.874985	7.36997e+06	-51989.1	1005.82	-29750.7	0.000000	0.000000	6.875120	-0.019062	NaN	0.000000	0.001561	0.001730	28.0823	0.058336	0.002049	28.4651	71.3582	-165.306	-0.021445	0.873669	-0.088335	-0.089651	-0.019062	28.4651	-0.087833	-0.960818	0.019839	NaN
502	1.000000	0.882972	7.36997e+06	-51989.1	1005.82	-29750.7	0.000000	0.000000	6.883105	-0.075133	NaN	0.000000	0.001537	0.001738	28.0826	0.029169	0.001995	14.6194	-114.379	-169.879	-0.100572	0.881703	-0.080349	-0.081617	-0.075133	14.6194	-0.076494	-0.504637	0.148886	NaN
502	1.000000	0.890968	7.36997e+06	-51989.1	1005.82	-29750.7	0.000000	0.000000	6.891101	-0.070704	NaN	0.000000	0.001563	0.001745	28.0823	0.034155	0.002001	17.0696	65.7561	-166.98	-0.043536	0.889704	-0.072353	-0.073617	-0.070704	17.0696	-0.069246	-0.325574	0.217169	NaN
502	1.000000	0.898991	7.36997e+06	-51989.1	1005.82	-29750.7	0.000000	0.000000	6.899125	-0.065153	NaN	0.000000	0.001565	0.001753	28.0822	0.075159	0.001969	38.1675	-136.709	-165.186	-0.121227	0.897673	-0.064329	-0.065648	-0.065153	38.1675	-0.063049	-0.219830	0.296379	NaN
502	1.000000	0.907009	7.36997e+06	-51989.1	1005.82	-29750.7	0.000000	0.000000	6.907143	-0.065941	NaN	0.000000	0.001584	0.001738	28.0824	0.062742	0.001957	32.0569	-168.4	-168.85	-0.080415	0.905690	-0.056311	-0.057631	-0.065941	32.0569	-0.054768	-0.126761	0.520194	NaN
502	1.000000	0.915005	7.36997e+06	-51989.1	1005.82	-29750.7	0.000000	0.000000	6.915139	-0.039933	NaN	0.000000	0.001535	0.001768	28.0823	0.094352	0.002119	44.5262	-51.6506	-166.541	-0.007329	0.913704	-0.048316	-0.049617	-0.039933	44.5262	-0.047643	-0.077392	0.515992	NaN
502	1.000000	0.922967	7.36997e+06	-51989.1	1005.82	-29750.7	0.000000	0.000000	6.923099	-0.100369	NaN	0.000000	0.001549	0.001737	28.0826	0.087441	0.001953	44.7814	96.6615	-162.732	-0.047570	0.921692	-0.040353	-0.041628	-0.100369	44.7814	-0.038672	-0.041222	2.434837	NaN
502	1.000000	0.930986	7.36997e+06	-51989.1	1005.82	-29750.7	0.000000	0.000000	6.931120	-0.054114	NaN	0.000000	0.001565	0.001696	28.0822	0.076379	0.001897	40.2556	-138.145	-162.334	-0.026927	0.929646	-0.032334	-0.033675	-0.054114	40.2556	-0.031326	-0.025075	2.158082	NaN
502	1.000000	0.938970	7.36997e+06	-51989.1	1005.82	-29750.7	0.000000	0.000000	6.939101	-0.105529	NaN	0.000000	0.001598	0.001732	28.0821	0.109444	0.001990	55.002	171.207	-169.348	-0.050763	0.937614	-0.024351	-0.025707	-0.105529	55.002	-0.022912	-0.014899	7.082944	NaN
502	1.000000	0.946996	7.36997e+06	-51989.1	1005.82	-29750.7	0.000000	0.000000	6.947129	-0.083691	NaN	0.000000	0.001530	0.001759	28.0813	0.043976	0.001936	22.7099	-136.339	-163.222	-0.107764	0.945636	-0.016324	-0.017684	-0.083691	22.7099	-0.013561	-0.008427	9.931505	NaN
502	1.000000	0.955008	7.36997e+06	-51989.1	1005.82	-29750.7	0.000000	0.000000	6.955139	-0.119673	NaN	0.000000	0.001566	0.001764	28.081	0.033277	0.002101	15.8353	105.959	-163.528	-0.085927	0.953651	-0.008313	-0.009670	-0.119673	15.8353	-0.002645	-0.001881	63.6169	NaN
502	1.000000	0.962933	7.36997e+06	-51989.1	1005.82	-29750.7	0.000000	0.000000	6.963226	3.821890	NaN	0.000000	0.001550	0.001712	28.0812	4.924375	0.001767	2786.89	12.4948	-172.018	2.417578	0.961691	-0.000388	-0.001629	3.821890	2786.89	-0.001416	-0.001030	-3709.63	NaN
502	2.000000	0.968550	7.36997e+06	-51989.1	1005.82	-29750.7	0.000000	0.000000	6.969103	10.1465	NaN	0.000000	0.001571	0.001727	28.081	9.658195	0.001491	6478.35	5.181199	-172.037	9.044139	0.968185	0.005229	0.004864	10.1465	6478.35	0.004055	0.003287	3087.02	103240
502	2.000000	0.970505	7.36997e+06	-51989.1	1005.82	-29750.7	0.000000	0.000000	6.971139	12.1024	NaN	0.000000	0.001585	0.001754	28.0813	12.0431	0.001632	7378.02	3.463555	-169.636	11.3037	0.970233	0.007184	0.006912	12.1024	7378.02	0.005954	0.005021	2410.36	95130.3
502	2.000000	0.972536	7.36997e+06	-51989.1	1005.82	-29750.7	0.000000	0.000000	6.973311	15.5434	NaN	0.000000	0.001534	0.001777	28.0813	14.2337	0.001658	8587.06	5.230421	-173.085	15.4121	0.972213	0.009215	0.008892	15.5434	8587.06	0.007858	0.006896	2253.81	94472.1
502	2.000000	0.974477	7.36997e+06	-51989.1	1005.82	-29750.7	0.000000	0.000000	6.975423	19.6908	NaN	0.000000	0.001555	0.001767	28.0812	16.7947	0.001717	9781.37	9.563824	-178.183	19.3577	0.974133	0.011156	0.010813	19.6908	9781.37	0.009646	0.008791	2239.89	95313.6
502	2.000000	0.976476	7.36997e+06	-51989.1	1005.82	-29750.7	0.000000	0.000000	6.977535	22.4473	NaN	0.000000	0.001594	0.001774	28.0813	19.4707	0.001821	10692.1	4.406260	-175.124	21.7144	0.976187	0.013155	0.012866	22.4473	10692.1	0.011581	0.010992	2042.23	93176.2
502	2.000000	0.978440	7.36997e+06	-51989.1	1005.82	-29750.7	0.000000	0.000000	6.979717	27.7297	NaN	0.000000	0.001575	0.001751	28.0813	20.2141	0.001742	11607.2	3.058160	-174.001	26.5443	0.978121	0.015120	0.014801	27.7297	11607.2	0.013328	0.013120	2113.55	92583.6
502	2.000000	0.980445	7.36997e+06	-51989.1	1005.82	-29750.7	0.000000	0.000000	6.981887	31.7527	NaN	0.000000	0.001582	0.001737	28.0811	22.6446	0.001794	12623.7	3.396988	-175.796	31.4693	0.980142	0.017125	0.016821	31.7527	12623.7	0.015238	0.015604	2034.89	92329.5
502	2.000000	0.982464	7.36997e+06	-51989.1	1005.82	-29750.7	0.000000	0.000000	6.984085	36.1072	NaN	0.000000	0.001625	0.001787	28.0815	24.9467	0.001606	15531.7	7.426534	178.157	34.6844	0.982135	0.019143	0.018815	36.1072	15531.7	0.017400	0.018620	1939.18	103993
502	2.000000	0.984444	7.36997e+06	-51989.1	1005.82	-29750.7	0.000000	0.000000	6.986278	41.2804	NaN	0.000000	0.001589	0.001781	28.0814	26.4591	0.001869	14153	8.046048	-179.855	41.2399	0.984093	0.021124	0.020773	41.2804	14153	0.018936	0.020898	1975.3	89447.2
502	2.000000	0.986437	7.36997e+06	-51989.1	1005.82	-29750.7	0.000000	0.000000	6.988453	45.7077	NaN	0.000000	0.001577	0.001770	28.0812	28.4293	0.001767	16084.8	5.699584	-179.852	44.8639	0.986158	0.023116	0.022838	45.7077	16084.8	0.020985	0.024114	1895.49	94635.7
502	2.000000	0.988417	7.36997e+06	-51989.1	1005.82	-29750.7	0.000000	0.000000	6.990634	50.6053	NaN	0.000000	0.001598	0.001774	28.0809	29.344	0.001815	16171.5	1.944753	-175.94	48.8253	0.988116	0.025096	0.024796	50.6053	16171.5	0.022749	0.027048	1870.96	89837.5
502	2.000000	0.990448	7.36997e+06	-51989.1	1005.82	-29750.7	0.000000	0.000000	6.992967	57.9273	NaN	0.000000	0.001563	0.001780	28.081	32.6783	0.001727	18922.4	7.339289	176.43	57.8244	0.990113	0.027128	0.026792	57.9273	18922.4	0.024832	0.030711	1886.23	98651.9
502	2.000000	0.992481	7.36997e+06	-51989.1	1005.82	-29750.7	0.000000	0.000000	6.995281	64.7727	NaN	0.000000	0.001577	0.001770	28.0818	34.6771	0.001811	19152.6	8.704237	176.535	65.234	0.992129	0.029161	0.028809	64.7727	19152.6	0.026624	0.034037	1902.99	94847
502	2.000000	0.994411	7.36997e+06	-51989.1	1005.82	-29750.7	0.000000	0.000000	6.997366	68.5374	NaN	0.000000	0.001558	0.001782	28.0806	36.4272	0.001777	20501.4	6.381887	177.159	68.0815	0.994148	0.031090	0.030828	68.5374	20501.4	0.028583	0.037858	1810.39	96267.5
502	2.000000	0.996394	7.36997e+06	-51989.1	1005.82	-29750.7	0.000000	0.000000	6.999689	76.8048	NaN	0.000000	0.001636	0.001778	28.0818	37.99	0.001859	20432.1	7.468404	176.019	74.6292	0.996067	0.033073	0.032747	76.8048	20432.1	0.030254	0.041272	1860.95	91888.5
502	2.000000	0.998415	7.36997e+06	-51989.1	1005.82	-29750.7	0.000000	0.000000	7.001977	83.3016	NaN	0.000000	0.001631	0.001759	28.0819	38.9549	0.001738	22410.5	7.941311	175.051	83.0854	0.998090	0.035095	0.034769	83.3016	22410.5	0.032307	0.045661	1824.35	95819
502	2.000000	1.000438	7.36997e+06	-51989.1	1005.82	-29750.7	0.000000	0.000000	7.004286	90.2617	NaN	0.000000	0.001627	0.001779	28.082	40.6669	0.001643	24747.2	1.498616	-179.935	91.2063	1.000052	0.037117	0.036732	90.2617	24747.2	0.034382	0.050316	1793.91	100797
502	2.000000	1.002450	7.36997e+06	-51989.1	1005.82	-29750.7	0.000000	0.000000	7.006667	99.2112	NaN	0.000000	0.001634	0.001740	28.0829	43.9451	0.001817	24184.1	5.158360	177.763	98.3795	1.002075	0.039130	0.038754	99.2112	24184.1	0.036053	0.054226	1829.58	94885.3
502	2.000000	1.004468	7.36997e+06	-51989.1	1005.82	-29750.7	0.000000	0.000000	7.008838	102.929	NaN	0.000000	0.001625	0.001726	28.0821	45.0224	0.001858	24232	4.133505	178.472	106.168	1.004074	0.041148	0.040753	102.929	24232	0.037962	0.058868	1748.47	91248.2
502	2.000000	1.006319	7.36997e+06	-51989.1	1005.82	-29750.7	0.000000	0.000000	7.011184	114.987	NaN	0.000000	0.001632	0.001742	28.0819	47.3175	0.001830	25861.4	5.311540	176.97	109.274	1.006001	0.042998	0.042681	114.987	25861.4	0.039664	0.063162	1820.51	94015.1
502	2.000000	1.008396	7.36997e+06	-51989.1	1005.82	-29750.7	0.000000	0.000000	7.013508	120.998	NaN	0.000000	0.001583	0.001753	28.082	47.8099	0.001725	27715.1	4.508019	176.459	120.073	1.008125	0.045075	0.044804	120.998	27715.1	0.041801	0.068765	1759.58	96561.7
502	2.000000	1.010371	7.36997e+06	-51989.1	1005.82	-29750.7	0.000000	0.000000	7.015875	130.514	NaN	0.000000	0.001562	0.001741	28.0821	50.9983	0.001733	29435.9	6.878045	173.725	129.074	1.010101	0.047051	0.046781	130.514	29435.9	0.043726	0.074011	1763.45	98856.1
502	2.000000	1.012464	7.36997e+06	-51989.1	1005.82	-29750.7	0.000000	0.000000	7.018374	140.388	NaN	0.000000	0.001552	0.001747	28.0824	51.7283	0.001762	29354.6	-0.084429	-178.842	140.899	1.012120	0.049144	0.048799	140.388	29354.6	0.045557	0.079175	1773.12	95313.6
502	2.000000	1.014373	7.36997e+06	-51989.1	1005.82	-29750.7	0.000000	0.000000	7.020732	151.295	NaN	0.000000	0.001579	0.001764	28.0821	54.3905	0.001819	29897.4	6.907782	174.291	151.172	1.014040	0.051053	0.050720	151.295	29897.4	0.047257	0.084124	1798.47	94177.4
502	2.000000	1.016409	7.36997e+06	-51989.1	1005.82	-29750.7	0.000000	0.000000	7.022897	154.461	NaN	0.000000	0.001618	0.001720	28.0824	57.3556	0.001945	29491.1	7.003049	173.593	156.511	1.016013	0.053088	0.052693	154.461	29491.1	0.049160	0.089835	1719.39	89896.3
502	2.000000	1.018309	7.36997e+06	-51989.1	1005.82	-29750.7	0.000000	0.000000	7.025399	169.084	NaN	0.000000	0.001567	0.001749	28.0821	57.0333	0.001704	33463.7	4.431954	175.244	164.292	1.018008	0.054989	0.054688	169.084	33463.7	0.051199	0.096155	1758.45	98596.4
502	2.000000	1.020309	7.36997e+06	-51989.1	1005.82	-29750.7	0.000000	0.000000	7.027747	177.548	NaN	0.000000	0.001599	0.001776	28.082	58.738	0.001787	32877.9	3.340103	175.902	173.594	1.019996	0.056988	0.056675	177.548	32877.9	0.052938	0.101711	1745.61	94187.6
502	2.000000	1.022440	7.36997e+06	-51989.1	1005.82	-29750.7	0.000000	0.000000	7.030187	185.056	NaN	0.000000	0.001571	0.001775	28.0821	60.9027	0.001728	35241.8	4.364680	174.344	186.423	1.022092	0.059119	0.058771	185.056	35241.8	0.055181	0.109098	1696.23	97481.5
502	2.000000	1.024303	7.36997e+06	-51989.1	1005.82	-29750.7	0.000000	0.000000	7.032654	199.729	NaN	0.000000	0.001555	0.001773	28.0822	62.2331	0.001726	36063.2	7.635276	170.833	195.855	1.024094	0.060983	0.060773	199.729	36063.2	0.056829	0.114683	1741.57	97294.1
502	2.000000	1.026369	7.36997e+06	-51989.1	1005.82	-29750.7	0.000000	0.000000	7.035210	211.654	NaN	0.000000	0.001553	0.001741	28.0822	64.0555	0.001768	36233	1.886041	177.676	211.366	1.025916	0.063049	0.062596	211.654	36233	0.058668	0.121075	1748.13	95137.4
502	2.000000	1.028267	7.36997e+06	-51989.1	1005.82	-29750.7	0.000000	0.000000	7.037528	221.872	NaN	0.000000	0.001586	0.001757	28.0824	64.4382	0.001759	36632.5	5.597955	173.436	215.491	1.028114	0.064947	0.064794	221.872	36632.5	0.060404	0.127261	1743.44	93819.1
502	2.000000	1.030331	7.36997e+06	-51989.1	1005.82	-29750.7	0.000000	0.000000	7.039942	230.395	NaN	0.000000	0.001547	0.001745	28.0807	67.7809	0.001821	37220.9	5.044874	173.936	227.545	1.030002	0.067010	0.066682	230.395	37220.9	0.062368	0.134435	1713.8	92747.7
502	2.000000	1.032437	7.36997e+06	-51989.1	1005.82	-29750.7	0.000000	0.000000	7.042255	235.413	NaN	0.000000	0.001527	0.001747	28.0809	69.4775	0.001805	38483.3	1.634288	176.773	236.575	1.032192	0.069117	0.068871	235.413	38483.3	0.064529	0.142547	1651.48	93125.3
502	2.000000	1.034329	7.36997e+06	-51989.1	1005.82	-29750.7	0.000000	0.000000	7.044964	255.284	NaN	0.000000	0.001589	0.001749	28.0808	70.5366	0.001800	39185.7	-0.081795	177.956	252.369	1.034063	0.071009	0.070742	255.284	39185.7	0.066123	0.148674	1717.07	92850.3
502	2.000000	1.036370	7.36997e+06	-51989.1	1005.82	-29750.7	0.000000	0.000000	7.047357	263.843	NaN	0.000000	0.001531	0.001696	28.0808	73.0788	0.001798	40640.7	-0.258190	178.291	263.577	1.036114	0.073049	0.072794	263.843	40640.7	0.068180	0.156764	1683.06	93780.1
502	2.000000	1.038242	7.36997e+06	-51989.1	1005.82	-29750.7	0.000000	0.000000	7.049694	275.158	NaN	0.000000	0.001583	0.001710	28.0811	74.2078	0.001708	43457.5	4.153279	173.438	268.922	1.038028	0.074921	0.074707	275.158	43457.5	0.070172	0.164790	1669.75	97807.6
502	2.000000	1.040371	7.36997e+06	-51989.1	1005.82	-29750.7	0.000000	0.000000	7.052471	290.899	NaN	0.000000	0.001535	0.001764	28.0807	77.0129	0.001842	41803.2	3.474378	175.069	291.456	1.039958	0.077051	0.076637	290.899	41803.2	0.071832	0.171618	1695.03	92193.5
502	2.000000	1.042357	7.36997e+06	-51989.1	1005.82	-29750.7	0.000000	0.000000	7.054879	301.152	NaN	0.000000	0.001558	0.001706	28.081	78.6864	0.001800	43711.8	5.659881	171.395	298.052	1.042194	0.079037	0.078873	301.152	43711.8	0.073870	0.180185	1671.35	94083.4
502	2.000000	1.044386	7.36997e+06	-51989.1	1005.82	-29750.7	0.000000	0.000000	7.057484	315.182	NaN	0.000000	0.001577	0.001717	28.0809	80.2651	0.001864	43051.7	6.787477	171.648	316.303	1.043935	0.081065	0.080614	315.182	43051.7	0.075575	0.187501	1680.96	90836.7
502	2.000000	1.046347	7.36997e+06	-51989.1	1005.82	-29750.7	0.000000	0.000000	7.059758	322.776	NaN	0.000000	0.001538	0.001692	28.0808	80.7543	0.001647	49038.6	-0.860439	176.979	320.813	1.046112	0.083027	0.082791	322.776	49038.6	0.078090	0.198545	1625.71	100550
502	2.000000	1.048265	7.36997e+06	-51989.1	1005.82	-29750.7	0.000000	0.000000	7.062654	346.557	NaN	0.000000	0.001544	0.001706	28.081	82.1026	0.001698	48348.9	3.317073	173.451	340.621	1.048026	0.084944	0.084705	346.557	48348.9	0.079568	0.205174	1689.09	97521.1
502	2.000000	1.050377	7.36997e+06	-51989.1	1005.82	-29750.7	0.000000	0.000000	7.065157	356.067	NaN	0.000000	0.001552	0.001724	28.0806	86.2978	0.001824	47318.1	3.616466	173.515	357.396	1.050034	0.087057	0.086714	356.067	47318.1	0.081413	0.213589	1667.06	93542.9
502	2.000000	1.052388	7.36997e+06	-51989.1	1005.82	-29750.7	0.000000	0.000000	7.067933	374.672	NaN	0.000000	0.001544	0.001735	28.0808	88.6168	0.001906	46498.7	5.939179	173.214	374.697	1.051916	0.089068	0.088595	374.672	46498.7	0.083024	0.221067	1694.83	90355
502	2.000000	1.054418	7.36997e+06	-51989.1	1005.82	-29750.7	0.000000	0.000000	7.070449	386.492	NaN	0.000000	0.001525	0.001706	28.0806	89.585	0.001786	50156.6	5.401503	171.355	389.503	1.053961	0.091098	0.090640	386.492	50156.6	0.085318	0.231922	1666.47	95154.8
502	2.000000	1.056354	7.36997e+06	-51989.1	1005.82	-29750.7	0.000000	0.000000	7.072677	393.586	NaN	0.000000	0.001552	0.001653	28.0807	92.4216	0.001739	53154.8	3.200601	173.184	391.856	1.056219	0.093033	0.092898	393.586	53154.8	0.087480	0.242374	1623.88	98644.3
502	2.000000	1.058350	7.36997e+06	-51989.1	1005.82	-29750.7	0.000000	0.000000	7.075423	411.831	NaN	0.000000	0.001524	0.001700	28.0809	92.7678	0.001861	49849.4	-0.478294	177.256	411.046	1.058106	0.095030	0.094786	411.831	49849.4	0.088833	0.249028	1653.76	91266.1
502	2.000000	1.060262	7.36997e+06	-51989.1	1005.82	-29750.7	0.000000	0.000000	7.078060	429.448	NaN	0.000000	0.001552	0.001681	28.0811	96.4198	0.001847	52200.3	2.959898	173.615	424.396	1.060021	0.096941	0.096700	429.448	52200.3	0.090771	0.258699	1660.03	93766.9
502	2.000000	1.062339	7.36997e+06	-51989.1	1005.82	-29750.7	0.000000	0.000000	7.080803	445.628	NaN	0.000000	0.001563	0.001693	28.0812	97.6238	0.001767	55261.1	5.379518	170.935	443.241	1.062024	0.099019	0.098703	445.628	55261.1	0.092971	0.269888	1651.16	97185.4
502	2.000000	1.064398	7.36997e+06	-51989.1	1005.82	-29750.7	0.000000	0.000000	7.083598	463.54	NaN	0.000000	0.001562	0.001708	28.082	99.4293	0.001656	60024.1	6.680952	168.873	465.332	1.063945	0.101078	0.100624	463.54	60024.1	0.095286	0.281900	1644.34	103288
502	2.000000	1.066358	7.36997e+06	-51989.1	1005.82	-29750.7	0.000000	0.000000	7.086132	477.487	NaN	0.000000	0.001540	0.001733	28.0823	102.016	0.001858	54913.7	3.303723	173.411	476.867	1.066098	0.103038	0.102778	477.487	54913.7	0.096516	0.288386	1655.72	93425.8