File: remote_trans/data/nanoindenter/0828-1/data/Data_2025-08-06,11h17m57s/2025-07-22_16-23-58_1_797.txt
2025-07-22, 16:23:58, 1
Index	Phase	Displacement	Time	Pos X	Pos Y	Pos Z	Rot A	Rot B	Piezo Z	Force A	Force B	Gripper	Voltage A	Voltage B	Temperature	Amplitude force	Amplitude pos	Stiffness	Phase shift	Phase excitation	Force A raw	Displacement raw	HMax	HMax raw	Real Force	Real Stiffness	Contact Depth	Area	Hardness	Reduced Mod.
[#]	[#]	[um]	[s]	[um]	[um]	[um]	[m°]	[m°]	[um]	[uN]	[uN]	[V]	[V]	[V]	[°C]	[uN]	[um]	[N/m]	[°]	[°]	[uN]	[um]	[um]	[um]	[uN]	[N/m]	[um]	[um^2]	[MPa]	[MPa]
797	1.000000	0.002716	7.37285e+06	-39989.1	1055.82	-29791.7	0.000000	0.000000	6.002831	0.003063	NaN	0.000000	0.001578	0.001682	28.0837	0.096828	0.000947	102.264	-14.2017	-166.288	-0.008786	0.001471	-1.162661	-1.163907	0.003063	102.264	-1.162684	-3.474059E+15	-8.815554E-19	NaN
797	1.000000	0.012757	7.37285e+06	-39989.1	1055.82	-29791.7	0.000000	0.000000	6.012869	-0.040702	NaN	0.000000	0.001601	0.001693	28.084	0.093089	0.001358	68.5556	146.337	22.2227	-0.056366	0.011279	-1.152621	-1.154099	-0.040702	68.5556	-1.152176	-2.511821E+15	1.620425E-17	NaN
797	1.000000	0.022640	7.37285e+06	-39989.1	1055.82	-29791.7	0.000000	0.000000	6.022753	-0.017263	NaN	0.000000	0.001591	0.001687	28.0836	0.095356	0.001654	57.6393	-144.706	-164.106	0.053791	0.021328	-1.142738	-1.144050	-0.017263	57.6393	-1.142513	-1.863966E+15	9.261501E-18	NaN
797	1.000000	0.032657	7.37285e+06	-39989.1	1055.82	-29791.7	0.000000	0.000000	6.032772	0.030175	NaN	0.000000	0.001550	0.001661	28.0836	0.030755	0.001953	15.7493	35.2887	14.376	0.086910	0.031262	-1.132721	-1.134116	0.030175	15.7493	-1.134158	-1.440095E+15	-2.095359E-17	NaN
797	1.000000	0.042638	7.37285e+06	-39989.1	1055.82	-29791.7	0.000000	0.000000	6.042749	-0.064193	NaN	0.000000	0.001539	0.001664	28.0836	0.068204	0.001955	34.885	-126.558	-165.238	-0.049357	0.041348	-1.122739	-1.124029	-0.064193	34.885	-1.121359	-9.698602E+14	6.618825E-17	NaN
797	1.000000	0.052650	7.37285e+06	-39989.1	1055.82	-29791.7	0.000000	0.000000	6.052762	-0.053202	NaN	0.000000	0.001585	0.001654	28.0823	0.031938	0.001841	17.353	-156.762	13.0163	0.000929	0.051240	-1.112728	-1.114137	-0.053202	17.353	-1.110428	-6.918903E+14	7.689367E-17	NaN
797	1.000000	0.062648	7.37285e+06	-39989.1	1055.82	-29791.7	0.000000	0.000000	6.062761	-0.031120	NaN	0.000000	0.001581	0.001665	28.0826	0.060750	0.002110	28.7973	-80.4649	-165.122	0.000943	0.061361	-1.102730	-1.104017	-0.031120	28.7973	-1.101919	-5.318994E+14	5.850790E-17	NaN
797	1.000000	0.072634	7.37285e+06	-39989.1	1055.82	-29791.7	0.000000	0.000000	6.072750	0.039176	NaN	0.000000	0.001625	0.001683	28.0828	0.103828	0.001908	54.4264	100.018	14.9741	0.040782	0.071282	-1.092743	-1.094095	0.039176	54.4264	-1.093283	-4.072816E+14	-9.618831E-17	NaN
797	1.000000	0.082682	7.37285e+06	-39989.1	1055.82	-29791.7	0.000000	0.000000	6.082795	-0.016078	NaN	0.000000	0.001599	0.001672	28.0825	0.048950	0.001941	25.216	-85.982	-166.612	-0.054699	0.081382	-1.082696	-1.083996	-0.016078	25.216	-1.082217	-2.892688E+14	5.558126E-17	NaN
797	1.000000	0.092635	7.37285e+06	-39989.1	1055.82	-29791.7	0.000000	0.000000	6.092748	-0.017915	NaN	0.000000	0.001574	0.001655	28.0823	0.095590	0.002068	46.2203	-112.499	12.9383	0.017101	0.091313	-1.072743	-1.074064	-0.017915	46.2203	-1.072452	-2.138621E+14	8.376966E-17	NaN
797	1.000000	0.102652	7.37285e+06	-39989.1	1055.82	-29791.7	0.000000	0.000000	6.102766	-0.008426	NaN	0.000000	0.001557	0.001681	28.0825	0.034445	0.002056	16.7504	176.025	-162.517	-0.001185	0.101342	-1.062725	-1.064036	-0.008426	16.7504	-1.062348	-1.564487E+14	5.385951E-17	NaN
797	1.000000	0.112682	7.37285e+06	-39989.1	1055.82	-29791.7	0.000000	0.000000	6.112797	0.025718	NaN	0.000000	0.001596	0.001671	28.0825	0.012693	0.001986	6.391054	-71.6402	14.9274	0.016504	0.111313	-1.052696	-1.054064	0.025718	6.391054	-1.055714	-1.274132E+14	-2.018503E-16	NaN
797	1.000000	0.122655	7.37285e+06	-39989.1	1055.82	-29791.7	0.000000	0.000000	6.122769	-0.003113	NaN	0.000000	0.001585	0.001693	28.0824	0.081691	0.002096	38.9658	177.336	-167.211	-0.064415	0.121287	-1.042722	-1.044091	-0.003113	38.9658	-1.042662	-8.506786E+13	3.659974E-17	NaN
797	1.000000	0.132679	7.37285e+06	-39989.1	1055.82	-29791.7	0.000000	0.000000	6.132795	0.030004	NaN	0.000000	0.001597	0.001697	28.0823	0.060334	0.001930	31.2648	63.5869	15.2709	0.106410	0.131308	-1.032698	-1.034070	0.030004	31.2648	-1.033418	-6.389266E+13	-4.695985E-16	NaN
797	1.000000	0.142647	7.37285e+06	-39989.1	1055.82	-29791.7	0.000000	0.000000	6.142764	0.068941	NaN	0.000000	0.001573	0.001668	28.0825	0.100507	0.002010	50.0024	-166.208	-165.817	0.056547	0.141298	-1.022731	-1.024079	0.068941	50.0024	-1.023765	-4.738104E+13	-1.455039E-15	NaN
797	1.000000	0.152695	7.37285e+06	-39989.1	1055.82	-29791.7	0.000000	0.000000	6.152809	0.004465	NaN	0.000000	0.001569	0.001684	28.0826	0.174654	0.002116	82.5335	120.346	15.8927	0.056917	0.151369	-1.012683	-1.014008	0.004465	82.5335	-1.012723	-3.365364E+13	-1.326673E-16	NaN
797	1.000000	0.162685	7.37285e+06	-39989.1	1055.82	-29791.7	0.000000	0.000000	6.162802	0.060289	NaN	0.000000	0.001575	0.001689	28.0825	0.033932	0.001976	17.1709	-39.6183	-164.341	0.033007	0.161393	-1.002692	-1.003985	0.060289	17.1709	-1.005326	-2.675871E+13	-2.253071E-15	NaN
797	1.000000	0.172673	7.37285e+06	-39989.1	1055.82	-29791.7	0.000000	0.000000	6.172788	0.013673	NaN	0.000000	0.001581	0.001674	28.0826	0.040777	0.001985	20.5383	158.008	15.1118	-0.014425	0.171304	-0.992705	-0.994074	0.013673	20.5383	-0.993204	-1.837633E+13	-7.440291E-16	NaN
797	1.000000	0.182701	7.37285e+06	-39989.1	1055.82	-29791.7	0.000000	0.000000	6.182816	0.024652	NaN	0.000000	0.001565	0.001678	28.0826	0.045588	0.001817	25.0855	71.3503	-164.988	0.010776	0.181362	-0.982677	-0.984015	0.024652	25.0855	-0.983414	-1.356434E+13	-1.817395E-15	NaN
797	1.000000	0.192696	7.37285e+06	-39989.1	1055.82	-29791.7	0.000000	0.000000	6.192806	-0.097417	NaN	0.000000	0.001581	0.001762	28.0838	0.134835	0.001923	70.1343	44.747	13.8768	-0.075324	0.191272	-0.972681	-0.974105	-0.097417	70.1343	-0.971639	-9.413615E+12	1.034852E-14	NaN
797	1.000000	0.202724	7.37285e+06	-39989.1	1055.82	-29791.7	0.000000	0.000000	6.202836	-0.049061	NaN	0.000000	0.001605	0.001728	28.0838	0.043533	0.002029	21.4539	-114.286	-166.1	-0.079520	0.201402	-0.962654	-0.963976	-0.049061	21.4539	-0.960939	-6.753439E+12	7.264654E-15	NaN
797	1.000000	0.212672	7.37285e+06	-39989.1	1055.82	-29791.7	0.000000	0.000000	6.212787	0.030406	NaN	0.000000	0.001582	0.001661	28.0842	0.025017	0.002001	12.5033	142.36	13.6563	-0.018461	0.211366	-0.952706	-0.954012	0.030406	12.5033	-0.954530	-5.534951E+12	-5.493504E-15	NaN
797	1.000000	0.222721	7.37285e+06	-39989.1	1055.82	-29791.7	0.000000	0.000000	6.222835	-0.009964	NaN	0.000000	0.001569	0.001670	28.0841	0.087799	0.001968	44.617	-152.256	-165.487	0.034370	0.221336	-0.942656	-0.944042	-0.009964	44.617	-0.942489	-3.808125E+12	2.616537E-15	NaN
797	1.000000	0.232717	7.37285e+06	-39989.1	1055.82	-29791.7	0.000000	0.000000	6.232830	-0.025779	NaN	0.000000	0.001612	0.001694	28.0838	0.100145	0.002074	48.2907	16.3719	14.1376	-2.335882E-5	0.231314	-0.932660	-0.934064	-0.025779	48.2907	-0.932260	-2.771373E+12	9.301974E-15	NaN
797	1.000000	0.242680	7.37285e+06	-39989.1	1055.82	-29791.7	0.000000	0.000000	6.242792	-0.025638	NaN	0.000000	0.001559	0.001673	28.0837	0.036753	0.002069	17.7659	68.2714	-166.225	-0.004044	0.241432	-0.922698	-0.923946	-0.025638	17.7659	-0.921616	-1.990767E+12	1.287866E-14	NaN
797	1.000000	0.252724	7.37285e+06	-39989.1	1055.82	-29791.7	0.000000	0.000000	6.252839	0.026227	NaN	0.000000	0.001598	0.001666	28.0837	0.104625	0.002019	51.8243	-27.1105	15.3275	-0.122614	0.251383	-0.912654	-0.913995	0.026227	51.8243	-0.913033	-1.524521E+12	-1.720369E-14	NaN
797	1.000000	0.262704	7.37285e+06	-39989.1	1055.82	-29791.7	0.000000	0.000000	6.262819	0.032776	NaN	0.000000	0.001575	0.001674	28.0837	0.080117	0.001941	41.2775	68.0926	-170.743	0.009260	0.261444	-0.902674	-0.903934	0.032776	41.2775	-0.903269	-1.125220E+12	-2.912869E-14	NaN
797	1.000000	0.272730	7.37285e+06	-39989.1	1055.82	-29791.7	0.000000	0.000000	6.272844	-0.008759	NaN	0.000000	0.001568	0.001679	28.0837	0.098844	0.002096	47.1603	-33.1344	15.1577	-0.084458	0.271371	-0.892647	-0.894006	-0.008759	47.1603	-0.892508	-8.050345E+11	1.088002E-14	NaN
797	1.000000	0.282732	7.37285e+06	-39989.1	1055.82	-29791.7	0.000000	0.000000	6.282846	0.000717	NaN	0.000000	0.001603	0.001710	28.0837	0.041173	0.001924	21.4033	23.736	-168.499	-0.037564	0.281420	-0.882646	-0.883957	0.000717	21.4033	-0.882671	-5.926925E+11	-1.209304E-15	NaN
797	1.000000	0.292726	7.37285e+06	-39989.1	1055.82	-29791.7	0.000000	0.000000	6.292839	-0.013675	NaN	0.000000	0.001575	0.001702	28.0838	0.054371	0.002031	26.7706	-10.45	12.6106	-0.010061	0.291395	-0.872652	-0.873983	-0.013675	26.7706	-0.872269	-4.286861E+11	3.190073E-14	NaN
797	1.000000	0.302747	7.37285e+06	-39989.1	1055.82	-29791.7	0.000000	0.000000	6.302863	0.040918	NaN	0.000000	0.001574	0.001676	28.0837	0.092187	0.001970	46.8062	-15.169	-164.095	0.044126	0.301455	-0.862631	-0.863923	0.040918	46.8062	-0.863286	-3.240401E+11	-1.262748E-13	NaN
797	1.000000	0.312785	7.37285e+06	-39989.1	1055.82	-29791.7	0.000000	0.000000	6.312900	0.021164	NaN	0.000000	0.001614	0.001743	28.0842	0.095458	0.001978	48.2693	-56.3747	14.7774	0.022553	0.311365	-0.852592	-0.854012	0.021164	48.2693	-0.852921	-2.345816E+11	-9.021859E-14	NaN
797	1.000000	0.322727	7.37285e+06	-39989.1	1055.82	-29791.7	0.000000	0.000000	6.322844	0.066371	NaN	0.000000	0.001595	0.001731	28.083	0.099833	0.002007	49.7476	-108.222	-163.235	0.027322	0.321397	-0.842650	-0.843981	0.066371	49.7476	-0.843651	-1.756905E+11	-3.777698E-13	NaN
797	1.000000	0.332726	7.37285e+06	-39989.1	1055.82	-29791.7	0.000000	0.000000	6.332837	-0.056682	NaN	0.000000	0.001599	0.001690	28.0829	0.006447	0.002047	3.149500	169.058	16.2549	-0.078556	0.331409	-0.832652	-0.833969	-0.056682	3.149500	-0.819154	-8.179739E+10	6.929525E-13	NaN
797	1.000000	0.342758	7.37285e+06	-39989.1	1055.82	-29791.7	0.000000	0.000000	6.342871	-0.019652	NaN	0.000000	0.001601	0.001707	28.0826	0.083098	0.002015	41.2482	62.9199	-163.581	0.029704	0.341432	-0.822620	-0.823946	-0.019652	41.2482	-0.822262	-9.013405E+10	2.180346E-13	NaN
797	1.000000	0.352776	7.37285e+06	-39989.1	1055.82	-29791.7	0.000000	0.000000	6.352888	-0.029574	NaN	0.000000	0.001625	0.001696	28.0827	0.110415	0.001969	56.0709	-177.153	16.8945	-0.072744	0.351360	-0.812602	-0.814018	-0.029574	56.0709	-0.812206	-6.584244E+10	4.491581E-13	NaN
797	1.000000	0.362753	7.37285e+06	-39989.1	1055.82	-29791.7	0.000000	0.000000	6.362867	-0.007181	NaN	0.000000	0.001612	0.001702	28.0826	0.081800	0.001836	44.553	32.7428	-163.786	-0.042575	0.361463	-0.802624	-0.803914	-0.007181	44.553	-0.802503	-4.862279E+10	1.476824E-13	NaN
797	1.000000	0.372757	7.37285e+06	-39989.1	1055.82	-29791.7	0.000000	0.000000	6.372870	-0.004160	NaN	0.000000	0.001619	0.001719	28.0835	0.124582	0.001882	66.1926	50.3237	17.2815	0.060041	0.371388	-0.792621	-0.793990	-0.004160	66.1926	-0.792574	-3.564814E+10	1.166912E-13	NaN
797	1.000000	0.382768	7.37285e+06	-39989.1	1055.82	-29791.7	0.000000	0.000000	6.382881	-0.022141	NaN	0.000000	0.001610	0.001694	28.0827	0.074574	0.001899	39.2783	-145.909	-162.909	0.035925	0.381514	-0.782609	-0.783864	-0.022141	39.2783	-0.782187	-2.575988E+10	8.595072E-13	NaN
797	1.000000	0.392764	7.37285e+06	-39989.1	1055.82	-29791.7	0.000000	0.000000	6.392879	0.008701	NaN	0.000000	0.001709	0.001687	28.0825	0.040808	0.002012	20.281	12.9634	13.7306	0.059367	0.391416	-0.772613	-0.773961	0.008701	20.281	-0.772935	-1.928452E+10	-4.511859E-13	NaN
797	1.000000	0.402825	7.37285e+06	-39989.1	1055.82	-29791.7	0.000000	0.000000	6.402940	0.026722	NaN	0.000000	0.001675	0.001704	28.0829	0.045294	0.002022	22.4013	-116.479	-162.952	0.133339	0.401487	-0.762553	-0.763891	0.026722	22.4013	-0.763448	-1.432849E+10	-1.864976E-12	NaN
797	1.000000	0.412781	7.37285e+06	-39989.1	1055.82	-29791.7	0.000000	0.000000	6.412892	-0.081518	NaN	0.000000	0.001693	0.001671	28.0831	0.053372	0.001874	28.4771	-129.256	16.3196	-0.002539	0.411455	-0.752596	-0.753922	-0.081518	28.4771	-0.750450	-9.535406E+9	8.548989E-12	NaN
797	1.000000	0.422785	7.37285e+06	-39989.1	1055.82	-29791.7	0.000000	0.000000	6.422900	0.029857	NaN	0.000000	0.001660	0.001660	28.0828	0.123273	0.001986	62.0721	39.9066	-165.324	0.005272	0.421536	-0.742593	-0.743842	0.029857	62.0721	-0.742953	-7.538393E+9	-3.960650E-12	NaN
797	1.000000	0.432784	7.37285e+06	-39989.1	1055.82	-29791.7	0.000000	0.000000	6.432899	0.022496	NaN	0.000000	0.001575	0.001737	28.0827	0.066603	0.002003	33.2492	-134.32	11.2831	-0.029938	0.431466	-0.732593	-0.733912	0.022496	33.2492	-0.733101	-5.534298E+9	-4.064808E-12	NaN
797	1.000000	0.442799	7.37285e+06	-39989.1	1055.82	-29791.7	0.000000	0.000000	6.442913	0.000475	NaN	0.000000	0.001573	0.001713	28.0833	0.014063	0.002120	6.633625	-149.585	-163.994	0.006714	0.441453	-0.722579	-0.723924	0.000475	6.633625	-0.722632	-3.984462E+9	-1.192137E-13	NaN
797	1.000000	0.452789	7.37285e+06	-39989.1	1055.82	-29791.7	0.000000	0.000000	6.452902	-0.031811	NaN	0.000000	0.001553	0.001704	28.0827	0.068638	0.001874	36.6358	-134.188	12.0886	0.008819	0.451460	-0.712588	-0.713918	-0.031811	36.6358	-0.711937	-2.847626E+9	1.117105E-11	NaN
797	1.000000	0.462827	7.37285e+06	-39989.1	1055.82	-29791.7	0.000000	0.000000	6.462939	-0.040556	NaN	0.000000	0.001590	0.001716	28.0841	0.144662	0.001917	75.4573	33.8196	-166.038	0.041040	0.461476	-0.702551	-0.703901	-0.040556	75.4573	-0.702147	-2.093415E+9	1.937315E-11	NaN
797	1.000000	0.472825	7.37285e+06	-39989.1	1055.82	-29791.7	0.000000	0.000000	6.472938	-0.012815	NaN	0.000000	0.001590	0.001754	28.084	0.053834	0.002004	26.8625	-1.045273	14.3684	-0.022054	0.471468	-0.692553	-0.693909	-0.012815	26.8625	-0.692195	-1.530785E+9	8.371305E-12	NaN
797	1.000000	0.482787	7.37285e+06	-39989.1	1055.82	-29791.7	0.000000	0.000000	6.482902	0.031319	NaN	0.000000	0.001603	0.001731	28.0839	0.044824	0.002003	22.3819	-105.196	-163.432	-0.064816	0.481522	-0.682591	-0.683856	0.031319	22.3819	-0.683640	-1.169459E+9	-2.678101E-11	NaN
797	1.000000	0.492815	7.37285e+06	-39989.1	1055.82	-29791.7	0.000000	0.000000	6.492927	-0.044637	NaN	0.000000	0.001574	0.001732	28.0838	0.030750	0.002087	14.731	-31.3292	15.0629	-0.014674	0.491449	-0.672563	-0.673928	-0.044637	14.731	-0.670290	-7.680023E+8	5.812110E-11	NaN
797	1.000000	0.502851	7.37285e+06	-39989.1	1055.82	-29791.7	0.000000	0.000000	6.502968	0.080052	NaN	0.000000	0.001563	0.001695	28.0839	0.133789	0.001986	67.3607	-62.3699	-167.508	-0.001339	0.501530	-0.662527	-0.663848	0.080052	67.3607	-0.663418	-6.184173E+8	-1.294463E-10	NaN
797	1.000000	0.512827	7.37285e+06	-39989.1	1055.82	-29791.7	0.000000	0.000000	6.512939	-0.046292	NaN	0.000000	0.001569	0.001707	28.084	0.060106	0.002101	28.6132	-90.1723	16.9407	-0.036982	0.511449	-0.652550	-0.653929	-0.046292	28.6132	-0.651337	-4.224365E+8	1.095824E-10	NaN
797	1.000000	0.522809	7.37285e+06	-39989.1	1055.82	-29791.7	0.000000	0.000000	6.522922	-0.029064	NaN	0.000000	0.001580	0.001693	28.084	0.068616	0.001928	35.5973	148.299	-167.559	0.020238	0.521503	-0.642569	-0.643875	-0.029064	35.5973	-0.641956	-3.141443E+8	9.251857E-11	NaN
797	1.000000	0.532875	7.37285e+06	-39989.1	1055.82	-29791.7	0.000000	0.000000	6.532989	0.016255	NaN	0.000000	0.001607	0.001702	28.084	0.020233	0.002066	9.793805	-179.992	18.1642	0.017742	0.531454	-0.632503	-0.633923	0.016255	9.793805	-0.633748	-2.423712E+8	-6.706838E-11	NaN
797	1.000000	0.542842	7.37285e+06	-39989.1	1055.82	-29791.7	0.000000	0.000000	6.542956	0.015519	NaN	0.000000	0.001610	0.001733	28.084	0.074065	0.002101	35.2585	88.7996	-164	0.004524	0.541514	-0.622536	-0.623863	0.015519	35.2585	-0.622866	-1.718007E+8	-9.033220E-11	NaN
797	1.000000	0.552838	7.37285e+06	-39989.1	1055.82	-29791.7	0.000000	0.000000	6.552951	-0.008669	NaN	0.000000	0.001571	0.001727	28.0843	0.111976	0.002027	55.253	60.053	13.011	0.042790	0.551485	-0.612540	-0.613892	-0.008669	55.253	-0.612422	-1.234345E+8	7.023071E-11	NaN
797	1.000000	0.562824	7.37285e+06	-39989.1	1055.82	-29791.7	0.000000	0.000000	6.562936	-0.029838	NaN	0.000000	0.001621	0.001770	28.084	0.069805	0.002058	33.9254	-127.131	-166.432	-0.023748	0.561483	-0.602554	-0.603895	-0.029838	33.9254	-0.601894	-8.841953E+7	3.374624E-10	NaN
797	1.000000	0.572857	7.37285e+06	-39989.1	1055.82	-29791.7	0.000000	0.000000	6.572969	-0.024474	NaN	0.000000	0.001582	0.001760	28.084	0.083117	0.001914	43.4213	170.018	12.2524	-0.026561	0.571494	-0.592521	-0.593883	-0.024474	43.4213	-0.592098	-6.480258E+7	3.776751E-10	NaN
797	1.000000	0.582859	7.37285e+06	-39989.1	1055.82	-29791.7	0.000000	0.000000	6.582976	0.067933	NaN	0.000000	0.001583	0.001783	28.0839	0.091963	0.001871	49.1539	-29.3512	-165.478	0.018121	0.581520	-0.582518	-0.583858	0.067933	49.1539	-0.583555	-4.940569E+7	-1.374994E-9	NaN
797	1.000000	0.592882	7.37285e+06	-39989.1	1055.82	-29791.7	0.000000	0.000000	6.592993	-0.066135	NaN	0.000000	0.001613	0.001766	28.0841	0.039228	0.002108	18.6057	54.0065	13.1912	-0.038200	0.591512	-0.572495	-0.573866	-0.066135	18.6057	-0.569830	-3.193574E+7	2.070868E-9	NaN
797	1.000000	0.602835	7.37285e+06	-39989.1	1055.82	-29791.7	0.000000	0.000000	6.602948	-0.016589	NaN	0.000000	0.001605	0.001831	28.0828	0.060771	0.001913	31.7595	-42.4501	-164.563	-0.053838	0.601542	-0.562543	-0.563836	-0.016589	31.7595	-0.562151	-2.501111E+7	6.632540E-10	NaN
797	1.000000	0.612874	7.37285e+06	-39989.1	1055.82	-29791.7	0.000000	0.000000	6.612988	-0.007008	NaN	0.000000	0.001591	0.001835	28.083	0.047832	0.001988	24.055	-66.0023	15.665	-0.035499	0.611518	-0.552503	-0.553860	-0.007008	24.055	-0.552285	-1.826415E+7	3.837029E-10	NaN
797	1.000000	0.622873	7.37285e+06	-39989.1	1055.82	-29791.7	0.000000	0.000000	6.622988	0.029510	NaN	0.000000	0.001578	0.001775	28.0829	0.025260	0.002055	12.2911	-111.643	-166.028	0.003340	0.621557	-0.542505	-0.543821	0.029510	12.2911	-0.544305	-1.415962E+7	-2.084085E-9	NaN
797	1.000000	0.632887	7.37285e+06	-39989.1	1055.82	-29791.7	0.000000	0.000000	6.633003	0.038340	NaN	0.000000	0.001598	0.001767	28.0829	0.011571	0.001946	5.944476	87.6069	12.5784	-0.021809	0.631464	-0.532490	-0.533914	0.038340	5.944476	-0.537328	-1.133152E+7	-3.383476E-9	NaN
797	1.000000	0.642888	7.37285e+06	-39989.1	1055.82	-29791.7	0.000000	0.000000	6.643003	0.038627	NaN	0.000000	0.001558	0.001772	28.0828	0.122763	0.002054	59.7691	5.024647	-163.348	0.023583	0.641548	-0.522490	-0.523830	0.038627	59.7691	-0.522975	-7.16075e+06	-5.394227E-9	NaN
797	1.000000	0.652905	7.37285e+06	-39989.1	1055.82	-29791.7	0.000000	0.000000	6.653016	-0.055416	NaN	0.000000	0.001573	0.001800	28.0827	0.002770	0.001988	1.393307	50.5013	15.1356	-0.044928	0.651541	-0.512473	-0.513836	-0.055416	1.393307	-0.482643	-1.9612e+06	2.825604E-8	NaN
797	1.000000	0.662911	7.37285e+06	-39989.1	1055.82	-29791.7	0.000000	0.000000	6.663026	0.032063	NaN	0.000000	0.001566	0.001797	28.0831	0.101102	0.001942	52.0689	-169.92	-164.31	0.023817	0.661585	-0.502467	-0.503792	0.032063	52.0689	-0.502929	-3.7659e+06	-8.513972E-9	NaN
797	1.000000	0.672890	7.37285e+06	-39989.1	1055.82	-29791.7	0.000000	0.000000	6.673002	-0.040954	NaN	0.000000	0.001551	0.001814	28.0829	0.046874	0.001990	23.551	-4.261105	12.3765	0.021409	0.671518	-0.492488	-0.493859	-0.040954	23.551	-0.491184	-2.58187e+06	1.586225E-8	NaN
797	1.000000	0.682914	7.37285e+06	-39989.1	1055.82	-29791.7	0.000000	0.000000	6.683028	0.005950	NaN	0.000000	0.001542	0.001814	28.0831	0.062601	0.002030	30.8437	10.8724	-165.181	0.028183	0.681604	-0.482464	-0.483774	0.005950	30.8437	-0.482609	-1.95901e+06	-3.037405E-9	NaN
797	1.000000	0.692902	7.37285e+06	-39989.1	1055.82	-29791.7	0.000000	0.000000	6.693015	-0.019903	NaN	0.000000	0.001566	0.001834	28.083	0.122494	0.002072	59.1189	152.502	14.6373	-0.091716	0.691578	-0.472476	-0.473800	-0.019903	59.1189	-0.472223	-1.40145e+06	1.420175E-8	NaN
797	1.000000	0.702914	7.37285e+06	-39989.1	1055.82	-29791.7	0.000000	0.000000	6.703027	-0.032033	NaN	0.000000	0.001554	0.001824	28.0829	0.010506	0.001940	5.414959	141.224	-164.687	-0.069651	0.701614	-0.462464	-0.463763	-0.032033	5.414959	-0.458027	-885696	3.616706E-8	NaN
797	1.000000	0.712908	7.37285e+06	-39989.1	1055.82	-29791.7	0.000000	0.000000	6.713023	0.026012	NaN	0.000000	0.001609	0.001789	28.083	0.099111	0.002094	47.3206	179.088	15.1356	0.098712	0.711535	-0.452470	-0.453842	0.026012	47.3206	-0.452882	-749755	-3.469370E-8	NaN
797	1.000000	0.722917	7.37285e+06	-39989.1	1055.82	-29791.7	0.000000	0.000000	6.723032	0.032452	NaN	0.000000	0.001606	0.001830	28.0828	0.037898	0.002071	18.2998	-49.5403	-164.455	-0.031747	0.721626	-0.442461	-0.443751	0.032452	18.2998	-0.443791	-558274	-5.812945E-8	NaN
797	1.000000	0.732926	7.37285e+06	-39989.1	1055.82	-29791.7	0.000000	0.000000	6.733039	-0.013726	NaN	0.000000	0.001591	0.001786	28.0844	0.099780	0.001979	50.4088	-96.3293	16.9986	-0.022596	0.731601	-0.432452	-0.433777	-0.013726	50.4088	-0.432248	-383574	3.578342E-8	NaN
797	1.000000	0.742919	7.37285e+06	-39989.1	1055.82	-29791.7	0.000000	0.000000	6.743032	-0.043636	NaN	0.000000	0.001594	0.001764	28.0839	0.063037	0.002012	31.3258	-150.112	-165.699	-0.110462	0.741639	-0.422458	-0.423738	-0.043636	31.3258	-0.421414	-269438	1.619508E-7	NaN
797	1.000000	0.752930	7.37285e+06	-39989.1	1055.82	-29791.7	0.000000	0.000000	6.753042	-0.057127	NaN	0.000000	0.001566	0.001757	28.0841	0.112846	0.001869	60.3636	-73.0924	13.081	-0.007094	0.751558	-0.412447	-0.413819	-0.057127	60.3636	-0.411738	-196384	2.908960E-7	NaN
797	1.000000	0.762905	7.37285e+06	-39989.1	1055.82	-29791.7	0.000000	0.000000	6.763016	-0.051477	NaN	0.000000	0.001628	0.001805	28.0839	0.088387	0.001863	47.4333	-170.375	-168.588	-0.004220	0.761631	-0.402473	-0.403746	-0.051477	47.4333	-0.401659	-141139	3.647263E-7	NaN
797	1.000000	0.772960	7.37285e+06	-39989.1	1055.82	-29791.7	0.000000	0.000000	6.773072	-0.059555	NaN	0.000000	0.001588	0.001824	28.0842	0.128031	0.002151	59.519	136.699	15.947	-0.030354	0.771588	-0.392417	-0.393789	-0.059555	59.519	-0.391667	-101626	5.860216E-7	NaN
797	1.000000	0.782956	7.37285e+06	-39989.1	1055.82	-29791.7	0.000000	0.000000	6.783070	-0.000310	NaN	0.000000	0.001581	0.001762	28.0838	0.091738	0.002040	44.9728	97.284	-164.657	0.002725	0.781621	-0.382422	-0.383757	-0.000310	44.9728	-0.382417	-74912.9	4.142789E-9	NaN
797	1.000000	0.792945	7.37285e+06	-39989.1	1055.82	-29791.7	0.000000	0.000000	6.793059	0.014594	NaN	0.000000	0.001575	0.001809	28.0837	0.031355	0.001959	16.0078	12.6784	11.3537	-0.002456	0.791557	-0.372433	-0.373821	0.014594	16.0078	-0.373117	-55079.2	-2.649596E-7	NaN
797	1.000000	0.802943	7.37285e+06	-39989.1	1055.82	-29791.7	0.000000	0.000000	6.803054	-0.069349	NaN	0.000000	0.001582	0.001800	28.0841	0.098358	0.002088	47.1152	129.148	-166.733	-0.042435	0.801619	-0.362434	-0.363759	-0.069349	47.1152	-0.361330	-37245.4	1.861952E-6	NaN
797	1.000000	0.812976	7.37285e+06	-39989.1	1055.82	-29791.7	0.000000	0.000000	6.813088	-0.045672	NaN	0.000000	0.001577	0.001817	28.0841	0.151442	0.002130	71.113	35.2165	12.8867	0.032230	0.811598	-0.352402	-0.353780	-0.045672	71.113	-0.351920	-27218.3	1.677989E-6	NaN
797	1.000000	0.822961	7.37285e+06	-39989.1	1055.82	-29791.7	0.000000	0.000000	6.823073	-0.042080	NaN	0.000000	0.001614	0.001795	28.0839	0.099401	0.002058	48.2996	-6.891945	-166.115	-0.011188	0.821713	-0.342417	-0.343664	-0.042080	48.2996	-0.341763	-19375.2	2.171870E-6	NaN
797	1.000000	0.832947	7.37285e+06	-39989.1	1055.82	-29791.7	0.000000	0.000000	6.833058	-0.070602	NaN	0.000000	0.001587	0.001796	28.0839	0.070161	0.001936	36.2389	140.978	15.9915	-0.082539	0.831592	-0.332431	-0.333786	-0.070602	36.2389	-0.330970	-13478.7	5.238036E-6	NaN
797	1.000000	0.842949	7.37285e+06	-39989.1	1055.82	-29791.7	0.000000	0.000000	6.843064	0.024823	NaN	0.000000	0.001579	0.001774	28.0841	0.027969	0.002067	13.5299	-81.8141	-163.921	0.071405	0.841647	-0.322429	-0.323730	0.024823	13.5299	-0.323805	-10582.5	-2.345690E-6	NaN
797	1.000000	0.852972	7.37285e+06	-39989.1	1055.82	-29791.7	0.000000	0.000000	6.853085	-0.024543	NaN	0.000000	0.001558	0.001795	28.0839	0.129410	0.001962	65.9457	24.2478	13.2647	-0.039419	0.851567	-0.312405	-0.313810	-0.024543	65.9457	-0.312126	-7120.32	3.446827E-6	NaN
797	1.000000	0.862969	7.37285e+06	-39989.1	1055.82	-29791.7	0.000000	0.000000	6.863082	-0.029664	NaN	0.000000	0.001587	0.001789	28.0837	0.166446	0.002079	80.0489	-39.687	-164.77	0.024606	0.861601	-0.302409	-0.303777	-0.029664	80.0489	-0.302131	-5062.13	5.859998E-6	NaN
797	1.000000	0.872973	7.37285e+06	-39989.1	1055.82	-29791.7	0.000000	0.000000	6.873086	-0.003551	NaN	0.000000	0.001551	0.001796	28.0826	0.041041	0.001929	21.2799	-59.7302	13.1846	-0.007901	0.871613	-0.292405	-0.293764	-0.003551	21.2799	-0.292280	-3609.37	9.838839E-7	NaN
797	1.000000	0.882984	7.37285e+06	-39989.1	1055.82	-29791.7	0.000000	0.000000	6.883097	-0.037680	NaN	0.000000	0.001623	0.001785	28.0826	0.025678	0.002064	12.4395	153.161	-164.599	-0.025412	0.881648	-0.282393	-0.283730	-0.037680	12.4395	-0.280122	-2370.31	1.589651E-5	NaN
797	1.000000	0.892986	7.37285e+06	-39989.1	1055.82	-29791.7	0.000000	0.000000	6.893099	-0.017698	NaN	0.000000	0.001604	0.001795	28.0826	0.091094	0.001923	47.3789	-114.909	12.7988	0.028331	0.891590	-0.272392	-0.273788	-0.017698	47.3789	-0.272112	-1793.16	9.869820E-6	NaN
797	1.000000	0.902996	7.37285e+06	-39989.1	1055.82	-29791.7	0.000000	0.000000	6.903107	-0.065002	NaN	0.000000	0.001579	0.001791	28.0823	0.002285	0.002035	1.122816	-104.162	-166.602	-0.005903	0.901699	-0.262382	-0.263679	-0.065002	1.122816	-0.218962	-267.353	0.000243	NaN
797	1.000000	0.912992	7.37285e+06	-39989.1	1055.82	-29791.7	0.000000	0.000000	6.913108	0.054416	NaN	0.000000	0.001577	0.001788	28.0827	0.133869	0.002023	66.1831	-54.2393	15.1963	0.025808	0.911624	-0.252386	-0.253753	0.054416	66.1831	-0.253003	-914.826	-5.948239E-5	NaN
797	1.000000	0.922999	7.37285e+06	-39989.1	1055.82	-29791.7	0.000000	0.000000	6.923114	0.023371	NaN	0.000000	0.001609	0.001730	28.0825	0.128520	0.001965	65.418	-92.8107	-162.494	-0.020566	0.921682	-0.242378	-0.243696	0.023371	65.418	-0.242646	-632.164	-3.697062E-5	NaN
797	1.000000	0.933007	7.37285e+06	-39989.1	1055.82	-29791.7	0.000000	0.000000	6.933120	-0.013976	NaN	0.000000	0.001581	0.001783	28.0823	0.070190	0.001978	35.4936	-120.322	14.6385	0.031797	0.931681	-0.232371	-0.233697	-0.013976	35.4936	-0.232076	-431.772	3.236889E-5	NaN
797	1.000000	0.943047	7.37285e+06	-39989.1	1055.82	-29791.7	0.000000	0.000000	6.943160	-0.011026	NaN	0.000000	0.001600	0.001806	28.0823	0.058230	0.002033	28.6377	-169.021	-165.004	-0.050790	0.941734	-0.222331	-0.223644	-0.011026	28.6377	-0.222042	-299.411	3.682434E-5	NaN
797	1.000000	0.953021	7.37286e+06	-39989.1	1055.82	-29791.7	0.000000	0.000000	6.953135	0.016461	NaN	0.000000	0.001549	0.001807	28.0824	0.066926	0.002058	32.5213	-18.2326	16.2296	-0.026352	0.951647	-0.212357	-0.213730	0.016461	32.5213	-0.212736	-212.349	-7.751633E-5	NaN
797	1.000000	0.963012	7.37286e+06	-39989.1	1055.82	-29791.7	0.000000	0.000000	6.963126	-0.008492	NaN	0.000000	0.001601	0.001801	28.0826	0.064221	0.002002	32.0801	-176.597	-162.032	-0.025580	0.961712	-0.202365	-0.203666	-0.008492	32.0801	-0.202167	-142.971	5.939361E-5	NaN
797	1.000000	0.973032	7.37286e+06	-39989.1	1055.82	-29791.7	0.000000	0.000000	6.973148	0.060631	NaN	0.000000	0.001578	0.001757	28.0823	0.108972	0.002140	50.9239	-129.395	14.3432	0.058800	0.971652	-0.192346	-0.193726	0.060631	50.9239	-0.193239	-101.855	-0.000595	NaN
797	1.000000	0.983051	7.37286e+06	-39989.1	1055.82	-29791.7	0.000000	0.000000	6.983164	-0.009839	NaN	0.000000	0.001554	0.001766	28.0828	0.084887	0.002002	42.3987	95.105	-170.757	-0.029717	0.981717	-0.182327	-0.183660	-0.009839	42.3987	-0.182153	-66.3774	0.000148	NaN
797	1.000000	0.993032	7.37286e+06	-39989.1	1055.82	-29791.7	0.000000	0.000000	6.993146	0.006692	NaN	0.000000	0.001605	0.001776	28.0823	0.028218	0.001957	14.416	83.1094	12.9539	-0.020577	0.991656	-0.172346	-0.173721	0.006692	14.416	-0.172694	-45.7359	-0.000146	NaN
797	1.000000	1.003030	7.37286e+06	-39989.1	1055.82	-29791.7	0.000000	0.000000	7.003147	0.066872	NaN	0.000000	0.001571	0.001801	28.0823	0.022435	0.001980	11.3285	-124.292	-163.101	0.085521	1.001684	-0.162347	-0.163694	0.066872	11.3285	-0.166775	-36.0914	-0.001853	NaN
797	1.000000	1.013022	7.37286e+06	-39989.1	1055.82	-29791.7	0.000000	0.000000	7.013136	0.001994	NaN	0.000000	0.001566	0.001769	28.0839	0.089225	0.001945	45.865	175.056	15.0645	0.049919	1.011666	-0.152356	-0.153712	0.001994	45.865	-0.152389	-20.0182	-9.958771E-5	NaN
797	1.000000	1.023056	7.37286e+06	-39989.1	1055.82	-29791.7	0.000000	0.000000	7.023170	-0.005458	NaN	0.000000	0.001591	0.001747	28.0839	0.010201	0.002179	4.681617	-148.464	-166.454	-0.072962	1.021762	-0.142322	-0.143616	-0.005458	4.681617	-0.141447	-12.5918	0.000433	NaN
797	1.000000	1.033035	7.37286e+06	-39989.1	1055.82	-29791.7	0.000000	0.000000	7.033147	-0.059507	NaN	0.000000	0.001617	0.001768	28.0834	0.028051	0.001996	14.0534	-35.1818	14.7391	-0.044709	1.031649	-0.132342	-0.133729	-0.059507	14.0534	-0.129167	-7.341721	0.008105	NaN
797	1.000000	1.043011	7.37286e+06	-39989.1	1055.82	-29791.7	0.000000	0.000000	7.043123	-0.031043	NaN	0.000000	0.001608	0.001784	28.0837	0.089528	0.002085	42.9363	150.885	-163.452	-0.066823	1.041768	-0.122367	-0.123609	-0.031043	42.9363	-0.121825	-5.257463	0.005905	NaN
797	1.000000	1.053062	7.37286e+06	-39989.1	1055.82	-29791.7	0.000000	0.000000	7.053177	0.023158	NaN	0.000000	0.001573	0.001791	28.0836	0.052804	0.001913	27.5982	-177.894	16.3396	0.026472	1.051682	-0.112315	-0.113695	0.023158	27.5982	-0.112944	-3.463687	-0.006686	NaN
797	1.000000	1.063069	7.37286e+06	-39989.1	1055.82	-29791.7	0.000000	0.000000	7.063182	-0.026904	NaN	0.000000	0.001584	0.001792	28.0837	0.049427	0.002031	24.3326	16.2024	-164.391	0.017532	1.061678	-0.102309	-0.103700	-0.026904	24.3326	-0.101479	-1.969866	0.013658	NaN
797	1.000000	1.073077	7.37286e+06	-39989.1	1055.82	-29791.7	0.000000	0.000000	7.073190	-0.031682	NaN	0.000000	0.001600	0.001776	28.0837	0.091849	0.001901	48.3071	30.7451	13.3581	-0.118834	1.071719	-0.092300	-0.093659	-0.031682	48.3071	-0.091808	-1.191296	0.026595	NaN
797	1.000000	1.083080	7.37286e+06	-39989.1	1055.82	-29791.7	0.000000	0.000000	7.083194	0.006689	NaN	0.000000	0.001584	0.001760	28.0835	0.066252	0.002045	32.4039	94.8672	-163.456	-0.097599	1.081705	-0.082297	-0.083673	0.006689	32.4039	-0.082452	-0.712050	-0.009395	NaN
797	1.000000	1.093064	7.37286e+06	-39989.1	1055.82	-29791.7	0.000000	0.000000	7.093178	-0.002589	NaN	0.000000	0.001588	0.001737	28.0838	0.203790	0.002075	98.2059	166.327	17.4937	0.058302	1.091695	-0.072313	-0.073683	-0.002589	98.2059	-0.072293	-0.392500	0.006595	NaN
797	1.000000	1.103064	7.37286e+06	-39989.1	1055.82	-29791.7	0.000000	0.000000	7.103181	0.078109	NaN	0.000000	0.001605	0.001735	28.0837	0.015757	0.002027	7.772604	-100.947	-168.07	0.116359	1.101768	-0.062314	-0.063609	0.078109	7.772604	-0.069851	-0.337984	-0.231103	NaN
797	1.000000	1.113051	7.37286e+06	-39989.1	1055.82	-29791.7	0.000000	0.000000	7.113163	-0.028153	NaN	0.000000	0.001585	0.001740	28.0837	0.097804	0.001947	50.2236	42.5113	15.0626	-0.027215	1.111729	-0.052327	-0.053649	-0.028153	50.2236	-0.051907	-0.104156	0.270300	NaN
797	1.000000	1.123059	7.37286e+06	-39989.1	1055.82	-29791.7	0.000000	0.000000	7.123170	-0.080225	NaN	0.000000	0.001582	0.001761	28.0836	0.087911	0.002045	42.9979	13.294	-165.456	-0.137230	1.121825	-0.042318	-0.043553	-0.080225	42.9979	-0.040919	-0.048229	1.663433	NaN
797	1.000000	1.133053	7.37286e+06	-39989.1	1055.82	-29791.7	0.000000	0.000000	7.133164	-0.058385	NaN	0.000000	0.001589	0.001752	28.0839	0.108652	0.002016	53.8871	87.2193	11.8597	-0.025759	1.131732	-0.032325	-0.033646	-0.058385	53.8871	-0.031512	-0.025382	2.300287	NaN
797	1.000000	1.143076	7.37286e+06	-39989.1	1055.82	-29791.7	0.000000	0.000000	7.143188	-0.032911	NaN	0.000000	0.001608	0.001755	28.0824	0.039051	0.002035	19.1854	84.9916	-166.004	-0.166902	1.141771	-0.022302	-0.023606	-0.032911	19.1854	-0.021015	-0.013330	2.468993	NaN
797	1.000000	1.153081	7.37286e+06	-39989.1	1055.82	-29791.7	0.000000	0.000000	7.153196	0.022111	NaN	0.000000	0.001585	0.001763	28.0826	0.048087	0.001873	25.6752	-107.232	14.4464	-0.030427	1.151714	-0.012296	-0.013664	0.022111	25.6752	-0.012942	-0.008069	-2.740207	NaN
797	1.000000	1.163100	7.37286e+06	-39989.1	1055.82	-29791.7	0.000000	0.000000	7.163227	0.310433	NaN	0.000000	0.001587	0.001792	28.0828	0.610802	0.002000	305.45	12.363	-166.219	-0.009660	1.161756	-0.002277	-0.003622	0.310433	305.45	-0.003040	-0.002147	-144.585	NaN
797	2.000000	1.172155	7.37286e+06	-39989.1	1055.82	-29791.7	0.000000	0.000000	7.172609	8.268849	NaN	0.000000	0.001558	0.001786	28.0828	8.000072	0.001784	4483.98	12.0166	6.439418	7.723522	1.171569	0.006777	0.006192	8.268849	4483.98	0.005394	0.004496	1839.13	61097.1
797	2.000000	1.174664	7.37286e+06	-39989.1	1055.82	-29791.7	0.000000	0.000000	7.175234	11.0845	NaN	0.000000	0.001576	0.001777	28.0825	9.937713	0.001636	6075.41	8.689988	-176.28	11.0917	1.174394	0.009287	0.009017	11.0845	6075.41	0.007918	0.006959	1592.93	66540.8
797	2.000000	1.177142	7.37286e+06	-39989.1	1055.82	-29791.7	0.000000	0.000000	7.177871	14.962	NaN	0.000000	0.001584	0.001761	28.0831	12.749	0.001785	7142.23	5.164569	5.721734	13.8222	1.176789	0.011765	0.011411	14.962	7142.23	0.010193	0.009397	1592.16	67314.1
797	2.000000	1.179630	7.37286e+06	-39989.1	1055.82	-29791.7	0.000000	0.000000	7.180610	21.0768	NaN	0.000000	0.001584	0.001753	28.0829	15.3087	0.001789	8555.86	4.070435	-173.047	20.719	1.179337	0.014252	0.013959	21.0768	8555.86	0.012405	0.011978	1759.58	71423.2
797	2.000000	1.182155	7.37286e+06	-39989.1	1055.82	-29791.7	0.000000	0.000000	7.183295	24.9501	NaN	0.000000	0.001528	0.001749	28.0833	17.2395	0.001775	9710.79	5.319038	4.972812	23.4219	1.181750	0.016778	0.016372	24.9501	9710.79	0.014851	0.015087	1653.75	72231.5
797	2.000000	1.184601	7.37286e+06	-39989.1	1055.82	-29791.7	0.000000	0.000000	7.185997	31.1848	NaN	0.000000	0.001570	0.001751	28.0825	20.0988	0.001933	10398	6.026418	-177.213	29.8219	1.184329	0.019224	0.018951	31.1848	10398	0.016974	0.018009	1731.64	70791
797	2.000000	1.187124	7.37286e+06	-39989.1	1055.82	-29791.7	0.000000	0.000000	7.188728	36.27	NaN	0.000000	0.001581	0.001747	28.0828	21.5899	0.001723	12527.5	0.957114	6.733976	35.3029	1.186703	0.021746	0.021326	36.27	12527.5	0.019575	0.021878	1657.79	77380.1
797	2.000000	1.189592	7.37286e+06	-39989.1	1055.82	-29791.7	0.000000	0.000000	7.191548	44.8178	NaN	0.000000	0.001567	0.001706	28.0826	24.5795	0.001866	13175.6	3.466817	-176.327	43.3078	1.189269	0.024215	0.023891	44.8178	13175.6	0.021663	0.025224	1776.8	75794.2
797	2.000000	1.192157	7.37286e+06	-39989.1	1055.82	-29791.7	0.000000	0.000000	7.194358	50.7795	NaN	0.000000	0.001556	0.001734	28.0831	26.8167	0.001754	15292.5	8.556721	-2.177502	50.1549	1.191681	0.026780	0.026304	50.7795	15292.5	0.024289	0.029735	1707.72	81024.4
797	2.000000	1.194563	7.37286e+06	-39989.1	1055.82	-29791.7	0.000000	0.000000	7.197110	59.2133	NaN	0.000000	0.001612	0.001744	28.0823	28.9537	0.001766	16392.9	7.730416	176.293	57.3815	1.194335	0.029186	0.028957	59.2133	16392.9	0.026476	0.033756	1754.13	81517.5
797	2.000000	1.197069	7.37286e+06	-39989.1	1055.82	-29791.7	0.000000	0.000000	7.199928	66.8143	NaN	0.000000	0.001633	0.001749	28.083	30.7807	0.001688	18231.1	4.702582	-0.407507	65.262	1.196649	0.031691	0.031272	66.8143	18231.1	0.028942	0.038580	1731.84	84801.6
797	2.000000	1.199561	7.37286e+06	-39989.1	1055.82	-29791.7	0.000000	0.000000	7.202729	74.3147	NaN	0.000000	0.001642	0.001777	28.0839	34.5241	0.001842	18746.1	6.376890	177.345	73.8312	1.199288	0.034184	0.033911	74.3147	18746.1	0.031211	0.043290	1716.66	82316.6
797	2.000000	1.202074	7.37286e+06	-39989.1	1055.82	-29791.7	0.000000	0.000000	7.205604	83.1103	NaN	0.000000	0.001622	0.001751	28.0838	35.8792	0.001849	19408.5	5.048553	-0.967809	80.9278	1.201679	0.036697	0.036301	83.1103	19408.5	0.033485	0.048277	1721.52	80703.9
797	2.000000	1.204520	7.37286e+06	-39989.1	1055.82	-29791.7	0.000000	0.000000	7.208528	94.7438	NaN	0.000000	0.001608	0.001777	28.0836	37.7839	0.001803	20960	2.509548	-179.82	92.6537	1.204253	0.039143	0.038876	94.7438	20960	0.035752	0.053512	1770.5	82782.3
797	2.000000	1.207098	7.37286e+06	-39989.1	1055.82	-29791.7	0.000000	0.000000	7.211555	105.691	NaN	0.000000	0.001661	0.001746	28.0841	41.0131	0.001830	22412.4	7.716800	-4.920361	106.615	1.206707	0.041720	0.041329	105.691	22412.4	0.038184	0.059419	1778.75	84004
797	2.000000	1.209547	7.37286e+06	-39989.1	1055.82	-29791.7	0.000000	0.000000	7.214332	113.671	NaN	0.000000	0.001660	0.001763	28.0836	42.742	0.001854	23051.6	3.616308	178.031	112.508	1.209280	0.044169	0.043903	113.671	23051.6	0.040471	0.065251	1742.06	82448.2
797	2.000000	1.212040	7.37286e+06	-39989.1	1055.82	-29791.7	0.000000	0.000000	7.217355	126.565	NaN	0.000000	0.001663	0.001776	28.0839	45.2724	0.001905	23760.2	7.395726	-5.495736	123.135	1.211660	0.046662	0.046282	126.565	23760.2	0.042667	0.071102	1780.05	81410.6
797	2.000000	1.214556	7.37286e+06	-39989.1	1055.82	-29791.7	0.000000	0.000000	7.220281	136.541	NaN	0.000000	0.001675	0.001780	28.0835	46.2035	0.001872	24680.8	2.231882	179.905	136.029	1.214262	0.049178	0.048885	136.541	24680.8	0.045029	0.077670	1757.98	80910.9
797	2.000000	1.216983	7.37286e+06	-39989.1	1055.82	-29791.7	0.000000	0.000000	7.223355	152.268	NaN	0.000000	0.001694	0.001777	28.0843	48.6878	0.001874	25987.3	5.996068	-4.956029	148.384	1.216684	0.051606	0.051306	152.268	25987.3	0.047211	0.083989	1812.95	81926.2
797	2.000000	1.219533	7.37286e+06	-39989.1	1055.82	-29791.7	0.000000	0.000000	7.226490	166.526	NaN	0.000000	0.001684	0.001732	28.0835	51.0412	0.001798	28395.2	6.763433	174.036	164.776	1.219185	0.054155	0.053808	166.526	28395.2	0.049757	0.091663	1816.73	85688.5
797	2.000000	1.222021	7.37286e+06	-39989.1	1055.82	-29791.7	0.000000	0.000000	7.229512	179.524	NaN	0.000000	0.001693	0.001722	28.0837	51.9451	0.001831	28371.4	4.506593	-3.380363	174.439	1.221636	0.056643	0.056259	179.524	28371.4	0.051898	0.098369	1825.01	82646.5
797	2.000000	1.224528	7.37286e+06	-39989.1	1055.82	-29791.7	0.000000	0.000000	7.232560	192.693	NaN	0.000000	0.001686	0.001760	28.0835	54.2954	0.001745	31113	3.424085	176.172	192.127	1.224239	0.059150	0.058861	192.693	31113	0.054505	0.106845	1803.48	86963.5
797	2.000000	1.226964	7.37286e+06	-39989.1	1055.82	-29791.7	0.000000	0.000000	7.235673	209.146	NaN	0.000000	0.001680	0.001730	28.0841	58.3783	0.001822	32039	8.926768	-9.596261	203.897	1.226584	0.061586	0.061207	209.146	32039	0.056690	0.114209	1831.26	86616.9
797	2.000000	1.229533	7.37286e+06	-39989.1	1055.82	-29791.7	0.000000	0.000000	7.238760	221.754	NaN	0.000000	0.001663	0.001749	28.0835	60.3294	0.001768	34116.1	5.609716	173.486	220.624	1.229144	0.064156	0.063766	221.754	34116.1	0.059281	0.123242	1799.33	88787.6
797	2.000000	1.231979	7.37286e+06	-39989.1	1055.82	-29791.7	0.000000	0.000000	7.241837	237.108	NaN	0.000000	0.001677	0.001777	28.084	61.4925	0.001772	34696.3	2.988904	-3.854425	231.219	1.231697	0.066601	0.066319	237.108	34696.3	0.061476	0.131154	1807.87	87531.7
797	2.000000	1.234509	7.37286e+06	-39989.1	1055.82	-29791.7	0.000000	0.000000	7.244572	242.087	NaN	0.000000	0.001687	0.001784	28.0823	64.0696	0.001833	34960.8	2.329729	176.387	239.833	1.234431	0.069132	0.069053	242.087	34960.8	0.063938	0.140309	1725.39	85273.2
797	2.000000	1.237028	7.37286e+06	-39989.1	1055.82	-29791.7	0.000000	0.000000	7.248012	264.53	NaN	0.000000	0.001660	0.001770	28.0827	67.2875	0.001758	38272.1	5.188119	-7.155306	263.545	1.236701	0.071650	0.071323	264.53	38272.1	0.066466	0.150011	1763.41	90280.6
797	2.000000	1.239494	7.37286e+06	-39989.1	1055.82	-29791.7	0.000000	0.000000	7.251272	283.835	NaN	0.000000	0.001642	0.001739	28.0823	69.6116	0.001806	38534.6	1.492182	176.849	280.336	1.239231	0.074116	0.073853	283.835	38534.6	0.068592	0.158407	1791.81	88458.1
797	2.000000	1.241982	7.37286e+06	-39989.1	1055.82	-29791.7	0.000000	0.000000	7.254671	306.001	NaN	0.000000	0.001677	0.001726	28.0826	70.8041	0.001742	40637.7	6.930811	-8.314991	302.377	1.241581	0.076605	0.076204	306.001	40637.7	0.070957	0.168004	1821.39	90582.3
797	2.000000	1.244428	7.37286e+06	-39989.1	1055.82	-29791.7	0.000000	0.000000	7.257844	323.687	NaN	0.000000	0.001660	0.001769	28.0824	70.7525	0.001765	40096.5	1.069041	176.99	318.488	1.244119	0.079051	0.078741	323.687	40096.5	0.072996	0.176489	1834.04	87201
797	2.000000	1.246965	7.37286e+06	-39989.1	1055.82	-29791.7	0.000000	0.000000	7.260947	337.458	NaN	0.000000	0.001688	0.001764	28.0825	75.6367	0.001850	40876.1	2.444702	-4.660356	332.925	1.246636	0.081588	0.081259	337.458	40876.1	0.075396	0.186729	1807.21	86424.5
797	2.000000	1.249409	7.37286e+06	-39989.1	1055.82	-29791.7	0.000000	0.000000	7.264151	355.973	NaN	0.000000	0.001654	0.001752	28.0823	78.6261	0.001846	42587.8	5.579920	171.519	351.09	1.249224	0.084031	0.083847	355.973	42587.8	0.077762	0.197089	1806.15	87645
797	2.000000	1.252001	7.37286e+06	-39989.1	1055.82	-29791.7	0.000000	0.000000	7.267255	368.426	NaN	0.000000	0.001667	0.001735	28.0826	80.9356	0.001868	43326.8	5.817820	-8.291274	365.05	1.251707	0.086624	0.086329	368.426	43326.8	0.080246	0.208247	1769.18	86744.2
797	2.000000	1.254574	7.37286e+06	-39989.1	1055.82	-29791.7	0.000000	0.000000	7.270682	389.216	NaN	0.000000	0.001638	0.001809	28.0821	82.8769	0.001725	48032.4	5.163729	171.728	393.358	1.254166	0.089196	0.088788	389.216	48032.4	0.083119	0.221508	1757.12	93242.2
797	2.000000	1.256987	7.37286e+06	-39989.1	1055.82	-29791.7	0.000000	0.000000	7.273838	407.292	NaN	0.000000	0.001582	0.001761	28.0824	85.4778	0.001871	45693.7	2.346389	-4.909226	404.399	1.256615	0.091609	0.091237	407.292	45693.7	0.084924	0.230039	1770.53	87041.9
797	2.000000	1.259594	7.37286e+06	-39989.1	1055.82	-29791.7	0.000000	0.000000	7.276940	419.311	NaN	0.000000	0.001576	0.001768	28.0823	87.7043	0.001821	48150.7	1.178438	175.243	422.589	1.259280	0.094217	0.093902	419.311	48150.7	0.087686	0.243379	1722.87	89173.2
797	2.000000	1.261994	7.37286e+06	-39989.1	1055.82	-29791.7	0.000000	0.000000	7.280552	448.827	NaN	0.000000	0.001591	0.001772	28.0824	89.88	0.001715	52420.6	5.910613	-9.415559	445.821	1.261598	0.096616	0.096221	448.827	52420.6	0.090195	0.255805	1754.57	94693.7
797	2.000000	1.264440	7.37286e+06	-39989.1	1055.82	-29791.7	0.000000	0.000000	7.283927	471.449	NaN	0.000000	0.001587	0.001779	28.0825	92.0617	0.001840	50043.4	5.105223	171.657	468.126	1.264159	0.099062	0.098781	471.449	50043.4	0.091996	0.264903	1779.7	88833.5
797	2.000000	1.266982	7.37286e+06	-39989.1	1055.82	-29791.7	0.000000	0.000000	7.287205	489.334	NaN	0.000000	0.001598	0.001764	28.0837	94.0598	0.001736	54196.9	2.753967	-7.137038	484.774	1.266680	0.101604	0.101303	489.334	54196.9	0.094833	0.279529	1750.57	93655.7
797	2.000000	1.269528	7.37286e+06	-39989.1	1055.82	-29791.7	0.000000	0.000000	7.290250	501.473	NaN	0.000000	0.001569	0.001789	28.0836	97.6199	0.001792	54480	2.042100	173.463	501.547	1.269338	0.104151	0.103960	501.473	54480	0.097247	0.292269	1715.79	92070.1
797	2.000000	1.270401	7.37286e+06	-39989.1	1055.82	-29791.7	0.000000	0.000000	7.291894	520.237	NaN	0.000000	0.001568	0.001787	28.0837	96.5745	0.001657	58266.9	-1.172407	176.498	514.15	1.270065	0.105023	0.104687	520.237	58266.9	0.098327	0.298053	1745.45	97509.9