File: remote_trans/data/nanoindenter/0828-1/data/Data_2025-08-06,11h17m57s/2025-07-22_16-23-58_1_552.txt
2025-07-22, 16:23:58, 1
Index	Phase	Displacement	Time	Pos X	Pos Y	Pos Z	Rot A	Rot B	Piezo Z	Force A	Force B	Gripper	Voltage A	Voltage B	Temperature	Amplitude force	Amplitude pos	Stiffness	Phase shift	Phase excitation	Force A raw	Displacement raw	HMax	HMax raw	Real Force	Real Stiffness	Contact Depth	Area	Hardness	Reduced Mod.
[#]	[#]	[um]	[s]	[um]	[um]	[um]	[m°]	[m°]	[um]	[uN]	[uN]	[V]	[V]	[V]	[°C]	[uN]	[um]	[N/m]	[°]	[°]	[uN]	[um]	[um]	[um]	[uN]	[N/m]	[um]	[um^2]	[MPa]	[MPa]
552	1.000000	0.002676	7.37045e+06	-49489.1	1005.82	-29758.8	0.000000	0.000000	6.002802	0.029423	NaN	0.000000	0.001588	0.001602	28.0818	0.054229	0.000996	54.4503	146.613	-160.849	-0.043998	0.001395	-1.130737	-1.132018	0.029423	54.4503	-1.131142	-1.312029E+15	-2.242555E-17	NaN
552	1.000000	0.012718	7.37045e+06	-49489.1	1005.82	-29758.8	0.000000	0.000000	6.012842	-0.034833	NaN	0.000000	0.001616	0.001589	28.0808	0.066361	0.001184	56.0568	-88.0605	18.326	-0.022703	0.011285	-1.120694	-1.122127	-0.034833	56.0568	-1.120228	-9.365594E+14	3.719202E-17	NaN
552	1.000000	0.022615	7.37045e+06	-49489.1	1005.82	-29758.8	0.000000	0.000000	6.022739	-0.009938	NaN	0.000000	0.001587	0.001561	28.0808	0.121503	0.001731	70.207	40.5135	-166.181	-0.041554	0.021295	-1.110798	-1.112117	-0.009938	70.207	-1.110692	-6.975417E+14	1.424743E-17	NaN
552	1.000000	0.032647	7.37045e+06	-49489.1	1005.82	-29758.8	0.000000	0.000000	6.032772	0.005164	NaN	0.000000	0.001583	0.001610	28.0808	0.071412	0.001964	36.3611	162.931	19.8517	0.000624	0.031257	-1.100766	-1.102156	0.005164	36.3611	-1.100872	-5.149613E+14	-1.002723E-17	NaN
552	1.000000	0.042646	7.37045e+06	-49489.1	1005.82	-29758.8	0.000000	0.000000	6.042771	0.002640	NaN	0.000000	0.001583	0.001595	28.0811	0.056239	0.002011	27.9622	152.504	-163.282	-0.057318	0.041341	-1.090766	-1.092072	0.002640	27.9622	-1.090837	-3.776175E+14	-6.992484E-18	NaN
552	1.000000	0.052625	7.37045e+06	-49489.1	1005.82	-29758.8	0.000000	0.000000	6.052746	-0.083343	NaN	0.000000	0.001600	0.001597	28.0807	0.094424	0.001993	47.3782	-53.6801	14.6122	-0.038923	0.051206	-1.080788	-1.082206	-0.083343	47.3782	-1.079469	-2.656944E+14	3.136812E-16	NaN
552	1.000000	0.062618	7.37045e+06	-49489.1	1005.82	-29758.8	0.000000	0.000000	6.062743	0.016588	NaN	0.000000	0.001594	0.001638	28.0811	0.068818	0.002081	33.0758	177.142	-164.547	-0.003325	0.061322	-1.070795	-1.072090	0.016588	33.0758	-1.071171	-2.055522E+14	-8.069937E-17	NaN
552	1.000000	0.072608	7.37045e+06	-49489.1	1005.82	-29758.8	0.000000	0.000000	6.072734	0.038108	NaN	0.000000	0.001595	0.001602	28.0807	0.095086	0.001975	48.1409	82.4362	17.1874	-0.028988	0.071293	-1.060805	-1.062119	0.038108	48.1409	-1.061399	-1.519209E+14	-2.508438E-16	NaN
552	1.000000	0.082639	7.37045e+06	-49489.1	1005.82	-29758.8	0.000000	0.000000	6.082764	-0.004899	NaN	0.000000	0.001590	0.001602	28.0813	0.040756	0.002037	20.011	29.7558	-164.158	-0.052099	0.081377	-1.050774	-1.052036	-0.004899	20.011	-1.050590	-1.087295E+14	4.505989E-17	NaN
552	1.000000	0.092659	7.37045e+06	-49489.1	1005.82	-29758.8	0.000000	0.000000	6.092785	0.031445	NaN	0.000000	0.001579	0.001627	28.0804	0.106408	0.002099	50.6975	-76.6658	18.7052	-0.026602	0.091301	-1.040754	-1.042111	0.031445	50.6975	-1.041219	-8.135015E+13	-3.865410E-16	NaN
552	1.000000	0.102630	7.37045e+06	-49489.1	1005.82	-29758.8	0.000000	0.000000	6.102752	-0.065641	NaN	0.000000	0.001613	0.001655	28.0809	0.091272	0.002035	44.857	-139.055	-164.977	-0.032759	0.101327	-1.030783	-1.032085	-0.065641	44.857	-1.029685	-5.691768E+13	1.153258E-15	NaN
552	1.000000	0.112628	7.37045e+06	-49489.1	1005.82	-29758.8	0.000000	0.000000	6.112753	0.003200	NaN	0.000000	0.001567	0.001651	28.0805	0.109784	0.002088	52.5689	114.367	19.3399	-0.002310	0.111282	-1.020785	-1.022131	0.003200	52.5689	-1.020830	-4.326355E+13	-7.397144E-17	NaN
552	1.000000	0.122631	7.37045e+06	-49489.1	1005.82	-29758.8	0.000000	0.000000	6.122757	0.020518	NaN	0.000000	0.001552	0.001629	28.0809	0.130072	0.002045	63.6186	59.1792	-165.971	-0.019999	0.121348	-1.010782	-1.012065	0.020518	63.6186	-1.011023	-3.192694E+13	-6.426704E-16	NaN
552	1.000000	0.132686	7.37045e+06	-49489.1	1005.82	-29758.8	0.000000	0.000000	6.132812	0.023436	NaN	0.000000	0.001593	0.001616	28.0806	0.071389	0.002025	35.2455	-99.7039	16.966	0.000241	0.131285	-1.000727	-1.002127	0.023436	35.2455	-1.001225	-2.356493E+13	-9.945144E-16	NaN
552	1.000000	0.142647	7.37045e+06	-49489.1	1005.82	-29758.8	0.000000	0.000000	6.142775	0.072276	NaN	0.000000	0.001612	0.001640	28.0822	0.067898	0.001979	34.3013	103.386	-163.071	0.051460	0.141392	-0.990765	-0.992021	0.072276	34.3013	-0.992346	-1.789379E+13	-4.039167E-15	NaN
552	1.000000	0.152643	7.37045e+06	-49489.1	1005.82	-29758.8	0.000000	0.000000	6.152766	-0.052367	NaN	0.000000	0.001629	0.001623	28.082	0.082421	0.002102	39.212	-96.6444	15.2243	0.006003	0.151313	-0.980770	-0.982100	-0.052367	39.212	-0.979768	-1.211403E+13	4.322831E-15	NaN
552	1.000000	0.162697	7.37045e+06	-49489.1	1005.82	-29758.8	0.000000	0.000000	6.162820	-0.068878	NaN	0.000000	0.001673	0.001596	28.0819	0.042452	0.001819	23.3437	-168.519	-164.872	-0.066967	0.161385	-0.970715	-0.972027	-0.068878	23.3437	-0.968502	-8.540356E+12	8.065060E-15	NaN
552	1.000000	0.172685	7.37045e+06	-49489.1	1005.82	-29758.8	0.000000	0.000000	6.172809	-0.021826	NaN	0.000000	0.001573	0.001655	28.0818	0.025694	0.001886	13.6215	163.211	14.5731	-0.019040	0.171318	-0.960728	-0.962095	-0.021826	13.6215	-0.959526	-6.463704E+12	3.376705E-15	NaN
552	1.000000	0.182656	7.37045e+06	-49489.1	1005.82	-29758.8	0.000000	0.000000	6.182780	-0.022062	NaN	0.000000	0.001575	0.001619	28.082	0.054660	0.002000	27.3351	155.296	-164.799	0.024313	0.181377	-0.950757	-0.952035	-0.022062	27.3351	-0.950151	-4.831333E+12	4.566544E-15	NaN
552	1.000000	0.192688	7.37045e+06	-49489.1	1005.82	-29758.8	0.000000	0.000000	6.192815	0.028286	NaN	0.000000	0.001588	0.001615	28.082	0.010958	0.002095	5.231351	0.186982	17.6976	0.070237	0.191330	-0.940724	-0.942082	0.028286	5.231351	-0.944779	-4.088964E+12	-6.917764E-15	NaN
552	1.000000	0.202656	7.37045e+06	-49489.1	1005.82	-29758.8	0.000000	0.000000	6.202778	-0.087742	NaN	0.000000	0.001620	0.001615	28.0818	0.046787	0.002054	22.7831	57.017	-165.227	-0.019982	0.201431	-0.930757	-0.931982	-0.087742	22.7831	-0.927868	-2.417816E+12	3.628990E-14	NaN
552	1.000000	0.212690	7.37045e+06	-49489.1	1005.82	-29758.8	0.000000	0.000000	6.212814	-0.028127	NaN	0.000000	0.001604	0.001590	28.0817	0.048021	0.001987	24.1677	-91.0041	13.7318	-0.061029	0.211296	-0.920723	-0.922117	-0.028127	24.1677	-0.919850	-1.884413E+12	1.492614E-14	NaN
552	1.000000	0.222663	7.37045e+06	-49489.1	1005.82	-29758.8	0.000000	0.000000	6.222788	-0.009372	NaN	0.000000	0.001611	0.001596	28.0818	0.083666	0.002103	39.7818	-139.882	-164.465	-0.057629	0.221389	-0.910750	-0.912023	-0.009372	39.7818	-0.910573	-1.412221E+12	6.636709E-15	NaN
552	1.000000	0.232704	7.37045e+06	-49489.1	1005.82	-29758.8	0.000000	0.000000	6.232827	-0.040719	NaN	0.000000	0.001615	0.001599	28.0819	0.015137	0.001820	8.316165	-75.1224	16.401	-0.095059	0.231329	-0.900709	-0.902083	-0.040719	8.316165	-0.897036	-9.268712E+11	4.393211E-14	NaN
552	1.000000	0.242684	7.37045e+06	-49489.1	1005.82	-29758.8	0.000000	0.000000	6.242810	0.008638	NaN	0.000000	0.001616	0.001617	28.0819	0.071561	0.001919	37.2973	-36.7637	-163.876	-0.036977	0.241352	-0.890728	-0.892061	0.008638	37.2973	-0.890902	-7.657881E+11	-1.128004E-14	NaN
552	1.000000	0.252690	7.37045e+06	-49489.1	1005.82	-29758.8	0.000000	0.000000	6.252815	-0.006999	NaN	0.000000	0.001622	0.001632	28.0818	0.038849	0.002055	18.9091	111.741	15.2265	0.052010	0.251349	-0.880723	-0.882063	-0.006999	18.9091	-0.880445	-5.530024E+11	1.265615E-14	NaN
552	1.000000	0.262743	7.37045e+06	-49489.1	1005.82	-29758.8	0.000000	0.000000	6.262866	-0.039811	NaN	0.000000	0.001669	0.001597	28.0821	0.065822	0.001976	33.3049	-158.788	-163.808	-0.046196	0.261421	-0.870670	-0.871991	-0.039811	33.3049	-0.869774	-3.966247E+11	1.003752E-13	NaN
552	1.000000	0.272729	7.37045e+06	-49489.1	1005.82	-29758.8	0.000000	0.000000	6.272853	-0.038664	NaN	0.000000	0.001624	0.001590	28.0818	0.042431	0.002012	21.0879	49.9713	16.4242	0.000660	0.271406	-0.860683	-0.862007	-0.038664	21.0879	-0.859308	-2.862570E+11	1.350673E-13	NaN
552	1.000000	0.282762	7.37045e+06	-49489.1	1005.82	-29758.8	0.000000	0.000000	6.282886	-0.047724	NaN	0.000000	0.001635	0.001591	28.0805	0.041518	0.002010	20.6569	22.681	-165.685	0.072675	0.281360	-0.850650	-0.852053	-0.047724	20.6569	-0.848917	-2.070509E+11	2.304930E-13	NaN
552	1.000000	0.292724	7.37045e+06	-49489.1	1005.82	-29758.8	0.000000	0.000000	6.292849	-0.017219	NaN	0.000000	0.001611	0.001577	28.0807	0.144162	0.002079	69.3366	-149.732	14.3322	-0.011822	0.291345	-0.840688	-0.842067	-0.017219	69.3366	-0.840502	-1.592544E+11	1.081256E-13	NaN
552	1.000000	0.302733	7.37045e+06	-49489.1	1005.82	-29758.8	0.000000	0.000000	6.302856	-0.067553	NaN	0.000000	0.001583	0.001636	28.0809	0.078518	0.002123	36.9802	-65.9609	-163.67	-0.058375	0.301426	-0.830679	-0.831987	-0.067553	36.9802	-0.829309	-1.123102E+11	6.014884E-13	NaN
552	1.000000	0.312725	7.37045e+06	-49489.1	1005.82	-29758.8	0.000000	0.000000	6.312847	-0.068234	NaN	0.000000	0.001589	0.001600	28.0807	0.048167	0.001941	24.8172	116.514	17.5594	-0.068218	0.311428	-0.820688	-0.821985	-0.068234	24.8172	-0.818626	-8.045888E+10	8.480566E-13	NaN
552	1.000000	0.322718	7.37045e+06	-49489.1	1005.82	-29758.8	0.000000	0.000000	6.322840	-0.083752	NaN	0.000000	0.001578	0.001618	28.0806	0.062707	0.001965	31.9192	115.18	-163.57	-0.080749	0.321409	-0.810694	-0.812004	-0.083752	31.9192	-0.808727	-5.906000E+10	1.418082E-12	NaN
552	1.000000	0.332731	7.37045e+06	-49489.1	1005.82	-29758.8	0.000000	0.000000	6.332857	0.005574	NaN	0.000000	0.001581	0.001598	28.081	0.051482	0.001900	27.0995	-117.507	19.9745	-0.022592	0.331408	-0.800681	-0.802004	0.005574	27.0995	-0.800836	-4.615361E+10	-1.207702E-13	NaN
552	1.000000	0.342709	7.37045e+06	-49489.1	1005.82	-29758.8	0.000000	0.000000	6.342835	0.017668	NaN	0.000000	0.001573	0.001598	28.0807	0.061855	0.002079	29.7496	50.7963	-162.815	-0.045795	0.341433	-0.790704	-0.791979	0.017668	29.7496	-0.791149	-3.409481E+10	-5.182115E-13	NaN
552	1.000000	0.352717	7.37045e+06	-49489.1	1005.82	-29758.8	0.000000	0.000000	6.352840	-0.054586	NaN	0.000000	0.001571	0.001614	28.0809	0.046992	0.001990	23.6125	50.7102	15.9784	-0.064581	0.351365	-0.780696	-0.782047	-0.054586	23.6125	-0.778962	-2.328759E+10	2.343979E-12	NaN
552	1.000000	0.362753	7.37045e+06	-49489.1	1005.82	-29758.8	0.000000	0.000000	6.362877	-0.025424	NaN	0.000000	0.001551	0.001584	28.0808	0.117987	0.002040	57.8227	-158.145	-166.576	-0.062855	0.361434	-0.770660	-0.771978	-0.025424	57.8227	-0.770330	-1.777424E+10	1.430374E-12	NaN
552	1.000000	0.372773	7.37045e+06	-49489.1	1005.82	-29758.8	0.000000	0.000000	6.372898	-0.010678	NaN	0.000000	0.001572	0.001593	28.0811	0.023444	0.001919	12.2175	-4.528109	13.5087	-0.097664	0.371383	-0.760639	-0.762030	-0.010678	12.2175	-0.759984	-1.285534E+10	8.306186E-13	NaN
552	1.000000	0.382773	7.37045e+06	-49489.1	1005.82	-29758.8	0.000000	0.000000	6.382896	-0.045643	NaN	0.000000	0.001549	0.001616	28.0806	0.051761	0.002065	25.06	91.3703	-166.025	-0.028713	0.381476	-0.750640	-0.751937	-0.045643	25.06	-0.749274	-9.190354E+9	4.966427E-12	NaN
552	1.000000	0.392761	7.37045e+06	-49489.1	1005.82	-29758.8	0.000000	0.000000	6.392884	-0.056634	NaN	0.000000	0.001565	0.001620	28.0809	0.108645	0.001984	54.774	118.055	15.4488	-0.000930	0.391449	-0.740651	-0.741964	-0.056634	54.774	-0.739876	-6.844892E+9	8.273903E-12	NaN
552	1.000000	0.402768	7.37045e+06	-49489.1	1005.82	-29758.8	0.000000	0.000000	6.402888	-0.109026	NaN	0.000000	0.001568	0.001647	28.0808	0.024081	0.002097	11.4833	-46.1169	-163.843	-0.107821	0.401445	-0.730645	-0.731968	-0.109026	11.4833	-0.723524	-4.097581E+9	2.660749E-11	NaN
552	1.000000	0.412773	7.37045e+06	-49489.1	1005.82	-29758.8	0.000000	0.000000	6.412898	-0.001410	NaN	0.000000	0.001579	0.001640	28.0811	0.104033	0.002089	49.8009	38.9734	18.109	-0.022296	0.411452	-0.720639	-0.721960	-0.001410	49.8009	-0.720618	-3.740241E+9	3.769337E-13	NaN
552	1.000000	0.422778	7.37045e+06	-49489.1	1005.82	-29758.8	0.000000	0.000000	6.422901	-0.049238	NaN	0.000000	0.001515	0.001649	28.0818	0.053607	0.001999	26.8184	-42.0656	-162.086	-0.043519	0.421450	-0.710635	-0.711963	-0.049238	26.8184	-0.709258	-2.617677E+9	1.880995E-11	NaN
552	1.000000	0.432791	7.37045e+06	-49489.1	1005.82	-29758.8	0.000000	0.000000	6.432915	-0.022960	NaN	0.000000	0.001487	0.001657	28.082	0.047612	0.001985	23.9842	-104.901	17.6797	-0.030989	0.431414	-0.700621	-0.701999	-0.022960	23.9842	-0.699903	-1.950801E+9	1.176956E-11	NaN
552	1.000000	0.442794	7.37045e+06	-49489.1	1005.82	-29758.8	0.000000	0.000000	6.442917	-0.049028	NaN	0.000000	0.001525	0.001654	28.0819	0.028450	0.001953	14.5685	-162.382	-168.555	-0.000165	0.441535	-0.690619	-0.691877	-0.049028	14.5685	-0.688095	-1.345480E+9	3.643892E-11	NaN
552	1.000000	0.452798	7.37045e+06	-49489.1	1005.82	-29758.8	0.000000	0.000000	6.452921	-0.039372	NaN	0.000000	0.001524	0.001601	28.082	0.103871	0.002010	51.6695	-162.006	14.3955	-0.071338	0.451384	-0.680615	-0.682029	-0.039372	51.6695	-0.680043	-1.044234E+9	3.770378E-11	NaN
552	1.000000	0.462809	7.37045e+06	-49489.1	1005.82	-29758.8	0.000000	0.000000	6.462936	0.040197	NaN	0.000000	0.001524	0.001632	28.0818	0.115306	0.002009	57.4061	-153.6	-164.9	-0.022760	0.461526	-0.670603	-0.671887	0.040197	57.4061	-0.671128	-7.885582E+8	-5.097523E-11	NaN
552	1.000000	0.472793	7.37045e+06	-49489.1	1005.82	-29758.8	0.000000	0.000000	6.472914	-0.084088	NaN	0.000000	0.001562	0.001588	28.0822	0.031121	0.002002	15.5436	-51.3506	15.7857	-0.040877	0.471479	-0.660620	-0.661933	-0.084088	15.5436	-0.656563	-4.981706E+8	1.687943E-10	NaN
552	1.000000	0.482801	7.37045e+06	-49489.1	1005.82	-29758.8	0.000000	0.000000	6.482925	-0.012881	NaN	0.000000	0.001532	0.001596	28.0818	0.040311	0.002066	19.5149	31.4762	-165.301	-0.069446	0.481478	-0.650612	-0.651934	-0.012881	19.5149	-0.650117	-4.064802E+8	3.169013E-11	NaN
552	1.000000	0.492798	7.37045e+06	-49489.1	1005.82	-29758.8	0.000000	0.000000	6.492925	0.027976	NaN	0.000000	0.001552	0.001591	28.0818	0.108018	0.002038	53.0042	-89.7217	15.7014	0.018301	0.491413	-0.640614	-0.642000	0.027976	53.0042	-0.641010	-3.048934E+8	-9.175575E-11	NaN
552	1.000000	0.502806	7.37045e+06	-49489.1	1005.82	-29758.8	0.000000	0.000000	6.502932	0.039599	NaN	0.000000	0.001552	0.001606	28.0817	0.091920	0.001994	46.1095	23.8277	-166.132	-0.031661	0.501528	-0.630607	-0.631884	0.039599	46.1095	-0.631251	-2.239764E+8	-1.767986E-10	NaN
552	1.000000	0.512821	7.37045e+06	-49489.1	1005.82	-29758.8	0.000000	0.000000	6.512947	0.003326	NaN	0.000000	0.001561	0.001621	28.082	0.093441	0.002131	43.8485	104.598	18.0199	-0.000211	0.511448	-0.620591	-0.621965	0.003326	43.8485	-0.620648	-1.601556E+8	-2.077027E-11	NaN
552	1.000000	0.522819	7.37045e+06	-49489.1	1005.82	-29758.8	0.000000	0.000000	6.522940	-0.104103	NaN	0.000000	0.001571	0.001609	28.0816	0.023956	0.002053	11.6707	-168.365	-164.536	-0.134085	0.521531	-0.610594	-0.611882	-0.104103	11.6707	-0.603904	-9.423554E+7	1.104712E-9	NaN
552	1.000000	0.532800	7.37045e+06	-49489.1	1005.82	-29758.8	0.000000	0.000000	6.532923	-0.053477	NaN	0.000000	0.001572	0.001631	28.0816	0.064952	0.002026	32.0658	120.794	18.086	-0.068664	0.531474	-0.600613	-0.601939	-0.053477	32.0658	-0.599362	-8.159611E+7	6.553878E-10	NaN
552	1.000000	0.542832	7.37045e+06	-49489.1	1005.82	-29758.8	0.000000	0.000000	6.542955	-0.037430	NaN	0.000000	0.001596	0.001631	28.0817	0.122710	0.001855	66.1516	70.0235	-167.32	0.097645	0.541492	-0.590581	-0.591920	-0.037430	66.1516	-0.590157	-6.092930E+7	6.143144E-10	NaN
552	1.000000	0.552882	7.37045e+06	-49489.1	1005.82	-29758.8	0.000000	0.000000	6.553006	-0.006017	NaN	0.000000	0.001544	0.001631	28.0807	0.050311	0.001942	25.9115	-131.904	15.0321	0.004191	0.551484	-0.580531	-0.581929	-0.006017	25.9115	-0.580357	-4.463243E+7	1.348119E-10	NaN
552	1.000000	0.562848	7.37045e+06	-49489.1	1005.82	-29758.8	0.000000	0.000000	6.562973	0.000608	NaN	0.000000	0.001536	0.001625	28.0804	0.060759	0.002036	29.8356	150.813	-164.093	-0.080832	0.561521	-0.570564	-0.571891	0.000608	29.8356	-0.570580	-3.270715E+7	-1.859019E-11	NaN
552	1.000000	0.572817	7.37045e+06	-49489.1	1005.82	-29758.8	0.000000	0.000000	6.572939	-0.057163	NaN	0.000000	0.001586	0.001668	28.0806	0.043308	0.002004	21.6075	-5.387483	17.6106	-0.009421	0.571541	-0.560596	-0.561872	-0.057163	21.6075	-0.558612	-2.234455E+7	2.558234E-9	NaN
552	1.000000	0.582836	7.37045e+06	-49489.1	1005.82	-29758.8	0.000000	0.000000	6.582958	-0.057207	NaN	0.000000	0.001581	0.001609	28.0808	0.066967	0.002075	32.2725	-126.942	-166.936	4.236040E-5	0.581537	-0.550577	-0.551876	-0.057207	32.2725	-0.549248	-1.657803E+7	3.450769E-9	NaN
552	1.000000	0.592864	7.37045e+06	-49489.1	1005.82	-29758.8	0.000000	0.000000	6.592989	-0.008108	NaN	0.000000	0.001568	0.001654	28.0807	0.111776	0.002073	53.9155	-160.945	13.9906	-0.035223	0.591442	-0.540548	-0.541971	-0.008108	53.9155	-0.540436	-1.251411E+7	6.479155E-10	NaN
552	1.000000	0.602844	7.37045e+06	-49489.1	1005.82	-29758.8	0.000000	0.000000	6.602970	0.018995	NaN	0.000000	0.001544	0.001634	28.0806	0.081996	0.001844	44.4642	65.6228	-163.003	-0.019556	0.601491	-0.530568	-0.531922	0.018995	44.4642	-0.530889	-9.22393e+06	-2.059274E-9	NaN
552	1.000000	0.612889	7.37045e+06	-49489.1	1005.82	-29758.8	0.000000	0.000000	6.613014	0.006872	NaN	0.000000	0.001578	0.001621	28.0807	0.108410	0.002021	53.6539	-154.439	17.6509	0.010136	0.611472	-0.520524	-0.521941	0.006872	53.6539	-0.520620	-6.64075e+06	-1.034795E-9	NaN
552	1.000000	0.622879	7.37045e+06	-49489.1	1005.82	-29758.8	0.000000	0.000000	6.623004	-0.002537	NaN	0.000000	0.001558	0.001622	28.081	0.068496	0.002054	33.3448	61.5331	-164.199	-0.019373	0.621551	-0.510534	-0.511861	-0.002537	33.3448	-0.510477	-4.79796e+06	5.287330E-10	NaN
552	1.000000	0.632884	7.37045e+06	-49489.1	1005.82	-29758.8	0.000000	0.000000	6.633009	-0.003895	NaN	0.000000	0.001582	0.001643	28.0807	0.127139	0.002014	63.1223	-23.6518	12.9482	0.005349	0.631480	-0.500529	-0.501933	-0.003895	63.1223	-0.500483	-3.48137e+06	1.118914E-9	NaN
552	1.000000	0.642872	7.37045e+06	-49489.1	1005.82	-29758.8	0.000000	0.000000	6.642997	0.001747	NaN	0.000000	0.001544	0.001635	28.0807	0.081704	0.001999	40.8655	9.797520	-163.894	0.083163	0.641563	-0.490540	-0.491850	0.001747	40.8655	-0.490573	-2.53159e+06	-6.902078E-10	NaN
552	1.000000	0.652866	7.37045e+06	-49489.1	1005.82	-29758.8	0.000000	0.000000	6.652989	-0.071929	NaN	0.000000	0.001566	0.001609	28.0808	0.026085	0.002009	12.9811	-143.732	14.7272	-0.033447	0.651540	-0.480546	-0.481873	-0.071929	12.9811	-0.476390	-1.60317e+06	4.486658E-8	NaN
552	1.000000	0.662890	7.37045e+06	-49489.1	1005.82	-29758.8	0.000000	0.000000	6.663014	-0.043944	NaN	0.000000	0.001538	0.001607	28.0807	0.038740	0.002047	18.9256	88.6306	-164.575	-0.115766	0.661531	-0.470522	-0.471882	-0.043944	18.9256	-0.468781	-1.25402e+06	3.504275E-8	NaN
552	1.000000	0.672888	7.37045e+06	-49489.1	1005.82	-29758.8	0.000000	0.000000	6.673010	-0.064728	NaN	0.000000	0.001551	0.001620	28.0806	0.156534	0.001928	81.1935	58.3442	17.4459	-0.075764	0.671526	-0.460525	-0.461886	-0.064728	81.1935	-0.459927	-941869	6.872244E-8	NaN
552	1.000000	0.682876	7.37045e+06	-49489.1	1005.82	-29758.8	0.000000	0.000000	6.683001	0.006199	NaN	0.000000	0.001581	0.001599	28.0808	0.061933	0.001953	31.7103	125.04	-164.756	0.033522	0.681567	-0.450537	-0.451845	0.006199	31.7103	-0.450684	-698183	-8.878808E-9	NaN
552	1.000000	0.692897	7.37045e+06	-49489.1	1005.82	-29758.8	0.000000	0.000000	6.693021	-0.013129	NaN	0.000000	0.001569	0.001601	28.0822	0.013032	0.001931	6.747481	27.8776	13.0403	-0.045557	0.691562	-0.440516	-0.441851	-0.013129	6.747481	-0.439056	-478677	2.742849E-8	NaN
552	1.000000	0.702889	7.37045e+06	-49489.1	1005.82	-29758.8	0.000000	0.000000	6.703014	-0.009714	NaN	0.000000	0.001606	0.001611	28.0819	0.037108	0.002061	18.0083	92.5218	-165.825	0.034908	0.701617	-0.430523	-0.431795	-0.009714	18.0083	-0.430119	-357885	2.714318E-8	NaN
552	1.000000	0.712888	7.37045e+06	-49489.1	1005.82	-29758.8	0.000000	0.000000	6.713013	-0.003723	NaN	0.000000	0.001587	0.001625	28.0819	0.045637	0.002005	22.7614	-95.4327	13.0742	-0.025947	0.711482	-0.420525	-0.421931	-0.003723	22.7614	-0.420402	-260684	1.428259E-8	NaN
552	1.000000	0.722912	7.37045e+06	-49489.1	1005.82	-29758.8	0.000000	0.000000	6.723035	-0.055700	NaN	0.000000	0.001565	0.001637	28.082	0.065160	0.002020	32.2515	-145.215	-163.366	-0.047585	0.721562	-0.410501	-0.411850	-0.055700	32.2515	-0.409205	-180759	3.081462E-7	NaN
552	1.000000	0.732902	7.37045e+06	-49489.1	1005.82	-29758.8	0.000000	0.000000	6.733026	-0.031482	NaN	0.000000	0.001567	0.001631	28.0819	0.087534	0.001989	44.0107	155.926	19.9772	0.098622	0.731606	-0.400511	-0.401807	-0.031482	44.0107	-0.399974	-133545	2.357377E-7	NaN
552	1.000000	0.742934	7.37045e+06	-49489.1	1005.82	-29758.8	0.000000	0.000000	6.743059	0.005825	NaN	0.000000	0.001577	0.001629	28.0823	0.058504	0.001947	30.0518	-154.299	-167.144	0.009976	0.741590	-0.390479	-0.391823	0.005825	30.0518	-0.390624	-98196.8	-5.931726E-8	NaN
552	1.000000	0.752912	7.37045e+06	-49489.1	1005.82	-29758.8	0.000000	0.000000	6.753036	-0.040687	NaN	0.000000	0.001558	0.001601	28.0821	0.100129	0.001915	52.2996	128.966	19.4891	-0.047094	0.751574	-0.380500	-0.381839	-0.040687	52.2996	-0.379917	-68975.4	5.898750E-7	NaN
552	1.000000	0.762945	7.37045e+06	-49489.1	1005.82	-29758.8	0.000000	0.000000	6.763070	-0.008200	NaN	0.000000	0.001595	0.001629	28.0819	0.027673	0.002129	12.9999	2.001168	-161.841	-0.012183	0.761632	-0.370468	-0.371781	-0.008200	12.9999	-0.369994	-49664.8	1.651065E-7	NaN
552	1.000000	0.772933	7.37045e+06	-49489.1	1005.82	-29758.8	0.000000	0.000000	6.773057	-0.032538	NaN	0.000000	0.001582	0.001606	28.0819	0.060753	0.001876	32.3784	-179.797	14.5956	-0.102843	0.771579	-0.360480	-0.361834	-0.032538	32.3784	-0.359726	-35308.9	9.215374E-7	NaN
552	1.000000	0.782957	7.37045e+06	-49489.1	1005.82	-29758.8	0.000000	0.000000	6.783081	-0.027784	NaN	0.000000	0.001558	0.001592	28.0821	0.014791	0.001923	7.691603	100.477	-162.716	-0.034161	0.781624	-0.350456	-0.351789	-0.027784	7.691603	-0.347747	-23674.6	1.173570E-6	NaN
552	1.000000	0.792935	7.37045e+06	-49489.1	1005.82	-29758.8	0.000000	0.000000	6.793059	-0.034647	NaN	0.000000	0.001571	0.001614	28.0822	0.090598	0.002064	43.8987	-110.858	15.3598	-0.055340	0.791525	-0.340477	-0.341888	-0.034647	43.8987	-0.339885	-18192	1.904493E-6	NaN
552	1.000000	0.802920	7.37045e+06	-49489.1	1005.82	-29758.8	0.000000	0.000000	6.803042	-0.086857	NaN	0.000000	0.001573	0.001607	28.0822	0.028720	0.002021	14.2112	-60.2735	-162.148	-0.021350	0.801619	-0.330492	-0.331794	-0.086857	14.2112	-0.325908	-11362.4	7.644288E-6	NaN
552	1.000000	0.812941	7.37045e+06	-49489.1	1005.82	-29758.8	0.000000	0.000000	6.813066	-0.002124	NaN	0.000000	0.001574	0.001600	28.082	0.038643	0.001956	19.7604	88.2604	17.3159	-0.069650	0.811557	-0.320471	-0.321855	-0.002124	19.7604	-0.320391	-9427.32	2.253040E-7	NaN
552	1.000000	0.822938	7.37045e+06	-49489.1	1005.82	-29758.8	0.000000	0.000000	6.823064	0.022538	NaN	0.000000	0.001572	0.001638	28.0811	0.044548	0.002004	22.2258	-71.5359	-164.398	-0.032476	0.821640	-0.310474	-0.311773	0.022538	22.2258	-0.311235	-6907.54	-3.262753E-6	NaN
552	1.000000	0.832939	7.37045e+06	-49489.1	1005.82	-29758.8	0.000000	0.000000	6.833064	-0.002809	NaN	0.000000	0.001529	0.001592	28.0807	0.063348	0.001982	31.9651	103.794	16.1315	0.059493	0.831618	-0.300474	-0.301794	-0.002809	31.9651	-0.300408	-4772.04	5.886042E-7	NaN
552	1.000000	0.842942	7.37045e+06	-49489.1	1005.82	-29758.8	0.000000	0.000000	6.843067	-0.016731	NaN	0.000000	0.001578	0.001568	28.0807	0.025633	0.002011	12.7475	130.817	-165.468	0.043645	0.841634	-0.290470	-0.291779	-0.016731	12.7475	-0.289486	-3277.91	5.104072E-6	NaN
552	1.000000	0.852943	7.37045e+06	-49489.1	1005.82	-29758.8	0.000000	0.000000	6.853069	0.026226	NaN	0.000000	0.001578	0.001590	28.0807	0.046518	0.001844	25.2299	97.8434	19.3695	0.000461	0.851609	-0.280470	-0.281803	0.026226	25.2299	-0.281249	-2464.94	-1.063947E-5	NaN
552	1.000000	0.862967	7.37045e+06	-49489.1	1005.82	-29758.8	0.000000	0.000000	6.863089	-0.077091	NaN	0.000000	0.001588	0.001563	28.0807	0.062719	0.002007	31.2542	108.887	-163.535	0.019215	0.861618	-0.270446	-0.271795	-0.077091	31.2542	-0.268596	-1585.57	4.862017E-5	NaN
552	1.000000	0.872960	7.37045e+06	-49489.1	1005.82	-29758.8	0.000000	0.000000	6.873083	-0.055569	NaN	0.000000	0.001689	0.001546	28.0809	0.109747	0.001960	55.9982	-33.6392	16.9189	-0.031832	0.871622	-0.260453	-0.261790	-0.055569	55.9982	-0.259708	-1159.97	4.790536E-5	NaN
552	1.000000	0.882957	7.37045e+06	-49489.1	1005.82	-29758.8	0.000000	0.000000	6.883080	-0.054448	NaN	0.000000	0.001688	0.001624	28.0806	0.128873	0.002013	64.0203	121.141	-162.813	-0.028436	0.881623	-0.250455	-0.251789	-0.054448	64.0203	-0.249818	-816.854	6.665628E-5	NaN
552	1.000000	0.892989	7.37045e+06	-49489.1	1005.82	-29758.8	0.000000	0.000000	6.893115	0.013733	NaN	0.000000	0.001694	0.001627	28.0808	0.085974	0.001994	43.1114	54.5204	11.8128	0.048426	0.891606	-0.240423	-0.241806	0.013733	43.1114	-0.240662	-588.698	-2.332794E-5	NaN
552	1.000000	0.902996	7.37045e+06	-49489.1	1005.82	-29758.8	0.000000	0.000000	6.903119	-0.057014	NaN	0.000000	0.001664	0.001671	28.0809	0.057330	0.002072	27.6721	-58.2023	-165.29	-0.013879	0.901686	-0.230417	-0.231726	-0.057014	27.6721	-0.228872	-384.314	0.000148	NaN
552	1.000000	0.912972	7.37045e+06	-49489.1	1005.82	-29758.8	0.000000	0.000000	6.913098	0.010050	NaN	0.000000	0.001571	0.001620	28.0808	0.062934	0.001953	32.2271	29.2814	14.7581	-0.049306	0.911631	-0.220441	-0.221782	0.010050	32.2271	-0.220674	-284.741	-3.529490E-5	NaN
552	1.000000	0.922987	7.37045e+06	-49489.1	1005.82	-29758.8	0.000000	0.000000	6.923112	-0.011987	NaN	0.000000	0.001615	0.001581	28.0808	0.093887	0.002037	46.095	-164.365	-165.85	0.006777	0.921741	-0.210425	-0.211671	-0.011987	46.095	-0.210230	-193.44	6.196850E-5	NaN
552	1.000000	0.932992	7.37045e+06	-49489.1	1005.82	-29758.8	0.000000	0.000000	6.933114	-0.090724	NaN	0.000000	0.001608	0.001624	28.0806	0.161498	0.002004	80.5791	11.4941	14.8365	-0.115855	0.931669	-0.200420	-0.201744	-0.090724	80.5791	-0.199576	-129.636	0.000700	NaN
552	1.000000	0.943009	7.37045e+06	-49489.1	1005.82	-29758.8	0.000000	0.000000	6.943132	-0.058005	NaN	0.000000	0.001584	0.001589	28.081	0.081917	0.002108	38.8678	-177.807	-161.8	-0.062342	0.941715	-0.190404	-0.191698	-0.058005	38.8678	-0.189284	-87.5113	0.000663	NaN
552	1.000000	0.953026	7.37045e+06	-49489.1	1005.82	-29758.8	0.000000	0.000000	6.953151	-0.008986	NaN	0.000000	0.001609	0.001606	28.0808	0.071759	0.001936	37.0633	1.062776	14.96	-0.047510	0.951634	-0.180387	-0.181779	-0.008986	37.0633	-0.180205	-61.5109	0.000146	NaN
552	1.000000	0.962976	7.37045e+06	-49489.1	1005.82	-29758.8	0.000000	0.000000	6.963097	-0.078121	NaN	0.000000	0.001627	0.001621	28.082	0.013653	0.001960	6.964753	141.403	-168.01	-0.081204	0.961711	-0.170437	-0.171702	-0.078121	6.964753	-0.162025	-29.7766	0.002624	NaN
552	1.000000	0.973024	7.37045e+06	-49489.1	1005.82	-29758.8	0.000000	0.000000	6.973144	-0.114747	NaN	0.000000	0.001612	0.001605	28.082	0.058165	0.001958	29.7099	159.795	16.01	-0.114535	0.971622	-0.160388	-0.161790	-0.114747	29.7099	-0.157492	-24.733	0.004639	NaN
552	1.000000	0.983015	7.37045e+06	-49489.1	1005.82	-29758.8	0.000000	0.000000	6.983140	0.001608	NaN	0.000000	0.001562	0.001700	28.0821	0.059798	0.001996	29.9613	-171.322	-167.494	0.024769	0.981658	-0.150398	-0.151754	0.001608	29.9613	-0.150438	-18.4499	-8.716610E-5	NaN
552	1.000000	0.993009	7.37045e+06	-49489.1	1005.82	-29758.8	0.000000	0.000000	6.993135	0.023584	NaN	0.000000	0.001599	0.001634	28.0819	0.065621	0.002124	30.8938	143.055	18.0197	0.059536	0.991624	-0.140404	-0.141788	0.023584	30.8938	-0.140976	-12.339	-0.001911	NaN
552	1.000000	1.003044	7.37045e+06	-49489.1	1005.82	-29758.8	0.000000	0.000000	7.003165	-0.081648	NaN	0.000000	0.001557	0.001633	28.082	0.083479	0.001921	43.4521	45.6316	-164.402	-0.018496	1.001683	-0.130369	-0.131729	-0.081648	43.4521	-0.128960	-7.273891	0.011225	NaN
552	1.000000	1.013035	7.37045e+06	-49489.1	1005.82	-29758.8	0.000000	0.000000	7.013159	-0.031493	NaN	0.000000	0.001595	0.001657	28.0822	0.059581	0.001858	32.0703	-113.093	14.1227	0.000959	1.011650	-0.120378	-0.121763	-0.031493	32.0703	-0.119641	-4.751545	0.006628	NaN
552	1.000000	1.023022	7.37045e+06	-49489.1	1005.82	-29758.8	0.000000	0.000000	7.023149	0.061112	NaN	0.000000	0.001627	0.001626	28.0821	0.094804	0.002042	46.4368	-170.458	-165.32	-0.035690	1.021728	-0.110391	-0.111684	0.061112	46.4368	-0.111378	-3.212428	-0.019024	NaN
552	1.000000	1.033019	7.37045e+06	-49489.1	1005.82	-29758.8	0.000000	0.000000	7.033141	-0.072397	NaN	0.000000	0.001624	0.001607	28.0822	0.081255	0.001923	42.2628	-32.7785	14.7214	-0.088725	1.031684	-0.100394	-0.101728	-0.072397	42.2628	-0.099109	-1.745739	0.041471	NaN
552	1.000000	1.043032	7.37045e+06	-49489.1	1005.82	-29758.8	0.000000	0.000000	7.043157	0.003045	NaN	0.000000	0.001606	0.001625	28.0822	0.034491	0.001977	17.4466	-124.593	-165.87	-0.000194	1.041702	-0.090380	-0.091711	0.003045	17.4466	-0.090511	-1.111210	-0.002740	NaN
552	1.000000	1.053030	7.37045e+06	-49489.1	1005.82	-29758.8	0.000000	0.000000	7.053154	-0.030454	NaN	0.000000	0.001598	0.001595	28.0824	0.135619	0.002087	64.9784	157.228	15.5642	-0.051118	1.051686	-0.080382	-0.081726	-0.030454	64.9784	-0.080031	-0.620090	0.049112	NaN
552	1.000000	1.063052	7.37045e+06	-49489.1	1005.82	-29758.8	0.000000	0.000000	7.063177	0.002730	NaN	0.000000	0.001596	0.001622	28.0822	0.034060	0.001948	17.4856	-44.508	-164.721	-0.057781	1.061722	-0.070361	-0.071691	0.002730	17.4856	-0.070478	-0.351291	-0.007772	NaN
552	1.000000	1.073044	7.37045e+06	-49489.1	1005.82	-29758.8	0.000000	0.000000	7.073164	-0.109797	NaN	0.000000	0.001697	0.001636	28.0822	0.062836	0.002121	29.6215	-94.0881	15.2613	-0.031148	1.071689	-0.060369	-0.061724	-0.109797	29.6215	-0.057589	-0.153390	0.715804	NaN
552	1.000000	1.083052	7.37045e+06	-49489.1	1005.82	-29758.8	0.000000	0.000000	7.083175	-0.053897	NaN	0.000000	0.001684	0.001620	28.0824	0.050017	0.001857	26.9387	-8.270868	-163.241	-0.065691	1.081754	-0.050360	-0.051658	-0.053897	26.9387	-0.048860	-0.084272	0.639561	NaN
552	1.000000	1.093068	7.37045e+06	-49489.1	1005.82	-29758.8	0.000000	0.000000	7.093195	0.025029	NaN	0.000000	0.001672	0.001669	28.0819	0.051275	0.001983	25.8588	-164.206	13.0533	0.008693	1.091743	-0.040344	-0.041670	0.025029	25.8588	-0.041070	-0.048742	-0.513505	NaN
552	1.000000	1.103072	7.37045e+06	-49489.1	1005.82	-29758.8	0.000000	0.000000	7.103196	-0.027043	NaN	0.000000	0.001647	0.001656	28.0807	0.001562	0.001916	0.815470	-78.2499	-165.13	-0.036644	1.101739	-0.030341	-0.031673	-0.027043	0.815470	-0.005469	-0.003709	7.290488	NaN
552	1.000000	1.113078	7.37045e+06	-49489.1	1005.82	-29758.8	0.000000	0.000000	7.113200	-0.083382	NaN	0.000000	0.001610	0.001670	28.0808	0.123286	0.001967	62.6913	40.0608	14.7377	-0.031748	1.111700	-0.020334	-0.021712	-0.083382	62.6913	-0.019337	-0.012082	6.901532	NaN
552	1.000000	1.123085	7.37045e+06	-49489.1	1005.82	-29758.8	0.000000	0.000000	7.123208	-0.064844	NaN	0.000000	0.001651	0.001690	28.0812	0.092591	0.002050	45.1756	-153.524	-166.603	-0.054525	1.121769	-0.010327	-0.011643	-0.064844	45.1756	-0.009251	-0.005957	10.8844	NaN
552	1.000000	1.133050	7.37045e+06	-49489.1	1005.82	-29758.8	0.000000	0.000000	7.133179	0.078802	NaN	0.000000	0.001643	0.001673	28.0808	0.278881	0.002070	134.733	-10.4657	17.4963	-0.001078	1.131707	-0.000362	-0.001705	0.078802	134.733	-0.000801	-0.000589	-133.704	NaN
552	1.000000	1.142985	7.37045e+06	-49489.1	1005.82	-29758.8	0.000000	0.000000	7.143394	6.905243	NaN	0.000000	0.001662	0.001657	28.081	7.714411	0.001796	4294.38	12.0984	-170.889	6.035833	1.141744	0.009573	0.008332	6.905243	4294.38	0.008367	0.007422	930.358	45541.7
552	2.000000	1.146246	7.37045e+06	-49489.1	1005.82	-29758.8	0.000000	0.000000	7.146806	10.5934	NaN	0.000000	0.001647	0.001638	28.0808	10.5768	0.001727	6123.44	10.8519	5.619551	10.7478	1.145809	0.012833	0.012396	10.5934	6123.44	0.011536	0.010939	968.438	53491.8
552	2.000000	1.148661	7.37045e+06	-49489.1	1005.82	-29758.8	0.000000	0.000000	7.149367	14.1389	NaN	0.000000	0.001668	0.001671	28.0809	13.6084	0.001831	7430.97	10.6327	-177.278	13.4637	1.148369	0.015248	0.014956	14.1389	7430.97	0.013821	0.013746	1028.62	57907.8
552	2.000000	1.151152	7.37045e+06	-49489.1	1005.82	-29758.8	0.000000	0.000000	7.152026	18.2139	NaN	0.000000	0.001602	0.001646	28.0807	15.4895	0.001617	9577.13	6.921056	2.337158	15.8342	1.150790	0.017740	0.017377	18.2139	9577.13	0.016313	0.017077	1066.59	66958.5
552	2.000000	1.153644	7.37045e+06	-49489.1	1005.82	-29758.8	0.000000	0.000000	7.154647	21.3445	NaN	0.000000	0.001654	0.001711	28.0809	17.6402	0.001808	9754.61	8.725986	-176.54	20.2936	1.153369	0.020232	0.019957	21.3445	9754.61	0.018591	0.020376	1047.54	62434.6
552	2.000000	1.156117	7.37045e+06	-49489.1	1005.82	-29758.8	0.000000	0.000000	7.157418	28.5984	NaN	0.000000	0.001648	0.001725	28.0808	20.3715	0.001722	11832.5	5.536054	3.864778	27.3555	1.155794	0.022704	0.022381	28.5984	11832.5	0.020891	0.023962	1193.47	69837
552	2.000000	1.158617	7.37045e+06	-49489.1	1005.82	-29758.8	0.000000	0.000000	7.160020	31.0888	NaN	0.000000	0.001584	0.001722	28.0809	24.2296	0.001913	12668	3.881624	-174.536	29.6058	1.158347	0.025204	0.024934	31.0888	12668	0.023364	0.028106	1106.13	69037.4
552	2.000000	1.161086	7.37045e+06	-49489.1	1005.82	-29758.8	0.000000	0.000000	7.162823	39.2199	NaN	0.000000	0.001627	0.001779	28.0806	26.8311	0.001799	14910.4	5.739989	1.110701	36.2592	1.160695	0.027673	0.027283	39.2199	14910.4	0.025700	0.032302	1214.16	75796
552	2.000000	1.163600	7.37045e+06	-49489.1	1005.82	-29758.8	0.000000	0.000000	7.165608	45.7951	NaN	0.000000	0.001615	0.001732	28.0807	29.0018	0.001880	15430.4	6.850531	-179.779	45.4338	1.163281	0.030188	0.029868	45.7951	15430.4	0.027962	0.036625	1250.37	73664.9
552	2.000000	1.166103	7.37045e+06	-49489.1	1005.82	-29758.8	0.000000	0.000000	7.168517	55.6645	NaN	0.000000	0.001628	0.001703	28.0819	31.7916	0.001886	16856.8	5.104773	1.984059	52.6804	1.165743	0.032690	0.032331	55.6645	16856.8	0.030213	0.041187	1351.5	75887.2
552	2.000000	1.168576	7.37045e+06	-49489.1	1005.82	-29758.8	0.000000	0.000000	7.171336	64.0794	NaN	0.000000	0.001561	0.001731	28.082	33.9803	0.001875	18118.6	10.763	175.747	62.8717	1.168240	0.035163	0.034828	64.0794	18118.6	0.032511	0.046108	1389.76	77092.1
552	2.000000	1.171130	7.37045e+06	-49489.1	1005.82	-29758.8	0.000000	0.000000	7.174336	74.9356	NaN	0.000000	0.001568	0.001685	28.0819	35.816	0.001658	21597.4	7.095148	-3.115960	73.7535	1.170739	0.037717	0.037326	74.9356	21597.4	0.035115	0.052014	1440.67	86519.3
552	2.000000	1.173535	7.37045e+06	-49489.1	1005.82	-29758.8	0.000000	0.000000	7.177156	85.0311	NaN	0.000000	0.001564	0.001682	28.0821	37.6903	0.001744	21611.6	6.470903	178.04	81.8507	1.173254	0.040122	0.039841	85.0311	21611.6	0.037171	0.056923	1493.8	82759.5
552	2.000000	1.176061	7.37045e+06	-49489.1	1005.82	-29758.8	0.000000	0.000000	7.179880	89.8188	NaN	0.000000	0.001582	0.001736	28.082	40.854	0.001820	22449.3	6.082273	-2.091679	87.7519	1.175714	0.042649	0.042301	89.8188	22449.3	0.039648	0.063122	1422.94	81636.7
552	2.000000	1.178514	7.37045e+06	-49489.1	1005.82	-29758.8	0.000000	0.000000	7.182899	103.605	NaN	0.000000	0.001574	0.001724	28.0819	43.977	0.001813	24251.1	7.115483	176.229	100.226	1.178212	0.045101	0.044800	103.605	24251.1	0.041897	0.069023	1501.01	84334.9
552	2.000000	1.181062	7.37045e+06	-49489.1	1005.82	-29758.8	0.000000	0.000000	7.185766	111.355	NaN	0.000000	0.001562	0.001696	28.082	45.3569	0.001700	26684.1	5.181015	-2.363364	108.195	1.180751	0.047650	0.047338	111.355	26684.1	0.044520	0.076231	1460.77	88300
552	2.000000	1.183506	7.37045e+06	-49489.1	1005.82	-29758.8	0.000000	0.000000	7.188689	123.009	NaN	0.000000	0.001591	0.001726	28.0824	47.6478	0.001836	25955.1	7.761935	175.114	119.736	1.183224	0.050094	0.049812	123.009	25955.1	0.046539	0.082017	1499.81	82802.7
552	2.000000	1.186113	7.37045e+06	-49489.1	1005.82	-29758.8	0.000000	0.000000	7.191762	134.347	NaN	0.000000	0.001612	0.001745	28.0824	51.0379	0.001758	29040	4.383750	-3.139692	133.664	1.185761	0.052701	0.052349	134.347	29040	0.049231	0.090051	1491.91	88415.1
552	2.000000	1.188628	7.37045e+06	-49489.1	1005.82	-29758.8	0.000000	0.000000	7.194428	138.001	NaN	0.000000	0.001617	0.001731	28.0821	53.8648	0.001809	29780.6	2.459742	178.232	137.886	1.188363	0.055216	0.054950	138.001	29780.6	0.051740	0.097868	1410.07	86973.2
552	2.000000	1.191040	7.37045e+06	-49489.1	1005.82	-29758.8	0.000000	0.000000	7.197788	161.059	NaN	0.000000	0.001605	0.001674	28.0821	54.6697	0.001716	31864.7	-1.121313	2.667249	158.294	1.190629	0.057627	0.057216	161.059	31864.7	0.053837	0.104640	1539.18	89998.4
552	2.000000	1.193554	7.37045e+06	-49489.1	1005.82	-29758.8	0.000000	0.000000	7.200810	173.417	NaN	0.000000	0.001526	0.001690	28.0822	57.2337	0.001768	32364.7	3.151494	178.046	171.71	1.193184	0.060141	0.059772	173.417	32364.7	0.056123	0.112273	1544.6	88248.4
552	2.000000	1.196030	7.37045e+06	-49489.1	1005.82	-29758.8	0.000000	0.000000	7.203700	183.47	NaN	0.000000	0.001533	0.001724	28.0822	60.5929	0.001866	32472.5	4.706686	-4.346693	180.278	1.195670	0.062618	0.062257	183.47	32472.5	0.058380	0.120065	1528.1	85621.1
552	2.000000	1.198562	7.37045e+06	-49489.1	1005.82	-29758.8	0.000000	0.000000	7.206630	193.172	NaN	0.000000	0.001530	0.001687	28.0821	62.1484	0.001803	34475.1	2.607165	177.362	191.939	1.198216	0.065150	0.064803	193.172	34475.1	0.060947	0.129227	1494.83	87620
552	2.000000	1.201152	7.37045e+06	-49489.1	1005.82	-29758.8	0.000000	0.000000	7.209743	205.897	NaN	0.000000	0.001541	0.001717	28.0809	64.9845	0.001786	36386.8	7.635250	-7.191180	208.7	1.200651	0.067739	0.067238	205.897	36386.8	0.063495	0.138640	1485.12	89284
552	2.000000	1.203619	7.37045e+06	-49489.1	1005.82	-29758.8	0.000000	0.000000	7.212837	221.132	NaN	0.000000	0.001577	0.001706	28.0808	66.7328	0.001942	34360.5	6.810478	174.435	223.367	1.203243	0.070206	0.069831	221.132	34360.5	0.065380	0.145802	1516.66	82214.9
552	2.000000	1.206071	7.37045e+06	-49489.1	1005.82	-29758.8	0.000000	0.000000	7.215776	232.968	NaN	0.000000	0.001566	0.001738	28.0808	68.5512	0.001762	38904.6	1.632785	-2.853708	230.413	1.205750	0.072659	0.072338	232.968	38904.6	0.068168	0.156714	1486.59	89788.6
552	2.000000	1.208580	7.37045e+06	-49489.1	1005.82	-29758.8	0.000000	0.000000	7.218604	240.73	NaN	0.000000	0.001594	0.001764	28.0808	72.1126	0.001785	40398.5	2.949047	175.728	240.019	1.208420	0.075167	0.075008	240.73	40398.5	0.070698	0.166940	1442.02	90335.5
552	2.000000	1.211098	7.37045e+06	-49489.1	1005.82	-29758.8	0.000000	0.000000	7.222033	262.886	NaN	0.000000	0.001621	0.001724	28.0807	73.4707	0.001710	42964.8	4.466456	-6.401450	262.132	1.210711	0.077686	0.077298	262.886	42964.8	0.073097	0.176913	1485.96	93326.6
552	2.000000	1.213553	7.37045e+06	-49489.1	1005.82	-29758.8	0.000000	0.000000	7.225025	275.95	NaN	0.000000	0.001633	0.001762	28.0807	75.6901	0.001632	46389.2	6.709914	171.218	275.038	1.213164	0.080141	0.079752	275.95	46389.2	0.075679	0.187955	1468.17	97760.5
552	2.000000	1.216039	7.37045e+06	-49489.1	1005.82	-29758.8	0.000000	0.000000	7.228003	287.906	NaN	0.000000	0.001605	0.001730	28.0807	78.7339	0.001758	44773.6	6.213629	-7.959475	287.089	1.215601	0.082627	0.082188	287.906	44773.6	0.077804	0.197274	1459.42	92100.2
552	2.000000	1.218510	7.37045e+06	-49489.1	1005.82	-29758.8	0.000000	0.000000	7.231219	306.032	NaN	0.000000	0.001635	0.001729	28.0807	81.3927	0.001755	46368.7	4.918954	173.013	303.851	1.218140	0.085098	0.084728	306.032	46368.7	0.080148	0.207800	1472.72	92934.2
552	2.000000	1.220972	7.37045e+06	-49489.1	1005.82	-29758.8	0.000000	0.000000	7.234392	323.333	NaN	0.000000	0.001617	0.001721	28.081	83.4937	0.001762	47396.6	6.763549	-9.064400	315.954	1.220720	0.087560	0.087308	323.333	47396.6	0.082443	0.218357	1480.75	92669.4
552	2.000000	1.223532	7.37045e+06	-49489.1	1005.82	-29758.8	0.000000	0.000000	7.237884	346.005	NaN	0.000000	0.001578	0.001737	28.0807	85.3132	0.001727	49390.9	7.218956	169.929	344.691	1.223171	0.090119	0.089759	346.005	49390.9	0.084865	0.229758	1505.96	94142.3
552	2.000000	1.225970	7.37045e+06	-49489.1	1005.82	-29758.8	0.000000	0.000000	7.240997	362.413	NaN	0.000000	0.001595	0.001746	28.0807	88.3937	0.001750	50513.3	4.291441	-7.426162	357.007	1.225650	0.092557	0.092238	362.413	50513.3	0.087176	0.240893	1504.45	94030
552	2.000000	1.228652	7.37045e+06	-49489.1	1005.82	-29758.8	0.000000	0.000000	7.244238	376.008	NaN	0.000000	0.001602	0.001750	28.0807	92.6016	0.001733	53422.6	4.534827	172.716	384.386	1.228218	0.095240	0.094805	376.008	53422.6	0.089961	0.254633	1476.66	96725.3
552	2.000000	1.231127	7.37045e+06	-49489.1	1005.82	-29758.8	0.000000	0.000000	7.247766	401.615	NaN	0.000000	0.001615	0.001768	28.0809	94.7279	0.001851	51163.2	7.708937	-9.930609	403.478	1.230630	0.097715	0.097218	401.615	51163.2	0.091828	0.264045	1521.01	90968.8
552	2.000000	1.233570	7.37046e+06	-49489.1	1005.82	-29758.8	0.000000	0.000000	7.250953	419.692	NaN	0.000000	0.001582	0.001723	28.0807	96.2745	0.001773	54309.2	5.577350	171.223	423.042	1.233301	0.100158	0.099889	419.692	54309.2	0.094362	0.277076	1514.72	94264.3
552	2.000000	1.235987	7.37046e+06	-49489.1	1005.82	-29758.8	0.000000	0.000000	7.254140	438.441	NaN	0.000000	0.001578	0.001757	28.0821	98.4684	0.001863	52864	0.927332	-3.756799	435.692	1.235709	0.102574	0.102297	438.441	52864	0.096354	0.287525	1524.88	90073.1
552	2.000000	1.238624	7.37046e+06	-49489.1	1005.82	-29758.8	0.000000	0.000000	7.257700	460.887	NaN	0.000000	0.001589	0.001736	28.082	100.563	0.001817	55334.1	3.358499	173.347	463.285	1.238278	0.105212	0.104865	460.887	55334.1	0.098965	0.301495	1528.67	92071.6
552	2.000000	1.240967	7.37046e+06	-49489.1	1005.82	-29758.8	0.000000	0.000000	7.260962	483.236	NaN	0.000000	0.001562	0.001729	28.0822	100.725	0.001721	58526	-1.010801	-2.348821	476.248	1.240594	0.107555	0.107182	483.236	58526	0.101362	0.314594	1536.06	95333.8
552	2.000000	1.242479	7.37046e+06	-49489.1	1005.82	-29758.8	0.000000	0.000000	7.263012	496.325	NaN	0.000000	0.001547	0.001736	28.0822	103.823	0.001718	60438.3	4.682135	171.416	495.14	1.242203	0.109066	0.108790	496.325	60438.3	0.102907	0.323174	1535.78	97133.1