File: remote_trans/data/nanoindenter/0828-1/data/Data_2025-08-06,11h17m57s/2025-07-22_16-23-58_1_1008.txt
2025-07-22, 16:23:58, 1
Index	Phase	Displacement	Time	Pos X	Pos Y	Pos Z	Rot A	Rot B	Piezo Z	Force A	Force B	Gripper	Voltage A	Voltage B	Temperature	Amplitude force	Amplitude pos	Stiffness	Phase shift	Phase excitation	Force A raw	Displacement raw	HMax	HMax raw	Real Force	Real Stiffness	Contact Depth	Area	Hardness	Reduced Mod.
[#]	[#]	[um]	[s]	[um]	[um]	[um]	[m°]	[m°]	[um]	[uN]	[uN]	[V]	[V]	[V]	[°C]	[uN]	[um]	[N/m]	[°]	[°]	[uN]	[um]	[um]	[um]	[uN]	[N/m]	[um]	[um^2]	[MPa]	[MPa]
1008	1.000000	0.002870	7.37491e+06	-50539.1	1055.82	-29755.3	0.000000	0.000000	6.002786	0.054355	NaN	0.000000	0.001630	0.001696	28.085	0.057619	0.000983	58.5938	-136.493	-164.838	0.032191	0.001565	-1.091372	-1.092677	0.054355	58.5938	-1.092068	-3.922653E+14	-1.385668E-16	NaN
1008	1.000000	0.012966	7.37491e+06	-50539.1	1055.82	-29755.3	0.000000	0.000000	6.012882	0.064178	NaN	0.000000	0.001620	0.001695	28.0847	0.120426	0.001187	101.485	-70.4775	13.5529	0.166259	0.011466	-1.081277	-1.082777	0.064178	101.485	-1.081751	-2.851247E+14	-2.250869E-16	NaN
1008	1.000000	0.022869	7.37491e+06	-50539.1	1055.82	-29755.3	0.000000	0.000000	6.022781	-0.022287	NaN	0.000000	0.001645	0.001656	28.0849	0.023207	0.001713	13.549	54.1182	-165.323	0.027605	0.021520	-1.071374	-1.072722	-0.022287	13.549	-1.070140	-1.991016E+14	1.119360E-16	NaN
1008	1.000000	0.032843	7.37491e+06	-50539.1	1055.82	-29755.3	0.000000	0.000000	6.032757	0.013862	NaN	0.000000	0.001590	0.001701	28.0846	0.059303	0.001971	30.082	-62.7823	12.2276	0.007177	0.031437	-1.061399	-1.062806	0.013862	30.082	-1.061745	-1.535576E+14	-9.026922E-17	NaN
1008	1.000000	0.042824	7.37491e+06	-50539.1	1055.82	-29755.3	0.000000	0.000000	6.042738	0.016506	NaN	0.000000	0.001601	0.001678	28.0853	0.114806	0.001915	59.9538	120.846	-163.264	0.021495	0.041513	-1.051418	-1.052730	0.016506	59.9538	-1.051625	-1.122680E+14	-1.470192E-16	NaN
1008	1.000000	0.052799	7.37491e+06	-50539.1	1055.82	-29755.3	0.000000	0.000000	6.052715	0.082238	NaN	0.000000	0.001589	0.001693	28.0846	0.048130	0.001902	25.3068	-57.1959	13.6112	0.056307	0.051503	-1.041444	-1.042740	0.082238	25.3068	-1.043881	-8.833960E+13	-9.309290E-16	NaN
1008	1.000000	0.062863	7.37491e+06	-50539.1	1055.82	-29755.3	0.000000	0.000000	6.062777	0.019276	NaN	0.000000	0.001595	0.001679	28.085	0.030322	0.001981	15.307	63.4716	-165.633	0.073492	0.061525	-1.031379	-1.032718	0.019276	15.307	-1.032324	-6.176425E+13	-3.120943E-16	NaN
1008	1.000000	0.072817	7.37491e+06	-50539.1	1055.82	-29755.3	0.000000	0.000000	6.072731	0.004356	NaN	0.000000	0.001595	0.001707	28.0847	0.077209	0.002013	38.3587	168.531	15.1464	0.078681	0.071431	-1.021425	-1.022812	0.004356	38.3587	-1.021511	-4.418513E+13	-9.857939E-17	NaN
1008	1.000000	0.082858	7.37491e+06	-50539.1	1055.82	-29755.3	0.000000	0.000000	6.082771	0.001503	NaN	0.000000	0.001565	0.001657	28.0838	0.020856	0.001814	11.4999	66.7272	-167.437	0.022678	0.081588	-1.011385	-1.012655	0.001503	11.4999	-1.011483	-3.238494E+13	-4.641393E-17	NaN
1008	1.000000	0.092852	7.37491e+06	-50539.1	1055.82	-29755.3	0.000000	0.000000	6.092771	0.132478	NaN	0.000000	0.001532	0.001676	28.0835	0.149537	0.002014	74.2667	-178.899	12.9974	0.055491	0.091518	-1.001390	-1.002725	0.132478	74.2667	-1.002728	-2.468882E+13	-5.365926E-15	NaN
1008	1.000000	0.102868	7.37491e+06	-50539.1	1055.82	-29755.3	0.000000	0.000000	6.102785	0.092412	NaN	0.000000	0.001573	0.001649	28.0835	0.050934	0.001975	25.7835	16.1132	-166.154	0.004553	0.101534	-0.991375	-0.992709	0.092412	25.7835	-0.994063	-1.887256E+13	-4.896613E-15	NaN
1008	1.000000	0.112855	7.37491e+06	-50539.1	1055.82	-29755.3	0.000000	0.000000	6.112768	-0.001213	NaN	0.000000	0.001583	0.001695	28.0836	0.001470	0.002072	0.709371	44.1029	16.7792	0.029036	0.111478	-0.981388	-0.982765	-0.001213	0.709371	-0.980106	-1.224152E+13	9.906554E-17	NaN
1008	1.000000	0.122853	7.37491e+06	-50539.1	1055.82	-29755.3	0.000000	0.000000	6.122767	0.021554	NaN	0.000000	0.001582	0.001722	28.0835	0.140606	0.001985	70.8378	83.3369	-165.061	0.034613	0.121528	-0.971390	-0.972715	0.021554	70.8378	-0.971618	-9.407291E+12	-2.291183E-15	NaN
1008	1.000000	0.132869	7.37491e+06	-50539.1	1055.82	-29755.3	0.000000	0.000000	6.132783	0.036292	NaN	0.000000	0.001616	0.001664	28.0835	0.042118	0.001885	22.3421	-126.172	17.5521	0.001364	0.131498	-0.961374	-0.962745	0.036292	22.3421	-0.962593	-7.109183E+12	-5.104937E-15	NaN
1008	1.000000	0.142875	7.37491e+06	-50539.1	1055.82	-29755.3	0.000000	0.000000	6.142789	0.009792	NaN	0.000000	0.001604	0.001691	28.0835	0.040415	0.001964	20.5791	-100.662	-167.645	0.009412	0.141563	-0.951368	-0.952679	0.009792	20.5791	-0.951725	-5.073250E+12	-1.930043E-15	NaN
1008	1.000000	0.152880	7.37491e+06	-50539.1	1055.82	-29755.3	0.000000	0.000000	6.152792	-0.021528	NaN	0.000000	0.001574	0.001664	28.0838	0.035203	0.002055	17.1293	-153.756	11.7384	0.020170	0.151522	-0.941363	-0.942721	-0.021528	17.1293	-0.940420	-3.571147E+12	6.028324E-15	NaN
1008	1.000000	0.162877	7.37491e+06	-50539.1	1055.82	-29755.3	0.000000	0.000000	6.162791	0.028343	NaN	0.000000	0.001597	0.001700	28.0835	0.054236	0.001990	27.2592	122.725	-167.474	0.070989	0.161566	-0.931366	-0.932676	0.028343	27.2592	-0.932146	-2.761586E+12	-1.026343E-14	NaN
1008	1.000000	0.172876	7.37491e+06	-50539.1	1055.82	-29755.3	0.000000	0.000000	6.172794	0.108391	NaN	0.000000	0.001625	0.001639	28.0833	0.072974	0.002075	35.1718	150.316	12.341	0.041804	0.171560	-0.921366	-0.922683	0.108391	35.1718	-0.923678	-2.122551E+12	-5.106635E-14	NaN
1008	1.000000	0.182871	7.37491e+06	-50539.1	1055.82	-29755.3	0.000000	0.000000	6.182787	0.046501	NaN	0.000000	0.001576	0.001693	28.0836	0.085285	0.002106	40.4931	13.9857	-165.208	0.011432	0.181579	-0.911371	-0.912664	0.046501	40.4931	-0.912233	-1.487024E+12	-3.127087E-14	NaN
1008	1.000000	0.192891	7.37491e+06	-50539.1	1055.82	-29755.3	0.000000	0.000000	6.192806	0.048139	NaN	0.000000	0.001589	0.001653	28.0832	0.137959	0.002027	68.0713	-0.009860	15.0701	-0.046480	0.191447	-0.901352	-0.902795	0.048139	68.0713	-0.901882	-1.077699E+12	-4.466846E-14	NaN
1008	1.000000	0.202891	7.37491e+06	-50539.1	1055.82	-29755.3	0.000000	0.000000	6.202806	0.038601	NaN	0.000000	0.001583	0.001677	28.0836	0.001007	0.001985	0.507596	-90.4434	-167.722	0.039582	0.201600	-0.891351	-0.892643	0.038601	0.507596	-0.948387	-4.573719E+12	-8.439777E-15	NaN
1008	1.000000	0.212912	7.37491e+06	-50539.1	1055.82	-29755.3	0.000000	0.000000	6.212827	0.022310	NaN	0.000000	0.001618	0.001712	28.0842	0.091474	0.001857	49.2616	-71.2866	13.3237	-0.028712	0.211548	-0.881330	-0.882695	0.022310	49.2616	-0.881670	-5.745024E+11	-3.883415E-14	NaN
1008	1.000000	0.222885	7.37491e+06	-50539.1	1055.82	-29755.3	0.000000	0.000000	6.222798	-0.003085	NaN	0.000000	0.001592	0.001702	28.0849	0.089047	0.001950	45.6709	-100.082	-164.489	-0.023016	0.221579	-0.871358	-0.872664	-0.003085	45.6709	-0.871307	-4.160360E+11	7.414440E-15	NaN
1008	1.000000	0.232910	7.37491e+06	-50539.1	1055.82	-29755.3	0.000000	0.000000	6.232825	0.051107	NaN	0.000000	0.001555	0.001679	28.0847	0.036934	0.002035	18.1538	-179.194	13.6662	0.084595	0.231500	-0.861333	-0.862743	0.051107	18.1538	-0.863444	-3.256384E+11	-1.569432E-13	NaN
1008	1.000000	0.242930	7.37491e+06	-50539.1	1055.82	-29755.3	0.000000	0.000000	6.242842	-0.038881	NaN	0.000000	0.001607	0.001628	28.0849	0.032588	0.002030	16.0505	141.009	-165.22	-0.066312	0.241591	-0.851313	-0.852652	-0.038881	16.0505	-0.849496	-2.108209E+11	1.844273E-13	NaN
1008	1.000000	0.252927	7.37491e+06	-50539.1	1055.82	-29755.3	0.000000	0.000000	6.252840	-0.010932	NaN	0.000000	0.001530	0.001690	28.0848	0.095112	0.002059	46.1962	-167.108	14.2913	0.018061	0.251590	-0.841316	-0.842652	-0.010932	46.1962	-0.841138	-1.624479E+11	6.729660E-14	NaN
1008	1.000000	0.262896	7.37491e+06	-50539.1	1055.82	-29755.3	0.000000	0.000000	6.262807	-0.046772	NaN	0.000000	0.001585	0.001641	28.0847	0.080792	0.001948	41.4819	163.218	-163.267	-0.044865	0.261638	-0.831347	-0.832605	-0.046772	41.4819	-0.830502	-1.165692E+11	4.012371E-13	NaN
1008	1.000000	0.272939	7.37491e+06	-50539.1	1055.82	-29755.3	0.000000	0.000000	6.272853	0.014023	NaN	0.000000	0.001607	0.001667	28.0846	0.061730	0.002022	30.5252	103.862	13.8643	-0.038894	0.271573	-0.821304	-0.822670	0.014023	30.5252	-0.821648	-8.842210E+10	-1.585928E-13	NaN
1008	1.000000	0.282952	7.37491e+06	-50539.1	1055.82	-29755.3	0.000000	0.000000	6.282869	0.091177	NaN	0.000000	0.001603	0.001670	28.0847	0.054106	0.001990	27.1886	73.5587	-162.016	0.113890	0.281596	-0.811291	-0.812647	0.091177	27.1886	-0.813806	-6.921513E+10	-1.317293E-12	NaN
1008	1.000000	0.292976	7.37491e+06	-50539.1	1055.82	-29755.3	0.000000	0.000000	6.292893	0.095045	NaN	0.000000	0.001627	0.001678	28.0849	0.033841	0.001895	17.8611	-166.218	16.9649	0.076939	0.291567	-0.801267	-0.802675	0.095045	17.8611	-0.805258	-5.299395E+10	-1.793515E-12	NaN
1008	1.000000	0.302925	7.37491e+06	-50539.1	1055.82	-29755.3	0.000000	0.000000	6.302836	-0.044106	NaN	0.000000	0.001568	0.001691	28.0846	0.035140	0.001982	17.7304	-131.194	-164.126	-0.029238	0.301646	-0.791318	-0.792597	-0.044106	17.7304	-0.789452	-3.233302E+10	1.364130E-12	NaN
1008	1.000000	0.312943	7.37491e+06	-50539.1	1055.82	-29755.3	0.000000	0.000000	6.312854	-0.053294	NaN	0.000000	0.001607	0.001671	28.0849	0.072289	0.001845	39.1848	-113.193	12.3641	-0.133881	0.311559	-0.781300	-0.782684	-0.053294	39.1848	-0.780280	-2.426792E+10	2.196083E-12	NaN
1008	1.000000	0.322963	7.37491e+06	-50539.1	1055.82	-29755.3	0.000000	0.000000	6.322878	0.045993	NaN	0.000000	0.001578	0.001694	28.0849	0.054494	0.002086	26.1196	-82.0195	-167.054	0.082848	0.321636	-0.771280	-0.772607	0.045993	26.1196	-0.772600	-1.908354E+10	-2.410105E-12	NaN
1008	1.000000	0.332949	7.37491e+06	-50539.1	1055.82	-29755.3	0.000000	0.000000	6.332864	0.037114	NaN	0.000000	0.001603	0.001695	28.085	0.036870	0.002072	17.7957	121.027	12.4462	0.017937	0.331632	-0.761293	-0.762610	0.037114	17.7957	-0.762858	-1.406615E+10	-2.638536E-12	NaN
1008	1.000000	0.342957	7.37491e+06	-50539.1	1055.82	-29755.3	0.000000	0.000000	6.342869	-0.020246	NaN	0.000000	0.001566	0.001722	28.0847	0.048184	0.001972	24.4332	36.2255	-167.158	0.054406	0.341666	-0.751286	-0.752577	-0.020246	24.4332	-0.750664	-9.599844E+9	2.109012E-12	NaN
1008	1.000000	0.352944	7.37491e+06	-50539.1	1055.82	-29755.3	0.000000	0.000000	6.352856	-0.029111	NaN	0.000000	0.001585	0.001712	28.0836	0.055003	0.001932	28.4695	-129.542	10.9125	-0.004662	0.351604	-0.741299	-0.742639	-0.029111	28.4695	-0.740532	-6.987114E+9	4.166322E-12	NaN
1008	1.000000	0.362963	7.37491e+06	-50539.1	1055.82	-29755.3	0.000000	0.000000	6.362877	0.022044	NaN	0.000000	0.001584	0.001714	28.0838	0.066489	0.002066	32.182	164.618	-165.467	0.005739	0.361622	-0.731280	-0.732621	0.022044	32.182	-0.731794	-5.311951E+9	-4.149840E-12	NaN
1008	1.000000	0.372995	7.37491e+06	-50539.1	1055.82	-29755.3	0.000000	0.000000	6.372906	-0.050651	NaN	0.000000	0.001605	0.001698	28.0837	0.092682	0.002058	45.0412	-41.7105	12.3859	-0.044830	0.371592	-0.721248	-0.722651	-0.050651	45.0412	-0.720405	-3.715279E+9	1.363303E-11	NaN
1008	1.000000	0.382953	7.37491e+06	-50539.1	1055.82	-29755.3	0.000000	0.000000	6.382867	0.016043	NaN	0.000000	0.001603	0.001675	28.0834	0.018438	0.002075	8.886232	171.092	-164.963	-0.024229	0.381698	-0.711290	-0.712545	0.016043	8.886232	-0.712644	-2.911573E+9	-5.509947E-12	NaN
1008	1.000000	0.392977	7.37491e+06	-50539.1	1055.82	-29755.3	0.000000	0.000000	6.392892	0.054948	NaN	0.000000	0.001553	0.001703	28.0836	0.113620	0.001980	57.3904	96.7202	13.7359	0.097535	0.391651	-0.701266	-0.702592	0.054948	57.3904	-0.701984	-2.082710E+9	-2.638302E-11	NaN
1008	1.000000	0.402973	7.37491e+06	-50539.1	1055.82	-29755.3	0.000000	0.000000	6.402887	0.041744	NaN	0.000000	0.001600	0.001718	28.0836	0.032374	0.002036	15.9005	57.7763	-165.809	0.050112	0.401690	-0.691270	-0.692553	0.041744	15.9005	-0.693239	-1.581909E+9	-2.638841E-11	NaN
1008	1.000000	0.412973	7.37491e+06	-50539.1	1055.82	-29755.3	0.000000	0.000000	6.412889	0.063265	NaN	0.000000	0.001594	0.001658	28.0835	0.070842	0.002007	35.2993	99.8529	15.0947	0.028166	0.411623	-0.681269	-0.682620	0.063265	35.2993	-0.682614	-1.132260E+9	-5.587480E-11	NaN
1008	1.000000	0.422988	7.37491e+06	-50539.1	1055.82	-29755.3	0.000000	0.000000	6.422901	-0.016923	NaN	0.000000	0.001604	0.001727	28.0834	0.108247	0.002021	53.5562	141.193	-167.135	0.059056	0.421635	-0.671254	-0.672608	-0.016923	53.5562	-0.671017	-7.858067E+8	2.153621E-11	NaN
1008	1.000000	0.433012	7.37491e+06	-50539.1	1055.82	-29755.3	0.000000	0.000000	6.432926	0.026552	NaN	0.000000	0.001602	0.001727	28.0842	0.148594	0.001992	74.6027	29.7867	15.646	-0.024193	0.431619	-0.661231	-0.662623	0.026552	74.6027	-0.661498	-5.820892E+8	-4.561564E-11	NaN
1008	1.000000	0.443014	7.37491e+06	-50539.1	1055.82	-29755.3	0.000000	0.000000	6.442925	-0.045273	NaN	0.000000	0.001593	0.001749	28.0835	0.071070	0.001879	37.83	117.118	-169.87	-0.059880	0.441639	-0.651229	-0.652604	-0.045273	37.83	-0.650331	-4.092397E+8	1.106266E-10	NaN
1008	1.000000	0.452987	7.37491e+06	-50539.1	1055.82	-29755.3	0.000000	0.000000	6.452902	0.030075	NaN	0.000000	0.001536	0.001724	28.0836	0.047423	0.001912	24.7968	163.381	12.2967	-0.031116	0.451725	-0.641256	-0.642517	0.030075	24.7968	-0.642165	-3.162244E+8	-9.510693E-11	NaN
1008	1.000000	0.463013	7.37491e+06	-50539.1	1055.82	-29755.3	0.000000	0.000000	6.462928	0.027241	NaN	0.000000	0.001564	0.001752	28.0835	0.083271	0.001955	42.6039	128.58	-164.377	0.007250	0.461674	-0.631229	-0.632569	0.027241	42.6039	-0.631709	-2.272424E+8	-1.198763E-10	NaN
1008	1.000000	0.473032	7.37491e+06	-50539.1	1055.82	-29755.3	0.000000	0.000000	6.472950	0.097294	NaN	0.000000	0.001587	0.001773	28.0836	0.027750	0.001885	14.7253	137.32	10.6953	0.042795	0.471623	-0.621210	-0.622619	0.097294	14.7253	-0.626166	-1.907045E+8	-5.101805E-10	NaN
1008	1.000000	0.483031	7.37491e+06	-50539.1	1055.82	-29755.3	0.000000	0.000000	6.482946	0.037242	NaN	0.000000	0.001576	0.001768	28.0833	0.207641	0.002097	99.0095	60.5868	-166.784	0.089794	0.481713	-0.611212	-0.612530	0.037242	99.0095	-0.611494	-1.198587E+8	-3.107188E-10	NaN
1008	1.000000	0.493013	7.37491e+06	-50539.1	1055.82	-29755.3	0.000000	0.000000	6.492931	0.114480	NaN	0.000000	0.001588	0.001733	28.0847	0.100600	0.002096	47.9925	-168.421	15.1654	0.121083	0.491610	-0.601230	-0.602633	0.114480	47.9925	-0.603019	-9.162809E+7	-1.249399E-9	NaN
1008	1.000000	0.503012	7.37491e+06	-50539.1	1055.82	-29755.3	0.000000	0.000000	6.502926	0.010269	NaN	0.000000	0.001592	0.001711	28.0848	0.058574	0.002021	28.9842	-44.2382	-164.059	0.036271	0.501689	-0.591231	-0.592554	0.010269	28.9842	-0.591497	-6.357654E+7	-1.615293E-10	NaN
1008	1.000000	0.513049	7.37491e+06	-50539.1	1055.82	-29755.3	0.000000	0.000000	6.512966	0.110326	NaN	0.000000	0.001531	0.001753	28.0847	0.027417	0.002115	12.9657	-41.7986	12.322	0.136672	0.511697	-0.581194	-0.582546	0.110326	12.9657	-0.587576	-5.613601E+7	-1.965326E-9	NaN
1008	1.000000	0.523044	7.37491e+06	-50539.1	1055.82	-29755.3	0.000000	0.000000	6.522958	0.012209	NaN	0.000000	0.001559	0.001744	28.0848	0.071249	0.002038	34.964	165.561	-166.685	-0.004979	0.521745	-0.571199	-0.572498	0.012209	34.964	-0.571461	-3.363660E+7	-3.629570E-10	NaN
1008	1.000000	0.533040	7.37491e+06	-50539.1	1055.82	-29755.3	0.000000	0.000000	6.532955	0.037762	NaN	0.000000	0.001561	0.001742	28.0844	0.068568	0.001958	35.0133	-47.2376	12.9082	-0.034259	0.531639	-0.561203	-0.562604	0.037762	35.0133	-0.562011	-2.490000E+7	-1.516530E-9	NaN
1008	1.000000	0.543015	7.37491e+06	-50539.1	1055.82	-29755.3	0.000000	0.000000	6.542930	0.045512	NaN	0.000000	0.001592	0.001720	28.0848	0.116830	0.001936	60.3323	128.743	-164.781	0.039449	0.541721	-0.551228	-0.552522	0.045512	60.3323	-0.551794	-1.798053E+7	-2.531200E-9	NaN
1008	1.000000	0.553045	7.37491e+06	-50539.1	1055.82	-29755.3	0.000000	0.000000	6.552959	0.022167	NaN	0.000000	0.001620	0.001750	28.0845	0.058296	0.002051	28.4268	-141.523	13.1207	0.023290	0.551655	-0.541198	-0.542587	0.022167	28.4268	-0.541783	-1.306427E+7	-1.696750E-9	NaN
1008	1.000000	0.563025	7.37491e+06	-50539.1	1055.82	-29755.3	0.000000	0.000000	6.562936	-0.056083	NaN	0.000000	0.001569	0.001746	28.0846	0.082163	0.002207	37.2362	-45.5947	-166.894	0.027842	0.561774	-0.531218	-0.532468	-0.056083	37.2362	-0.530088	-8.99077e+06	6.237851E-9	NaN
1008	1.000000	0.573085	7.37491e+06	-50539.1	1055.82	-29755.3	0.000000	0.000000	6.572999	-0.002167	NaN	0.000000	0.001535	0.001703	28.0847	0.010377	0.002017	5.145660	-9.604737	10.7095	-0.013142	0.571677	-0.521157	-0.522566	-0.002167	5.145660	-0.520842	-6.68806e+06	3.240413E-10	NaN
1008	1.000000	0.583043	7.37491e+06	-50539.1	1055.82	-29755.3	0.000000	0.000000	6.582957	0.033847	NaN	0.000000	0.001628	0.001746	28.0846	0.088607	0.002011	44.0615	-87.8438	-165.297	0.013559	0.581778	-0.511200	-0.512464	0.033847	44.0615	-0.511776	-5.00214e+06	-6.766583E-9	NaN
1008	1.000000	0.593054	7.37491e+06	-50539.1	1055.82	-29755.3	0.000000	0.000000	6.592971	0.088515	NaN	0.000000	0.001665	0.001725	28.0845	0.047791	0.002109	22.6551	-85.4356	13.1701	0.114917	0.591718	-0.501188	-0.502525	0.088515	22.6551	-0.504119	-3.91253e+06	-2.262344E-8	NaN
1008	1.000000	0.603074	7.37491e+06	-50539.1	1055.82	-29755.3	0.000000	0.000000	6.602987	-0.005725	NaN	0.000000	0.001617	0.001693	28.0846	0.173030	0.002012	86.0034	69.2318	-166.918	-0.016997	0.601721	-0.491169	-0.492522	-0.005725	86.0034	-0.491119	-2.57647e+06	2.222148E-9	NaN
1008	1.000000	0.613087	7.37491e+06	-50539.1	1055.82	-29755.3	0.000000	0.000000	6.613001	0.022749	NaN	0.000000	0.001635	0.001748	28.0848	0.087559	0.001924	45.502	42.8235	14.8945	0.097810	0.611755	-0.481156	-0.482487	0.022749	45.502	-0.481531	-1.89213e+06	-1.202317E-8	NaN
1008	1.000000	0.623108	7.37491e+06	-50539.1	1055.82	-29755.3	0.000000	0.000000	6.623021	-0.004937	NaN	0.000000	0.001577	0.001710	28.0838	0.030097	0.001943	15.4909	-102.74	-165.014	0.028900	0.621811	-0.471135	-0.472432	-0.004937	15.4909	-0.470896	-1.34266e+06	3.676958E-9	NaN
1008	1.000000	0.633087	7.37491e+06	-50539.1	1055.82	-29755.3	0.000000	0.000000	6.633003	0.059467	NaN	0.000000	0.001581	0.001728	28.0831	0.109010	0.001922	56.719	140.296	14.5221	-0.002221	0.631738	-0.461156	-0.462505	0.059467	56.719	-0.461942	-1.00532e+06	-5.915282E-8	NaN
1008	1.000000	0.643054	7.37491e+06	-50539.1	1055.82	-29755.3	0.000000	0.000000	6.642970	0.059507	NaN	0.000000	0.001566	0.001765	28.0837	0.037743	0.002042	18.4848	83.2463	-165.587	0.019795	0.641833	-0.451189	-0.452409	0.059507	18.4848	-0.453603	-767472	-7.753619E-8	NaN
1008	1.000000	0.653061	7.37491e+06	-50539.1	1055.82	-29755.3	0.000000	0.000000	6.652979	0.115075	NaN	0.000000	0.001569	0.001753	28.0835	0.014118	0.002070	6.820233	-95.7451	15.6732	0.072999	0.651714	-0.441182	-0.442529	0.115075	6.820233	-0.453836	-773289	-1.488123E-7	NaN
1008	1.000000	0.663073	7.37491e+06	-50539.1	1055.82	-29755.3	0.000000	0.000000	6.662987	0.020423	NaN	0.000000	0.001561	0.001738	28.0836	0.123681	0.002035	60.7908	27.1787	-165.442	-0.015562	0.661801	-0.431170	-0.432442	0.020423	60.7908	-0.431422	-373401	-5.469343E-8	NaN
1008	1.000000	0.673114	7.37491e+06	-50539.1	1055.82	-29755.3	0.000000	0.000000	6.673030	0.054310	NaN	0.000000	0.001550	0.001752	28.0833	0.066772	0.002074	32.2016	-86.0867	16.8348	0.059717	0.671745	-0.421128	-0.422498	0.054310	32.2016	-0.422393	-278194	-1.952216E-7	NaN
1008	1.000000	0.683099	7.37491e+06	-50539.1	1055.82	-29755.3	0.000000	0.000000	6.683015	0.075302	NaN	0.000000	0.001556	0.001790	28.0839	0.141655	0.001951	72.6153	-5.430151	-166.417	0.048521	0.681777	-0.411144	-0.412466	0.075302	72.6153	-0.411922	-197571	-3.811409E-7	NaN
1008	1.000000	0.693092	7.37491e+06	-50539.1	1055.82	-29755.3	0.000000	0.000000	6.693007	0.054645	NaN	0.000000	0.001638	0.001767	28.0834	0.051643	0.001947	26.5271	-64.3999	14.9174	-0.050265	0.691711	-0.401151	-0.402532	0.054645	26.5271	-0.402696	-146024	-3.742193E-7	NaN
1008	1.000000	0.703113	7.37491e+06	-50539.1	1055.82	-29755.3	0.000000	0.000000	6.703027	0.032005	NaN	0.000000	0.001596	0.001738	28.0838	0.080600	0.001946	41.4091	108.213	-165.017	0.013915	0.701818	-0.391130	-0.392425	0.032005	41.4091	-0.391710	-101769	-3.144908E-7	NaN
1008	1.000000	0.713111	7.37491e+06	-50539.1	1055.82	-29755.3	0.000000	0.000000	6.713026	0.042572	NaN	0.000000	0.001545	0.001709	28.0835	0.109878	0.001893	58.0293	42.0783	13.3516	0.012233	0.711778	-0.381132	-0.382464	0.042572	58.0293	-0.381682	-73118.4	-5.822314E-7	NaN
1008	1.000000	0.723131	7.37491e+06	-50539.1	1055.82	-29755.3	0.000000	0.000000	6.723044	-0.009652	NaN	0.000000	0.001559	0.001733	28.0841	0.037090	0.002015	18.4054	20.522	-170.656	0.066855	0.721810	-0.371112	-0.372433	-0.009652	18.4054	-0.370718	-50871.2	1.897340E-7	NaN
1008	1.000000	0.733109	7.37491e+06	-50539.1	1055.82	-29755.3	0.000000	0.000000	6.733023	0.032079	NaN	0.000000	0.001559	0.001724	28.0835	0.045282	0.002014	22.4791	89.8245	13.1286	0.025921	0.731775	-0.361134	-0.362468	0.032079	22.4791	-0.362204	-38343.9	-8.366245E-7	NaN
1008	1.000000	0.743133	7.37491e+06	-50539.1	1055.82	-29755.3	0.000000	0.000000	6.743049	0.065257	NaN	0.000000	0.001537	0.001748	28.0835	0.078645	0.002019	38.9617	-143.559	-165.489	0.066622	0.741835	-0.351109	-0.352408	0.065257	38.9617	-0.352366	-27626.1	-2.362148E-6	NaN
1008	1.000000	0.753112	7.37491e+06	-50539.1	1055.82	-29755.3	0.000000	0.000000	6.753027	0.031206	NaN	0.000000	0.001584	0.001714	28.0834	0.013176	0.001989	6.623978	170.23	12.7766	0.044715	0.751735	-0.341130	-0.342508	0.031206	6.623978	-0.344664	-21353.2	-1.461396E-6	NaN
1008	1.000000	0.763114	7.37491e+06	-50539.1	1055.82	-29755.3	0.000000	0.000000	6.763028	0.031939	NaN	0.000000	0.001546	0.001741	28.0849	0.082238	0.001997	41.1777	94.4653	-166.556	0.096769	0.761829	-0.331129	-0.332414	0.031939	41.1777	-0.331711	-13819.5	-2.311131E-6	NaN
1008	1.000000	0.773140	7.37491e+06	-50539.1	1055.82	-29755.3	0.000000	0.000000	6.773056	0.061901	NaN	0.000000	0.001638	0.001723	28.0844	0.144544	0.002192	65.9435	-140.167	13.4274	0.011376	0.771842	-0.321103	-0.322401	0.061901	65.9435	-0.321807	-9890.63	-6.258516E-6	NaN
1008	1.000000	0.783120	7.37491e+06	-50539.1	1055.82	-29755.3	0.000000	0.000000	6.783037	0.074044	NaN	0.000000	0.001634	0.001723	28.0847	0.093670	0.002116	44.2625	-178.397	-167.019	0.177794	0.781858	-0.311122	-0.312385	0.074044	44.2625	-0.312377	-7181.4	-1.031058E-5	NaN
1008	1.000000	0.793156	7.37491e+06	-50539.1	1055.82	-29755.3	0.000000	0.000000	6.793071	0.037941	NaN	0.000000	0.001621	0.001745	28.0847	0.053641	0.001923	27.8899	-116.218	17.4547	0.071288	0.791816	-0.301086	-0.302427	0.037941	27.8899	-0.302107	-5057.99	-7.501221E-6	NaN
1008	1.000000	0.803121	7.37491e+06	-50539.1	1055.82	-29755.3	0.000000	0.000000	6.803039	0.114488	NaN	0.000000	0.001654	0.001679	28.0848	0.015299	0.002038	7.508534	131.448	-164.49	0.130353	0.801853	-0.291122	-0.292390	0.114488	7.508534	-0.302557	-5136.62	-2.228858E-5	NaN
1008	1.000000	0.813166	7.37491e+06	-50539.1	1055.82	-29755.3	0.000000	0.000000	6.813082	0.077930	NaN	0.000000	0.001638	0.001734	28.0846	0.058591	0.002121	27.626	122.123	15.7688	0.025073	0.811833	-0.281077	-0.282410	0.077930	27.626	-0.283193	-2636.82	-2.955449E-5	NaN
1008	1.000000	0.823145	7.37491e+06	-50539.1	1055.82	-29755.3	0.000000	0.000000	6.823059	0.025899	NaN	0.000000	0.001645	0.001684	28.0845	0.084834	0.001936	43.8213	169.64	-164.835	0.099150	0.821846	-0.271098	-0.272397	0.025899	43.8213	-0.271541	-1757.74	-1.473415E-5	NaN
1008	1.000000	0.833168	7.37491e+06	-50539.1	1055.82	-29755.3	0.000000	0.000000	6.833083	0.041380	NaN	0.000000	0.001645	0.001677	28.0859	0.126251	0.002079	60.7208	49.3817	11.3311	-0.022976	0.831811	-0.261075	-0.262432	0.041380	60.7208	-0.261586	-1239.38	-3.338764E-5	NaN
1008	1.000000	0.843164	7.37491e+06	-50539.1	1055.82	-29755.3	0.000000	0.000000	6.843078	0.017437	NaN	0.000000	0.001664	0.001732	28.0847	0.041444	0.001994	20.7845	129.297	-169.371	0.112421	0.841821	-0.251078	-0.252421	0.017437	20.7845	-0.251708	-873.687	-1.995797E-5	NaN
1008	1.000000	0.853185	7.37491e+06	-50539.1	1055.82	-29755.3	0.000000	0.000000	6.853100	0.050060	NaN	0.000000	0.001643	0.001696	28.0843	0.054900	0.001977	27.7709	-178.153	13.5027	0.016439	0.851814	-0.241058	-0.242429	0.050060	27.7709	-0.242410	-626.829	-7.986252E-5	NaN
1008	1.000000	0.863165	7.37491e+06	-50539.1	1055.82	-29755.3	0.000000	0.000000	6.863081	0.084643	NaN	0.000000	0.001646	0.001731	28.0845	0.125484	0.002039	61.5387	-102.33	-169.986	0.110288	0.861860	-0.231078	-0.232383	0.084643	61.5387	-0.232110	-432.304	-0.000196	NaN
1008	1.000000	0.873192	7.37491e+06	-50539.1	1055.82	-29755.3	0.000000	0.000000	6.873106	0.013167	NaN	0.000000	0.001588	0.001741	28.0846	0.058440	0.002072	28.1993	164.737	15.852	0.020021	0.871824	-0.221051	-0.222418	0.013167	28.1993	-0.221401	-292.446	-4.502271E-5	NaN
1008	1.000000	0.883204	7.37491e+06	-50539.1	1055.82	-29755.3	0.000000	0.000000	6.883121	0.090647	NaN	0.000000	0.001569	0.001763	28.0843	0.033441	0.002080	16.075	131.195	-165.282	0.032299	0.881877	-0.211039	-0.212366	0.090647	16.075	-0.215268	-233.251	-0.000389	NaN
1008	1.000000	0.893188	7.37491e+06	-50539.1	1055.82	-29755.3	0.000000	0.000000	6.893103	0.022994	NaN	0.000000	0.001583	0.001744	28.0844	0.016768	0.001997	8.396604	125.422	14.0101	0.066482	0.891844	-0.201054	-0.202399	0.022994	8.396604	-0.203108	-148.135	-0.000155	NaN
1008	1.000000	0.903166	7.37491e+06	-50539.1	1055.82	-29755.3	0.000000	0.000000	6.903080	0.018190	NaN	0.000000	0.001594	0.001736	28.0832	0.053280	0.001976	26.9698	-142.997	-164.348	0.043125	0.901903	-0.191077	-0.192340	0.018190	26.9698	-0.191583	-95.595	-0.000190	NaN
1008	1.000000	0.913153	7.37491e+06	-50539.1	1055.82	-29755.3	0.000000	0.000000	6.913063	-0.067811	NaN	0.000000	0.001604	0.001730	28.0833	0.022813	0.001899	12.0153	87.6485	12.1236	0.069152	0.911824	-0.181090	-0.182419	-0.067811	12.0153	-0.176857	-53.9306	0.001257	NaN
1008	1.000000	0.923193	7.37491e+06	-50539.1	1055.82	-29755.3	0.000000	0.000000	6.923110	0.094157	NaN	0.000000	0.001576	0.001710	28.083	0.173246	0.002090	82.897	0.211203	-167.773	0.172237	0.921921	-0.171050	-0.172322	0.094157	82.897	-0.171901	-44.3165	-0.002125	NaN
1008	1.000000	0.933200	7.37491e+06	-50539.1	1055.82	-29755.3	0.000000	0.000000	6.933116	0.082332	NaN	0.000000	0.001650	0.001707	28.0834	0.046017	0.001959	23.4911	-168.622	16.2154	0.040203	0.931797	-0.161043	-0.162445	0.082332	23.4911	-0.163672	-31.8379	-0.002586	NaN
1008	1.000000	0.943198	7.37491e+06	-50539.1	1055.82	-29755.3	0.000000	0.000000	6.943118	0.159754	NaN	0.000000	0.001679	0.001749	28.0835	0.065112	0.002026	32.1409	-102.144	-164.578	0.118491	0.941884	-0.151044	-0.152359	0.159754	32.1409	-0.154772	-22.1044	-0.007227	NaN
1008	1.000000	0.953208	7.37491e+06	-50539.1	1055.82	-29755.3	0.000000	0.000000	6.953121	0.005069	NaN	0.000000	0.001652	0.001732	28.0832	0.086737	0.001798	48.2444	0.414676	15.2282	0.037410	0.951851	-0.141035	-0.142391	0.005069	48.2444	-0.141114	-12.4124	-0.000408	NaN
1008	1.000000	0.963240	7.37491e+06	-50539.1	1055.82	-29755.3	0.000000	0.000000	6.963154	0.017272	NaN	0.000000	0.001630	0.001734	28.0831	0.113707	0.002136	53.2408	179.38	-163.912	0.029398	0.961935	-0.131003	-0.132308	0.017272	53.2408	-0.131246	-8.056890	-0.002144	NaN
1008	1.000000	0.973248	7.37491e+06	-50539.1	1055.82	-29755.3	0.000000	0.000000	6.973161	0.005836	NaN	0.000000	0.001589	0.001720	28.0834	0.038666	0.001987	19.4574	-37.8186	14.3585	0.107045	0.971857	-0.120995	-0.122386	0.005836	19.4574	-0.121220	-5.112572	-0.001142	NaN
1008	1.000000	0.983208	7.37491e+06	-50539.1	1055.82	-29755.3	0.000000	0.000000	6.983126	0.122938	NaN	0.000000	0.001594	0.001739	28.0832	0.130629	0.001995	65.4806	-170.29	-166.629	0.070700	0.981914	-0.111035	-0.112329	0.122938	65.4806	-0.112443	-3.381394	-0.036357	NaN
1008	1.000000	0.993222	7.37491e+06	-50539.1	1055.82	-29755.3	0.000000	0.000000	6.993135	-0.008499	NaN	0.000000	0.001642	0.001745	28.0835	0.026752	0.002036	13.1379	-54.4932	16.4303	0.025677	0.991889	-0.101020	-0.102354	-0.008499	13.1379	-0.100535	-1.877669	0.004526	NaN
1008	1.000000	1.003200	7.37491e+06	-50539.1	1055.82	-29755.3	0.000000	0.000000	7.003115	0.060434	NaN	0.000000	0.001612	0.001759	28.0832	0.038268	0.001995	19.1834	179.342	-164.166	0.089391	1.001831	-0.091043	-0.092412	0.060434	19.1834	-0.093406	-1.296949	-0.046597	NaN
1008	1.000000	1.013201	7.37491e+06	-50539.1	1055.82	-29755.3	0.000000	0.000000	7.013112	-0.056983	NaN	0.000000	0.001588	0.001721	28.0838	0.085582	0.001986	43.103	49.0679	15.5103	-0.054454	1.011930	-0.081042	-0.082313	-0.056983	43.103	-0.080050	-0.620785	0.091791	NaN
1008	1.000000	1.023245	7.37491e+06	-50539.1	1055.82	-29755.3	0.000000	0.000000	7.023158	-0.001446	NaN	0.000000	0.001614	0.001759	28.0833	0.058572	0.001927	30.3908	-89.2107	-164.075	0.018993	1.021936	-0.070998	-0.072307	-0.001446	30.3908	-0.070962	-0.361899	0.003996	NaN
1008	1.000000	1.033226	7.37491e+06	-50539.1	1055.82	-29755.3	0.000000	0.000000	7.033140	0.027633	NaN	0.000000	0.001583	0.001735	28.0843	0.087444	0.002045	42.7583	-2.759708	15.5681	0.055726	1.031848	-0.061017	-0.062395	0.027633	42.7583	-0.061502	-0.198779	-0.139016	NaN
1008	1.000000	1.043242	7.37491e+06	-50539.1	1055.82	-29755.3	0.000000	0.000000	7.043157	0.034393	NaN	0.000000	0.001571	0.001728	28.0844	0.012156	0.002139	5.682642	-9.669317	-165.013	-0.012299	1.041970	-0.051001	-0.052273	0.034393	5.682642	-0.055540	-0.133591	-0.257452	NaN
1008	1.000000	1.053237	7.37491e+06	-50539.1	1055.82	-29755.3	0.000000	0.000000	7.053150	-0.006659	NaN	0.000000	0.001594	0.001737	28.0848	0.099376	0.001935	51.3641	-143.74	11.044	0.078147	1.051887	-0.041006	-0.042356	-0.006659	51.3641	-0.040909	-0.048194	0.138163	NaN
1008	1.000000	1.063286	7.37491e+06	-50539.1	1055.82	-29755.3	0.000000	0.000000	7.063201	0.026352	NaN	0.000000	0.001580	0.001717	28.0842	0.046192	0.001964	23.5152	-142.938	-167.772	0.046419	1.061944	-0.030957	-0.032299	0.026352	23.5152	-0.031797	-0.025859	-1.019041	NaN
1008	1.000000	1.073279	7.37491e+06	-50539.1	1055.82	-29755.3	0.000000	0.000000	7.073192	-0.001085	NaN	0.000000	0.001542	0.001782	28.0843	0.099273	0.001893	52.4442	-106.406	14.3421	0.087661	1.071905	-0.020964	-0.022338	-0.001085	52.4442	-0.020948	-0.013277	0.081722	NaN
1008	1.000000	1.083235	7.37491e+06	-50539.1	1055.82	-29755.3	0.000000	0.000000	7.083151	0.079583	NaN	0.000000	0.001550	0.001766	28.0843	0.054728	0.001944	28.1554	58.6959	-163.82	0.040021	1.081985	-0.011008	-0.012257	0.079583	28.1554	-0.013128	-0.008176	-9.733487	NaN
1008	1.000000	1.093256	7.37491e+06	-50539.1	1055.82	-29755.3	0.000000	0.000000	7.093171	0.052956	NaN	0.000000	0.001627	0.001737	28.0845	0.056994	0.002074	27.4736	31.4372	16.7163	-0.022247	1.091880	-0.000987	-0.002362	0.052956	27.4736	-0.002433	-0.001737	-30.4844	NaN
1008	2.000000	1.102718	7.37491e+06	-50539.1	1055.82	-29755.3	0.000000	0.000000	7.103030	9.690384	NaN	0.000000	0.001522	0.001758	28.0842	8.304947	0.001579	5261.14	6.539393	-171.676	7.530484	1.101860	0.008475	0.007617	9.690384	5261.14	0.007094	0.006127	1581.6	61408.8
1008	2.000000	1.105466	7.37491e+06	-50539.1	1055.82	-29755.3	0.000000	0.000000	7.105874	12.0131	NaN	0.000000	0.001551	0.001723	28.0843	11.0398	0.001669	6614.65	4.485873	6.452461	11.1127	1.105085	0.011224	0.010843	12.0131	6614.65	0.009862	0.009028	1330.64	63603.8
1008	2.000000	1.107959	7.37491e+06	-50539.1	1055.82	-29755.3	0.000000	0.000000	7.108506	15.4148	NaN	0.000000	0.001559	0.001768	28.0844	14.1569	0.001798	7871.81	7.540655	-177.579	14.8727	1.107573	0.013716	0.013330	15.4148	7871.81	0.012247	0.011788	1307.69	66241.7
1008	2.000000	1.110434	7.37491e+06	-50539.1	1055.82	-29755.3	0.000000	0.000000	7.111184	20.3323	NaN	0.000000	0.001513	0.001741	28.0844	15.7755	0.001831	8615.73	7.951504	4.352646	19.5627	1.110103	0.016191	0.015860	20.3323	8615.73	0.014422	0.014522	1400.13	65321.6
1008	2.000000	1.112839	7.37491e+06	-50539.1	1055.82	-29755.3	0.000000	0.000000	7.113762	24.5453	NaN	0.000000	0.001524	0.001744	28.0843	18.6527	0.001688	11048.1	6.407299	-179.341	23.3169	1.112568	0.018596	0.018325	24.5453	11048.1	0.016930	0.017946	1367.74	75349.1
1008	2.000000	1.115388	7.37491e+06	-50539.1	1055.82	-29755.3	0.000000	0.000000	7.116539	30.1232	NaN	0.000000	0.001596	0.001752	28.0843	21.631	0.001800	12018.9	9.460592	-0.788069	30.5533	1.115052	0.021145	0.020809	30.1232	12018.9	0.019265	0.021400	1407.59	75063.1
1008	2.000000	1.117877	7.37491e+06	-50539.1	1055.82	-29755.3	0.000000	0.000000	7.119390	38.9062	NaN	0.000000	0.001616	0.001750	28.0845	24.7591	0.001939	12770.9	5.321130	-178.266	37.9126	1.117510	0.023634	0.023267	38.9062	12770.9	0.021349	0.024707	1574.72	74231.1
1008	2.000000	1.120388	7.37491e+06	-50539.1	1055.82	-29755.3	0.000000	0.000000	7.122262	47.6788	NaN	0.000000	0.001612	0.001730	28.083	26.9127	0.001765	15252	5.463385	0.394405	46.1489	1.119954	0.026145	0.025711	47.6788	15252	0.023800	0.028869	1651.54	82012.9
1008	2.000000	1.122832	7.37491e+06	-50539.1	1055.82	-29755.3	0.000000	0.000000	7.125082	56.8338	NaN	0.000000	0.001663	0.001722	28.0831	28.4752	0.001679	16957.7	-0.298543	-175.474	54.7643	1.122574	0.028589	0.028331	56.8338	16957.7	0.026075	0.033001	1722.17	85285.5
1008	2.000000	1.125337	7.37491e+06	-50539.1	1055.82	-29755.3	0.000000	0.000000	7.127862	63.5303	NaN	0.000000	0.001687	0.001714	28.0832	31.3922	0.001679	18699.1	1.898870	1.090829	60.8751	1.125046	0.031094	0.030803	63.5303	18699.1	0.028546	0.037783	1681.43	87890.9
1008	2.000000	1.127829	7.37491e+06	-50539.1	1055.82	-29755.3	0.000000	0.000000	7.130835	75.2224	NaN	0.000000	0.001649	0.001722	28.0831	34.9261	0.001833	19053.5	2.656349	-178.695	72.8847	1.127544	0.033586	0.033301	75.2224	19053.5	0.030625	0.042049	1788.91	84892.2
1008	2.000000	1.130323	7.37491e+06	-50539.1	1055.82	-29755.3	0.000000	0.000000	7.133916	89.4889	NaN	0.000000	0.001641	0.001709	28.083	37.4875	0.001920	19528	7.758237	-2.583953	85.5589	1.129944	0.036081	0.035701	89.4889	19528	0.032644	0.046401	1928.58	82825.9
1008	2.000000	1.132789	7.37491e+06	-50539.1	1055.82	-29755.3	0.000000	0.000000	7.136796	99.5565	NaN	0.000000	0.001644	0.001767	28.0828	38.7719	0.001758	22053.9	5.884058	176.574	96.8843	1.132466	0.038547	0.038223	99.5565	22053.9	0.035161	0.052121	1910.1	88257.4
1008	2.000000	1.135318	7.37491e+06	-50539.1	1055.82	-29755.3	0.000000	0.000000	7.139764	110.243	NaN	0.000000	0.001651	0.001775	28.0831	41.959	0.001846	22725.5	7.377679	-5.476414	107.797	1.134973	0.041075	0.040730	110.243	22725.5	0.037437	0.057571	1914.88	86533.4
1008	2.000000	1.137878	7.37491e+06	-50539.1	1055.82	-29755.3	0.000000	0.000000	7.142897	124.148	NaN	0.000000	0.001664	0.001726	28.0829	44.8185	0.001822	24600.5	5.226128	176.516	124.721	1.137490	0.043635	0.043247	124.148	24600.5	0.039851	0.063643	1950.71	89093
1008	2.000000	1.140379	7.37491e+06	-50539.1	1055.82	-29755.3	0.000000	0.000000	7.145728	132.193	NaN	0.000000	0.001602	0.001740	28.0829	47.1457	0.001723	27356.4	6.439922	-5.555264	132.64	1.139907	0.046136	0.045664	132.193	27356.4	0.042512	0.070681	1870.28	94011.7
1008	2.000000	1.142812	7.37491e+06	-50539.1	1055.82	-29755.3	0.000000	0.000000	7.148798	147.682	NaN	0.000000	0.001589	0.001773	28.0829	50.3308	0.001747	28813.7	6.165197	173.943	145.651	1.142497	0.048569	0.048254	147.682	28813.7	0.044725	0.076808	1922.75	94988.4
1008	2.000000	1.145335	7.37491e+06	-50539.1	1055.82	-29755.3	0.000000	0.000000	7.151585	154.112	NaN	0.000000	0.001644	0.001753	28.0829	51.8232	0.001739	29806.3	5.918081	-5.813503	154.213	1.144970	0.051092	0.050727	154.112	29806.3	0.047214	0.083997	1834.73	93961.5
1008	2.000000	1.147758	7.37491e+06	-50539.1	1055.82	-29755.3	0.000000	0.000000	7.154460	165.101	NaN	0.000000	0.001633	0.001749	28.0829	53.9882	0.001738	31055.4	0.956936	177.731	161.733	1.147511	0.053515	0.053268	165.101	31055.4	0.049528	0.090959	1815.11	94077.7
1008	2.000000	1.150355	7.37491e+06	-50539.1	1055.82	-29755.3	0.000000	0.000000	7.157694	180.584	NaN	0.000000	0.001603	0.001726	28.0828	56.3387	0.001859	30302.4	6.780243	-6.954846	179.334	1.149939	0.056112	0.055696	180.584	30302.4	0.051642	0.097556	1851.08	88638.4
1008	2.000000	1.152795	7.37491e+06	-50539.1	1055.82	-29755.3	0.000000	0.000000	7.160688	194.044	NaN	0.000000	0.001594	0.001752	28.0833	57.1473	0.001751	32633	4.850311	173.845	192.894	1.152551	0.058552	0.058308	194.044	32633	0.054093	0.105482	1839.59	91799.8
1008	2.000000	1.155324	7.37491e+06	-50539.1	1055.82	-29755.3	0.000000	0.000000	7.164004	213.187	NaN	0.000000	0.001590	0.001715	28.0842	59.5789	0.001779	33484.6	3.582888	-4.940803	211.585	1.154928	0.061082	0.060685	213.187	33484.6	0.056307	0.112898	1888.31	91049
1008	2.000000	1.157834	7.37491e+06	-50539.1	1055.82	-29755.3	0.000000	0.000000	7.166884	222.17	NaN	0.000000	0.001621	0.001731	28.0843	62.2432	0.001770	35155.9	4.778891	173.838	221.862	1.157506	0.063592	0.063263	222.17	35155.9	0.058852	0.121724	1825.2	92062.6
1008	2.000000	1.160317	7.37491e+06	-50539.1	1055.82	-29755.3	0.000000	0.000000	7.170109	240.239	NaN	0.000000	0.001578	0.001733	28.084	64.3026	0.001842	34903	6.582335	-7.996857	237.34	1.159900	0.066074	0.065657	240.239	34903	0.060912	0.129099	1860.89	88751.2
1008	2.000000	1.162750	7.37491e+06	-50539.1	1055.82	-29755.3	0.000000	0.000000	7.173130	254.515	NaN	0.000000	0.001661	0.001756	28.0849	65.8662	0.001854	35525.2	4.676573	174.384	252.031	1.162475	0.068507	0.068233	254.515	35525.2	0.063134	0.137286	1853.9	87598.3
1008	2.000000	1.165296	7.37491e+06	-50539.1	1055.82	-29755.3	0.000000	0.000000	7.176278	269.162	NaN	0.000000	0.001655	0.001735	28.084	68.7428	0.001927	35680.6	4.072914	-4.500458	267.638	1.164853	0.071053	0.070610	269.162	35680.6	0.065396	0.145864	1845.29	85355.3
1008	2.000000	1.167715	7.37491e+06	-50539.1	1055.82	-29755.3	0.000000	0.000000	7.179444	287.334	NaN	0.000000	0.001673	0.001774	28.0848	70.3843	0.001786	39402	2.390332	175.352	283.762	1.167450	0.073473	0.073207	287.334	39402	0.068003	0.156061	1841.17	91126.5
1008	2.000000	1.170304	7.37491e+06	-50539.1	1055.82	-29755.3	0.000000	0.000000	7.182846	307.115	NaN	0.000000	0.001652	0.001745	28.0844	72.6506	0.001812	40100.8	3.977441	-5.236688	304.972	1.169955	0.076061	0.075712	307.115	40100.8	0.070317	0.165381	1857.02	90091.3
1008	2.000000	1.172714	7.37491e+06	-50539.1	1055.82	-29755.3	0.000000	0.000000	7.186160	329.102	NaN	0.000000	0.001640	0.001728	28.0847	74.9286	0.001815	41278.8	6.312808	171.471	325.45	1.172483	0.078471	0.078240	329.102	41278.8	0.072491	0.174370	1887.37	90315.8
1008	2.000000	1.175210	7.37491e+06	-50539.1	1055.82	-29755.3	0.000000	0.000000	7.189162	341.401	NaN	0.000000	0.001606	0.001721	28.0841	76.5528	0.001743	43908.9	3.667080	-6.368115	334.365	1.174903	0.080967	0.080660	341.401	43908.9	0.075136	0.185605	1839.4	93117.5
1008	2.000000	1.177789	7.37491e+06	-50539.1	1055.82	-29755.3	0.000000	0.000000	7.192475	359.245	NaN	0.000000	0.001609	0.001723	28.0845	80.312	0.001814	44273.1	2.598216	174.589	357.602	1.177423	0.083546	0.083180	359.245	44273.1	0.077461	0.195754	1835.19	91423.6
1008	2.000000	1.180279	7.37491e+06	-50539.1	1055.82	-29755.3	0.000000	0.000000	7.195860	381.014	NaN	0.000000	0.001632	0.001752	28.0843	81.8478	0.001841	44457.2	3.322278	-5.710664	377.1	1.179919	0.086036	0.085676	381.014	44457.2	0.079608	0.205354	1855.4	89632.2
1008	2.000000	1.182721	7.37491e+06	-50539.1	1055.82	-29755.3	0.000000	0.000000	7.198988	397.706	NaN	0.000000	0.001610	0.001728	28.0845	83.4616	0.001720	48537.9	1.560939	174.905	396.169	1.182525	0.088478	0.088282	397.706	48537.9	0.082333	0.217842	1825.66	95013.1
1008	2.000000	1.185185	7.37491e+06	-50539.1	1055.82	-29755.3	0.000000	0.000000	7.202359	419.751	NaN	0.000000	0.001608	0.001739	28.0842	87.3813	0.001853	47154.3	4.512005	-6.920940	414.7	1.184773	0.090942	0.090530	419.751	47154.3	0.084266	0.226914	1849.83	90440.8
1008	2.000000	1.187693	7.37491e+06	-50539.1	1055.82	-29755.3	0.000000	0.000000	7.205685	439.643	NaN	0.000000	0.001614	0.001738	28.0832	90.0083	0.001749	51477.3	3.213316	173.083	436.017	1.187411	0.093450	0.093168	439.643	51477.3	0.087044	0.240251	1829.93	95952.6
1008	2.000000	1.190284	7.37491e+06	-50539.1	1055.82	-29755.3	0.000000	0.000000	7.209208	462.322	NaN	0.000000	0.001613	0.001746	28.0831	92.0248	0.001732	53146.4	8.477142	-11.8114	458.893	1.189829	0.096041	0.095586	462.322	53146.4	0.089517	0.252418	1831.57	96646.8
1008	2.000000	1.192690	7.37492e+06	-50539.1	1055.82	-29755.3	0.000000	0.000000	7.212285	478.624	NaN	0.000000	0.001611	0.001780	28.083	93.8096	0.001734	54093.5	3.431823	173.082	474.227	1.192449	0.098447	0.098206	478.624	54093.5	0.091811	0.263959	1813.25	96194.5
1008	2.000000	1.195212	7.37492e+06	-50539.1	1055.82	-29755.3	0.000000	0.000000	7.215459	494.49	NaN	0.000000	0.001601	0.001754	28.0829	97.4828	0.001784	54656.7	9.961855	-14.4495	488.947	1.194803	0.100969	0.100560	494.49	54656.7	0.094184	0.276150	1790.65	95026.3
1008	2.000000	1.197754	7.37492e+06	-50539.1	1055.82	-29755.3	0.000000	0.000000	7.218637	509.934	NaN	0.000000	0.001593	0.001781	28.0831	99.9129	0.001790	55828.1	4.851785	170.543	509.827	1.197523	0.103511	0.103280	509.934	55828.1	0.096661	0.289152	1763.55	94855.6
1008	2.000000	1.200218	7.37492e+06	-50539.1	1055.82	-29755.3	0.000000	0.000000	7.221940	530.363	NaN	0.000000	0.001593	0.001774	28.083	100.445	0.001784	56318	2.726881	-6.467286	523.678	1.199763	0.105975	0.105521	530.363	56318	0.098912	0.301208	1760.79	93753.4
1008	2.000000	1.201248	7.37492e+06	-50539.1	1055.82	-29755.3	0.000000	0.000000	7.223368	540.017	NaN	0.000000	0.001604	0.001776	28.0829	102.572	0.001778	57687	3.681743	-8.115695	536.058	1.200814	0.107005	0.106572	540.017	57687	0.099984	0.307033	1758.82	95117