File: remote_trans/data/nanoindenter/0828-1/data/Data_2025-08-06,11h17m57s/2025-07-22_16-23-58_1_479.txt
2025-07-22, 16:23:58, 1
Index	Phase	Displacement	Time	Pos X	Pos Y	Pos Z	Rot A	Rot B	Piezo Z	Force A	Force B	Gripper	Voltage A	Voltage B	Temperature	Amplitude force	Amplitude pos	Stiffness	Phase shift	Phase excitation	Force A raw	Displacement raw	HMax	HMax raw	Real Force	Real Stiffness	Contact Depth	Area	Hardness	Reduced Mod.
[#]	[#]	[um]	[s]	[um]	[um]	[um]	[m°]	[m°]	[um]	[uN]	[uN]	[V]	[V]	[V]	[°C]	[uN]	[um]	[N/m]	[°]	[°]	[uN]	[um]	[um]	[um]	[uN]	[N/m]	[um]	[um^2]	[MPa]	[MPa]
479	1.000000	0.002663	7.36974e+06	-53139.1	1005.82	-29747.3	0.000000	0.000000	6.002835	0.056814	NaN	0.000000	0.001594	0.001762	28.0807	0.020082	0.001006	19.9571	143.717	-163.975	0.080316	0.001425	-1.048764	-1.050002	0.056814	19.9571	-1.050899	-1.097743E+14	-5.175566E-16	NaN
479	1.000000	0.010617	7.36974e+06	-53139.1	1005.82	-29747.3	0.000000	0.000000	6.010790	0.077526	NaN	0.000000	0.001597	0.001748	28.0804	0.060187	0.000995	60.4673	-90.5572	-164.949	-0.028170	0.009285	-1.040810	-1.042142	0.077526	60.4673	-1.041772	-8.275457E+13	-9.368127E-16	NaN
479	1.000000	0.018602	7.36974e+06	-53139.1	1005.82	-29747.3	0.000000	0.000000	6.018774	0.066627	NaN	0.000000	0.001607	0.001729	28.0805	0.086988	0.001706	50.9979	150.607	-165.659	0.049327	0.017261	-1.032825	-1.034166	0.066627	50.9979	-1.033805	-6.466364E+13	-1.030355E-15	NaN
479	1.000000	0.026575	7.36974e+06	-53139.1	1005.82	-29747.3	0.000000	0.000000	6.026744	-0.017505	NaN	0.000000	0.001595	0.001727	28.0806	0.116194	0.001828	63.5468	78.6144	-163.875	-0.130315	0.025280	-1.024852	-1.026147	-0.017505	63.5468	-1.024645	-4.869138E+13	3.595189E-16	NaN
479	1.000000	0.034572	7.36974e+06	-53139.1	1005.82	-29747.3	0.000000	0.000000	6.034742	0.008494	NaN	0.000000	0.001586	0.001706	28.0807	0.041642	0.001897	21.9551	-28.0905	-165.07	-0.023281	0.033259	-1.016855	-1.018168	0.008494	21.9551	-1.017145	-3.859578E+13	-2.200806E-16	NaN
479	1.000000	0.042621	7.36974e+06	-53139.1	1005.82	-29747.3	0.000000	0.000000	6.042792	0.037341	NaN	0.000000	0.001582	0.001743	28.0808	0.039985	0.001990	20.0957	153.175	-164.245	0.012340	0.041292	-1.008806	-1.010135	0.037341	20.0957	-1.010200	-3.112223E+13	-1.199833E-15	NaN
479	1.000000	0.050576	7.36974e+06	-53139.1	1005.82	-29747.3	0.000000	0.000000	6.050748	0.047871	NaN	0.000000	0.001610	0.001744	28.0817	0.094065	0.002019	46.5826	-136.307	-166.274	-0.010731	0.049268	-1.000851	-1.002159	0.047871	46.5826	-1.001621	-2.385595E+13	-2.006663E-15	NaN
479	1.000000	0.058569	7.36974e+06	-53139.1	1005.82	-29747.3	0.000000	0.000000	6.058738	-0.012114	NaN	0.000000	0.001610	0.001733	28.0824	0.075791	0.001917	39.5291	-42.486	-167.217	-0.121612	0.057293	-0.992858	-0.994134	-0.012114	39.5291	-0.992628	-1.805110E+13	6.711062E-16	NaN
479	1.000000	0.066579	7.36974e+06	-53139.1	1005.82	-29747.3	0.000000	0.000000	6.066749	0.022318	NaN	0.000000	0.001598	0.001740	28.0818	0.056639	0.001918	29.5251	-161.141	-162.044	-0.057736	0.065315	-0.984848	-0.986112	0.022318	29.5251	-0.985415	-1.443303E+13	-1.546307E-15	NaN
479	1.000000	0.074575	7.36974e+06	-53139.1	1005.82	-29747.3	0.000000	0.000000	6.074746	0.032739	NaN	0.000000	0.001629	0.001747	28.0819	0.030737	0.002031	15.1347	79.4021	-165.202	-0.102262	0.073264	-0.976852	-0.978162	0.032739	15.1347	-0.978475	-1.163750E+13	-2.813268E-15	NaN
479	1.000000	0.082571	7.36974e+06	-53139.1	1005.82	-29747.3	0.000000	0.000000	6.082744	0.080254	NaN	0.000000	0.001584	0.001682	28.0819	0.099628	0.002056	48.4463	-147.303	-165.199	0.075077	0.081316	-0.968856	-0.970111	0.080254	48.4463	-0.970098	-8.973974E+12	-8.943014E-15	NaN
479	1.000000	0.090608	7.36974e+06	-53139.1	1005.82	-29747.3	0.000000	0.000000	6.090779	0.023705	NaN	0.000000	0.001609	0.001698	28.0816	0.075881	0.002055	36.9238	143.657	-164.966	0.004606	0.089323	-0.960819	-0.962104	0.023705	36.9238	-0.961300	-6.829691E+12	-3.470837E-15	NaN
479	1.000000	0.098624	7.36974e+06	-53139.1	1005.82	-29747.3	0.000000	0.000000	6.098796	0.042107	NaN	0.000000	0.001607	0.001678	28.0819	0.065500	0.002007	32.6327	-125.843	-162.983	0.011281	0.097302	-0.952803	-0.954125	0.042107	32.6327	-0.953770	-5.405959E+12	-7.788977E-15	NaN
479	1.000000	0.106618	7.36974e+06	-53139.1	1005.82	-29747.3	0.000000	0.000000	6.106788	0.018035	NaN	0.000000	0.001595	0.001668	28.0815	0.119402	0.001949	61.2529	45.2152	-162.114	-0.050281	0.105318	-0.944809	-0.946109	0.018035	61.2529	-0.945030	-4.120902E+12	-4.376475E-15	NaN
479	1.000000	0.114621	7.36974e+06	-53139.1	1005.82	-29747.3	0.000000	0.000000	6.114793	0.061386	NaN	0.000000	0.001638	0.001680	28.082	0.056199	0.002093	26.85	124.865	-165.232	0.037772	0.113292	-0.936806	-0.938134	0.061386	26.85	-0.938521	-3.366517E+12	-1.823438E-14	NaN
479	1.000000	0.122602	7.36974e+06	-53139.1	1005.82	-29747.3	0.000000	0.000000	6.122773	0.030032	NaN	0.000000	0.001627	0.001702	28.0818	0.015642	0.001955	8.002338	130.646	-164.419	0.026647	0.121281	-0.928825	-0.930146	0.030032	8.002338	-0.931640	-2.718508E+12	-1.104720E-14	NaN
479	1.000000	0.130582	7.36974e+06	-53139.1	1005.82	-29747.3	0.000000	0.000000	6.130750	-0.037723	NaN	0.000000	0.001643	0.001701	28.0817	0.042025	0.002073	20.2716	-5.844003	-162.021	-0.008875	0.129241	-0.920845	-0.922186	-0.037723	20.2716	-0.919450	-1.861120E+12	2.026906E-14	NaN
479	1.000000	0.138627	7.36974e+06	-53139.1	1005.82	-29747.3	0.000000	0.000000	6.138796	0.003765	NaN	0.000000	0.001657	0.001704	28.0819	0.057393	0.001913	30.0061	-170.78	-162.475	0.064057	0.137344	-0.912800	-0.914083	0.003765	30.0061	-0.912894	-1.517940E+12	-2.480075E-15	NaN
479	1.000000	0.146595	7.36974e+06	-53139.1	1005.82	-29747.3	0.000000	0.000000	6.146766	0.022728	NaN	0.000000	0.001637	0.001702	28.0816	0.039238	0.001989	19.73	-81.4043	-168.545	0.053287	0.145319	-0.904832	-0.906108	0.022728	19.73	-0.905696	-1.213456E+12	-1.873036E-14	NaN
479	1.000000	0.154628	7.36974e+06	-53139.1	1005.82	-29747.3	0.000000	0.000000	6.154796	-0.033089	NaN	0.000000	0.001630	0.001687	28.0817	0.029809	0.001956	15.2388	-71.4399	-165.226	0.023991	0.153319	-0.896799	-0.898107	-0.033089	15.2388	-0.895171	-8.745947E+11	3.783310E-14	NaN
479	1.000000	0.162613	7.36974e+06	-53139.1	1005.82	-29747.3	0.000000	0.000000	6.162785	0.053569	NaN	0.000000	0.001569	0.001717	28.0817	0.092853	0.002016	46.0511	-119.712	-163.873	0.109930	0.161310	-0.888814	-0.890117	0.053569	46.0511	-0.889687	-7.373618E+11	-7.264972E-14	NaN
479	1.000000	0.170623	7.36974e+06	-53139.1	1005.82	-29747.3	0.000000	0.000000	6.170793	-0.001439	NaN	0.000000	0.001578	0.001722	28.0818	0.097596	0.002116	46.1292	-14.5184	-163.61	-0.007830	0.169360	-0.880804	-0.882067	-0.001439	46.1292	-0.880780	-5.588048E+11	2.575417E-15	NaN
479	1.000000	0.178640	7.36974e+06	-53139.1	1005.82	-29747.3	0.000000	0.000000	6.178809	-0.020964	NaN	0.000000	0.001588	0.001679	28.0817	0.103584	0.002004	51.6882	-89.0538	-165.45	-0.036399	0.177341	-0.872787	-0.874086	-0.020964	51.6882	-0.872482	-4.315465E+11	4.857940E-14	NaN
479	1.000000	0.186616	7.36974e+06	-53139.1	1005.82	-29747.3	0.000000	0.000000	6.186789	0.084762	NaN	0.000000	0.001613	0.001698	28.0807	0.103094	0.001953	52.7741	-48.4107	-166.768	0.049630	0.185318	-0.864811	-0.866109	0.084762	52.7741	-0.866016	-3.528054E+11	-2.402506E-13	NaN
479	1.000000	0.194629	7.36974e+06	-53139.1	1005.82	-29747.3	0.000000	0.000000	6.194800	0.037081	NaN	0.000000	0.001568	0.001708	28.0807	0.088306	0.001945	45.4076	21.4514	-166.613	0.039131	0.193386	-0.856798	-0.858041	0.037081	45.4076	-0.857410	-2.698159E+11	-1.374313E-13	NaN
479	1.000000	0.202660	7.36974e+06	-53139.1	1005.82	-29747.3	0.000000	0.000000	6.202830	-0.008741	NaN	0.000000	0.001619	0.001722	28.0804	0.069555	0.001984	35.0606	59.2178	-165.853	-0.055087	0.201317	-0.848767	-0.850110	-0.008741	35.0606	-0.848580	-2.048815E+11	4.266177E-14	NaN
479	1.000000	0.210639	7.36974e+06	-53139.1	1005.82	-29747.3	0.000000	0.000000	6.210808	-0.011930	NaN	0.000000	0.001595	0.001701	28.0807	0.054292	0.001905	28.4969	122.165	-165.248	-0.078409	0.209316	-0.840788	-0.842111	-0.011930	28.4969	-0.840474	-1.591166E+11	7.497499E-14	NaN
479	1.000000	0.218647	7.36974e+06	-53139.1	1005.82	-29747.3	0.000000	0.000000	6.218817	0.003827	NaN	0.000000	0.001584	0.001685	28.0807	0.128785	0.001941	66.3334	-72.0999	-166.16	0.028453	0.217307	-0.832780	-0.834120	0.003827	66.3334	-0.832823	-1.253276E+11	-3.053903E-14	NaN
479	1.000000	0.226661	7.36974e+06	-53139.1	1005.82	-29747.3	0.000000	0.000000	6.226829	-0.046078	NaN	0.000000	0.001611	0.001721	28.0805	0.071448	0.002105	33.9345	18.6168	-163.58	-0.027007	0.225333	-0.824766	-0.826094	-0.046078	33.9345	-0.823748	-9.441155E+10	4.880593E-13	NaN
479	1.000000	0.234642	7.36974e+06	-53139.1	1005.82	-29747.3	0.000000	0.000000	6.234812	0.001281	NaN	0.000000	0.001600	0.001746	28.0805	0.072005	0.002103	34.2387	133.309	-165.895	-0.033442	0.233313	-0.816784	-0.818114	0.001281	34.2387	-0.816812	-7.602969E+10	-1.684993E-14	NaN
479	1.000000	0.242624	7.36974e+06	-53139.1	1005.82	-29747.3	0.000000	0.000000	6.242796	0.066275	NaN	0.000000	0.001617	0.001744	28.0804	0.065119	0.002056	31.6654	15.2663	-164.876	0.064005	0.241397	-0.808803	-0.810030	0.066275	31.6654	-0.810373	-6.217724E+10	-1.065899E-12	NaN
479	1.000000	0.250637	7.36974e+06	-53139.1	1005.82	-29747.3	0.000000	0.000000	6.250808	0.034544	NaN	0.000000	0.001604	0.001758	28.0803	0.039147	0.002107	18.5778	140.661	-164.595	0.034535	0.249332	-0.800790	-0.802095	0.034544	18.5778	-0.802184	-4.814061E+10	-7.175682E-13	NaN
479	1.000000	0.258679	7.36974e+06	-53139.1	1005.82	-29747.3	0.000000	0.000000	6.258850	0.033587	NaN	0.000000	0.001575	0.001708	28.0802	0.065727	0.001911	34.3894	-109.219	-167.275	0.039616	0.257377	-0.792748	-0.794050	0.033587	34.3894	-0.793481	-3.667356E+10	-9.158450E-13	NaN
479	1.000000	0.266650	7.36974e+06	-53139.1	1005.82	-29747.3	0.000000	0.000000	6.266821	0.031824	NaN	0.000000	0.001613	0.001702	28.0805	0.034362	0.001929	17.8131	57.7455	-167.151	-0.005092	0.265347	-0.784777	-0.786080	0.031824	17.8131	-0.786117	-2.913029E+10	-1.092470E-12	NaN
479	1.000000	0.274687	7.36974e+06	-53139.1	1005.82	-29747.3	0.000000	0.000000	6.274857	-0.001832	NaN	0.000000	0.001645	0.001729	28.0804	0.103189	0.001906	54.1446	-148.798	-164.624	0.066355	0.273347	-0.776740	-0.778080	-0.001832	54.1446	-0.776715	-2.170616E+10	8.437981E-14	NaN
479	1.000000	0.282655	7.36974e+06	-53139.1	1005.82	-29747.3	0.000000	0.000000	6.282826	0.015183	NaN	0.000000	0.001633	0.001717	28.0804	0.063397	0.002059	30.793	-78.3592	-164.677	-0.017854	0.281326	-0.768771	-0.770101	0.015183	30.793	-0.769141	-1.712496E+10	-8.866053E-13	NaN
479	1.000000	0.290689	7.36974e+06	-53139.1	1005.82	-29747.3	0.000000	0.000000	6.290861	0.040225	NaN	0.000000	0.001617	0.001711	28.0806	0.045256	0.001955	23.1485	4.557346	-161.173	0.093522	0.289355	-0.760738	-0.762072	0.040225	23.1485	-0.762041	-1.371084E+10	-2.933811E-12	NaN
479	1.000000	0.298678	7.36974e+06	-53139.1	1005.82	-29747.3	0.000000	0.000000	6.298850	0.038965	NaN	0.000000	0.001604	0.001715	28.0804	0.082808	0.001939	42.7009	-159.311	-164.798	-0.017304	0.297393	-0.752749	-0.754034	0.038965	42.7009	-0.753433	-1.047000E+10	-3.721560E-12	NaN
479	1.000000	0.306701	7.36974e+06	-53139.1	1005.82	-29747.3	0.000000	0.000000	6.306874	0.076240	NaN	0.000000	0.001574	0.001710	28.0805	0.021934	0.001917	11.4434	-103.368	-166.417	0.062217	0.305401	-0.744725	-0.746026	0.076240	11.4434	-0.749722	-9.320498E+9	-8.179855E-12	NaN
479	1.000000	0.314711	7.36974e+06	-53139.1	1005.82	-29747.3	0.000000	0.000000	6.314882	0.036028	NaN	0.000000	0.001591	0.001709	28.0802	0.111469	0.001957	56.9692	152.195	-166.408	0.018114	0.313388	-0.736716	-0.738039	0.036028	56.9692	-0.737190	-6.291956E+9	-5.726109E-12	NaN
479	1.000000	0.322694	7.36974e+06	-53139.1	1005.82	-29747.3	0.000000	0.000000	6.322861	-0.061090	NaN	0.000000	0.001601	0.001715	28.0811	0.059435	0.001979	30.0317	-140.978	-162.222	0.047877	0.321379	-0.728733	-0.730048	-0.061090	30.0317	-0.727207	-4.599839E+9	1.328090E-11	NaN
479	1.000000	0.330707	7.36974e+06	-53139.1	1005.82	-29747.3	0.000000	0.000000	6.330873	-0.076177	NaN	0.000000	0.001583	0.001704	28.0817	0.032285	0.001997	16.1654	-102.498	-163.636	-0.030468	0.329296	-0.720720	-0.722131	-0.076177	16.1654	-0.717186	-3.358099E+9	2.268464E-11	NaN
479	1.000000	0.338683	7.36974e+06	-53139.1	1005.82	-29747.3	0.000000	0.000000	6.338854	0.038970	NaN	0.000000	0.001630	0.001743	28.0816	0.084412	0.001934	43.6398	177.718	-165.051	0.026311	0.337433	-0.712744	-0.713994	0.038970	43.6398	-0.713414	-2.982832E+9	-1.306473E-11	NaN
479	1.000000	0.346691	7.36974e+06	-53139.1	1005.82	-29747.3	0.000000	0.000000	6.346858	-0.051741	NaN	0.000000	0.001635	0.001733	28.0821	0.054575	0.001978	27.5974	-68.6841	-164.042	-0.030983	0.345420	-0.704736	-0.706007	-0.051741	27.5974	-0.703330	-2.172709E+9	2.381427E-11	NaN
479	1.000000	0.354725	7.36974e+06	-53139.1	1005.82	-29747.3	0.000000	0.000000	6.354896	0.016386	NaN	0.000000	0.001642	0.001746	28.0816	0.029114	0.002005	14.517	-49.1568	-165.003	0.039114	0.353391	-0.696702	-0.698036	0.016386	14.517	-0.697548	-1.811535E+9	-9.045486E-12	NaN
479	1.000000	0.362688	7.36974e+06	-53139.1	1005.82	-29747.3	0.000000	0.000000	6.362859	0.043029	NaN	0.000000	0.001634	0.001729	28.0818	0.137858	0.002042	67.4994	164.684	-163.7	0.074151	0.361394	-0.688739	-0.690032	0.043029	67.4994	-0.689217	-1.393870E+9	-3.087046E-11	NaN
479	1.000000	0.370690	7.36974e+06	-53139.1	1005.82	-29747.3	0.000000	0.000000	6.370862	0.047876	NaN	0.000000	0.001638	0.001732	28.0816	0.050645	0.002065	24.5268	156.81	-161.771	-0.034161	0.369383	-0.680737	-0.682044	0.047876	24.5268	-0.682201	-1.117632E+9	-4.283672E-11	NaN
479	1.000000	0.378726	7.36974e+06	-53139.1	1005.82	-29747.3	0.000000	0.000000	6.378896	-0.005545	NaN	0.000000	0.001651	0.001712	28.0816	0.090652	0.001861	48.7041	133.572	-166.09	-0.064385	0.377440	-0.672700	-0.673987	-0.005545	48.7041	-0.672615	-8.263780E+8	6.710201E-12	NaN
479	1.000000	0.386754	7.36974e+06	-53139.1	1005.82	-29747.3	0.000000	0.000000	6.386922	-0.041246	NaN	0.000000	0.001688	0.001752	28.0817	0.051934	0.001959	26.5084	-47.7896	-160.59	-0.006383	0.385387	-0.664672	-0.666040	-0.041246	26.5084	-0.663506	-6.201249E+8	6.651183E-11	NaN
479	1.000000	0.394735	7.36974e+06	-53139.1	1005.82	-29747.3	0.000000	0.000000	6.394903	-0.031741	NaN	0.000000	0.001662	0.001726	28.0816	0.057045	0.001961	29.0945	-92.4561	-169.585	-0.097925	0.393475	-0.656692	-0.657952	-0.031741	29.0945	-0.655874	-4.874658E+8	6.511407E-11	NaN
479	1.000000	0.402736	7.36974e+06	-53139.1	1005.82	-29747.3	0.000000	0.000000	6.402904	-0.043075	NaN	0.000000	0.001666	0.001709	28.0822	0.061966	0.002083	29.7446	146.314	-167.876	-0.010896	0.401424	-0.648691	-0.650003	-0.043075	29.7446	-0.647605	-3.754872E+8	1.147182E-10	NaN
479	1.000000	0.410703	7.36974e+06	-53139.1	1005.82	-29747.3	0.000000	0.000000	6.410876	0.069523	NaN	0.000000	0.001675	0.001745	28.0817	0.114189	0.001938	58.9321	20.5382	-166.977	0.024112	0.409442	-0.640723	-0.641985	0.069523	58.9321	-0.641608	-3.107091E+8	-2.237548E-10	NaN
479	1.000000	0.418746	7.36974e+06	-53139.1	1005.82	-29747.3	0.000000	0.000000	6.418915	-0.002326	NaN	0.000000	0.001666	0.001733	28.0817	0.029252	0.001939	15.0883	-9.755026	-165.71	-0.047907	0.417417	-0.632681	-0.634010	-0.002326	15.0883	-0.632566	-2.334808E+8	9.963694E-12	NaN
479	1.000000	0.426727	7.36974e+06	-53139.1	1005.82	-29747.3	0.000000	0.000000	6.426897	-0.003787	NaN	0.000000	0.001654	0.001689	28.0817	0.032711	0.001997	16.3763	-91.2953	-162.186	0.060682	0.425382	-0.624699	-0.626045	-0.003787	16.3763	-0.624526	-1.810638E+8	2.091550E-11	NaN
479	1.000000	0.434743	7.36974e+06	-53139.1	1005.82	-29747.3	0.000000	0.000000	6.434913	0.024536	NaN	0.000000	0.001633	0.001734	28.0815	0.130585	0.002035	64.1721	-119.387	-165.735	-0.041513	0.433402	-0.616684	-0.618025	0.024536	64.1721	-0.616971	-1.425590E+8	-1.721091E-10	NaN
479	1.000000	0.442744	7.36974e+06	-53139.1	1005.82	-29747.3	0.000000	0.000000	6.442914	0.008139	NaN	0.000000	0.001597	0.001739	28.0818	0.025272	0.002014	12.547	107.897	-165.772	0.039685	0.441436	-0.608683	-0.609991	0.008139	12.547	-0.609170	-1.113503E+8	-7.309295E-11	NaN
479	1.000000	0.450740	7.36974e+06	-53139.1	1005.82	-29747.3	0.000000	0.000000	6.450907	-0.083898	NaN	0.000000	0.001671	0.001713	28.0817	0.097646	0.002001	48.8077	-58.5077	-163.904	0.032795	0.449467	-0.600687	-0.601960	-0.083898	48.8077	-0.599397	-8.168845E+7	1.027054E-9	NaN
479	1.000000	0.458741	7.36974e+06	-53139.1	1005.82	-29747.3	0.000000	0.000000	6.458912	0.031881	NaN	0.000000	0.001644	0.001711	28.0814	0.036212	0.001989	18.2029	179.346	-166.559	0.028964	0.457422	-0.592685	-0.594005	0.031881	18.2029	-0.593999	-6.883157E+7	-4.631773E-10	NaN
479	1.000000	0.466751	7.36974e+06	-53139.1	1005.82	-29747.3	0.000000	0.000000	6.466921	0.018680	NaN	0.000000	0.001647	0.001701	28.0803	0.061929	0.002031	30.489	-83.7549	-165.702	0.043394	0.465435	-0.584676	-0.585991	0.018680	30.489	-0.585136	-5.195004E+7	-3.595820E-10	NaN
479	1.000000	0.474772	7.36974e+06	-53139.1	1005.82	-29747.3	0.000000	0.000000	6.474941	-0.012728	NaN	0.000000	0.001675	0.001686	28.0804	0.085504	0.001928	44.3421	-176.755	-164.917	0.051955	0.473438	-0.576655	-0.577989	-0.012728	44.3421	-0.576440	-3.940783E+7	3.229895E-10	NaN
479	1.000000	0.482731	7.36974e+06	-53139.1	1005.82	-29747.3	0.000000	0.000000	6.482902	0.024133	NaN	0.000000	0.001665	0.001724	28.0804	0.036854	0.002021	18.2372	63.7391	-165.292	-0.052487	0.481454	-0.568696	-0.569972	0.024133	18.2372	-0.569688	-3.179264E+7	-7.590658E-10	NaN
479	1.000000	0.490791	7.36974e+06	-53139.1	1005.82	-29747.3	0.000000	0.000000	6.490962	0.035673	NaN	0.000000	0.001661	0.001667	28.0805	0.036412	0.002059	17.6832	17.8776	-165.868	0.054143	0.489465	-0.560636	-0.561961	0.035673	17.6832	-0.562149	-2.500931E+7	-1.426389E-9	NaN
479	1.000000	0.498761	7.36974e+06	-53139.1	1005.82	-29747.3	0.000000	0.000000	6.498929	-0.047605	NaN	0.000000	0.001596	0.001692	28.0807	0.068267	0.002083	32.7676	-99.48	-163.951	-0.035328	0.497431	-0.552666	-0.553996	-0.047605	32.7676	-0.551576	-1.785592E+7	2.666064E-9	NaN
479	1.000000	0.506760	7.36974e+06	-53139.1	1005.82	-29747.3	0.000000	0.000000	6.506932	0.054045	NaN	0.000000	0.001591	0.001708	28.0805	0.013184	0.002037	6.471733	-32.7049	-164.447	0.112411	0.505438	-0.544667	-0.545989	0.054045	6.471733	-0.550930	-1.749192E+7	-3.089687E-9	NaN
479	1.000000	0.514782	7.36974e+06	-53139.1	1005.82	-29747.3	0.000000	0.000000	6.514953	0.022601	NaN	0.000000	0.001543	0.001679	28.0806	0.093679	0.001942	48.2283	98.6418	-165.399	-0.068038	0.513477	-0.536644	-0.537950	0.022601	48.2283	-0.536996	-1.121209E+7	-2.015762E-9	NaN
479	1.000000	0.522753	7.36974e+06	-53139.1	1005.82	-29747.3	0.000000	0.000000	6.522922	-0.024196	NaN	0.000000	0.001534	0.001725	28.0805	0.074844	0.001996	37.4946	-20.8266	-166.068	-0.058802	0.521449	-0.528674	-0.529978	-0.024196	37.4946	-0.528190	-8.46125e+06	2.859632E-9	NaN
479	1.000000	0.530790	7.36974e+06	-53139.1	1005.82	-29747.3	0.000000	0.000000	6.530961	0.021520	NaN	0.000000	0.001523	0.001710	28.0804	0.059478	0.002052	28.9839	-149.114	-161.935	0.023725	0.529464	-0.520636	-0.521963	0.021520	28.9839	-0.521193	-6.76382e+06	-3.181609E-9	NaN
479	1.000000	0.538769	7.36974e+06	-53139.1	1005.82	-29747.3	0.000000	0.000000	6.538940	0.042614	NaN	0.000000	0.001515	0.001691	28.0805	0.085634	0.001913	44.7684	-142.301	-166.381	0.040524	0.537481	-0.512658	-0.513946	0.042614	44.7684	-0.513372	-5.26468e+06	-8.094242E-9	NaN
479	1.000000	0.546805	7.36974e+06	-53139.1	1005.82	-29747.3	0.000000	0.000000	6.546976	0.024353	NaN	0.000000	0.001559	0.001704	28.0805	0.043435	0.002023	21.4656	20.2535	-165.357	-0.029291	0.545499	-0.504622	-0.505928	0.024353	21.4656	-0.505473	-4.08633e+06	-5.959728E-9	NaN
479	1.000000	0.554781	7.36974e+06	-53139.1	1005.82	-29747.3	0.000000	0.000000	6.554950	-0.027435	NaN	0.000000	0.001543	0.001698	28.0807	0.047774	0.001980	24.1318	-72.9257	-163.067	-0.047571	0.553479	-0.496646	-0.497947	-0.027435	24.1318	-0.495793	-2.99437e+06	9.162133E-9	NaN
479	1.000000	0.562806	7.36974e+06	-53139.1	1005.82	-29747.3	0.000000	0.000000	6.562974	-0.056302	NaN	0.000000	0.001531	0.001773	28.0806	0.041448	0.001970	21.035	-121.519	-165.57	-0.069298	0.561482	-0.488620	-0.489945	-0.056302	21.035	-0.486613	-2.22868e+06	2.526234E-8	NaN
479	1.000000	0.570793	7.36974e+06	-53139.1	1005.82	-29747.3	0.000000	0.000000	6.570960	-0.078597	NaN	0.000000	0.001550	0.001740	28.0804	0.049917	0.001981	25.2	139.341	-164.645	-0.091649	0.569487	-0.480634	-0.481940	-0.078597	25.2	-0.478295	-1.70471e+06	4.610571E-8	NaN
479	1.000000	0.578786	7.36974e+06	-53139.1	1005.82	-29747.3	0.000000	0.000000	6.578955	-0.015081	NaN	0.000000	0.001554	0.001703	28.0805	0.100504	0.002139	46.9813	149.103	-165.703	0.011702	0.577479	-0.472641	-0.473947	-0.015081	46.9813	-0.472400	-1.40951e+06	1.069980E-8	NaN
479	1.000000	0.586800	7.36974e+06	-53139.1	1005.82	-29747.3	0.000000	0.000000	6.586970	0.008561	NaN	0.000000	0.001572	0.001704	28.0805	0.133856	0.001939	69.0244	-83.1083	-166.619	0.046157	0.585525	-0.464626	-0.465901	0.008561	69.0244	-0.464720	-1.09979e+06	-7.784658E-9	NaN
479	1.000000	0.594786	7.36974e+06	-53139.1	1005.82	-29747.3	0.000000	0.000000	6.594958	0.048898	NaN	0.000000	0.001566	0.001643	28.0811	0.010123	0.001973	5.130530	78.1074	-168.389	0.085788	0.593517	-0.456641	-0.457910	0.048898	5.130530	-0.463789	-1.06719e+06	-4.581960E-8	NaN
479	1.000000	0.602820	7.36974e+06	-53139.1	1005.82	-29747.3	0.000000	0.000000	6.602992	0.060860	NaN	0.000000	0.001543	0.001704	28.0817	0.046313	0.001995	23.2097	141.958	-166.704	-0.000700	0.601469	-0.448607	-0.449958	0.060860	23.2097	-0.450573	-695689	-8.748098E-8	NaN
479	1.000000	0.610794	7.36974e+06	-53139.1	1005.82	-29747.3	0.000000	0.000000	6.610964	0.010919	NaN	0.000000	0.001576	0.001693	28.082	0.034997	0.001883	18.584	32.7631	-167.995	0.046481	0.609497	-0.440633	-0.441930	0.010919	18.584	-0.441074	-511115	-2.136397E-8	NaN
479	1.000000	0.618816	7.36974e+06	-53139.1	1005.82	-29747.3	0.000000	0.000000	6.618985	-0.005762	NaN	0.000000	0.001545	0.001700	28.0818	0.033382	0.001938	17.2267	-62.8327	-163.071	-0.049842	0.617513	-0.432611	-0.433914	-0.005762	17.2267	-0.432360	-384984	1.496758E-8	NaN
479	1.000000	0.626805	7.36974e+06	-53139.1	1005.82	-29747.3	0.000000	0.000000	6.626974	-0.036987	NaN	0.000000	0.001562	0.001692	28.0816	0.045063	0.002071	21.7626	-56.6973	-164.766	-0.124556	0.625539	-0.424621	-0.425888	-0.036987	21.7626	-0.423347	-286986	1.288816E-7	NaN
479	1.000000	0.634837	7.36974e+06	-53139.1	1005.82	-29747.3	0.000000	0.000000	6.635006	-0.031374	NaN	0.000000	0.001546	0.001682	28.0817	0.152496	0.002083	73.2036	132.266	-165.109	-0.013104	0.633505	-0.416589	-0.417922	-0.031374	73.2036	-0.416268	-227751	1.377544E-7	NaN
479	1.000000	0.642841	7.36974e+06	-53139.1	1005.82	-29747.3	0.000000	0.000000	6.643010	-0.019679	NaN	0.000000	0.001583	0.001704	28.0818	0.070424	0.002116	33.2857	102.843	-164.407	0.012987	0.641459	-0.408586	-0.409967	-0.019679	33.2857	-0.408143	-174576	1.127254E-7	NaN
479	1.000000	0.650841	7.36974e+06	-53139.1	1005.82	-29747.3	0.000000	0.000000	6.651011	0.017897	NaN	0.000000	0.001573	0.001679	28.0822	0.118864	0.002021	58.8079	105.875	-163.617	0.047259	0.649504	-0.400586	-0.401923	0.017897	58.8079	-0.400814	-137280	-1.303690E-7	NaN
479	1.000000	0.658830	7.36974e+06	-53139.1	1005.82	-29747.3	0.000000	0.000000	6.658999	-0.033936	NaN	0.000000	0.001533	0.001685	28.0817	0.108223	0.001960	55.2051	126.974	-166.529	-0.057354	0.657527	-0.392597	-0.393900	-0.033936	55.2051	-0.392136	-103206	3.288183E-7	NaN
479	1.000000	0.666847	7.36974e+06	-53139.1	1005.82	-29747.3	0.000000	0.000000	6.667018	0.032852	NaN	0.000000	0.001509	0.001704	28.0818	0.054361	0.001998	27.2053	-161.887	-165.518	0.007339	0.665519	-0.384580	-0.385907	0.032852	27.2053	-0.385486	-82899	-3.962885E-7	NaN
479	1.000000	0.674850	7.36974e+06	-53139.1	1005.82	-29747.3	0.000000	0.000000	6.675019	-0.031339	NaN	0.000000	0.001525	0.001709	28.0818	0.088626	0.001965	45.1031	-138.862	-168.436	-0.023087	0.673563	-0.376576	-0.377864	-0.031339	45.1031	-0.376055	-60707.1	5.162310E-7	NaN
479	1.000000	0.682830	7.36974e+06	-53139.1	1005.82	-29747.3	0.000000	0.000000	6.683000	0.024951	NaN	0.000000	0.001534	0.001715	28.0817	0.044825	0.002088	21.4631	-16.8315	-162.823	0.083803	0.681533	-0.368597	-0.369894	0.024951	21.4631	-0.369469	-48807	-5.112237E-7	NaN
479	1.000000	0.690840	7.36974e+06	-53139.1	1005.82	-29747.3	0.000000	0.000000	6.691011	0.024091	NaN	0.000000	0.001542	0.001674	28.0819	0.099963	0.001960	51.0057	-148.736	-163.282	-0.042670	0.689539	-0.360587	-0.361888	0.024091	51.0057	-0.360941	-36766	-6.552383E-7	NaN
479	1.000000	0.698871	7.36974e+06	-53139.1	1005.82	-29747.3	0.000000	0.000000	6.699042	0.023541	NaN	0.000000	0.001537	0.001720	28.0817	0.035574	0.002002	17.7669	68.532	-168.146	0.058855	0.697548	-0.352556	-0.353878	0.023541	17.7669	-0.353549	-28739.5	-8.191108E-7	NaN
479	1.000000	0.706847	7.36974e+06	-53139.1	1005.82	-29747.3	0.000000	0.000000	6.707016	-0.026103	NaN	0.000000	0.001537	0.001729	28.0819	0.095958	0.002045	46.9126	-68.6365	-164.23	-0.010551	0.705558	-0.344580	-0.345869	-0.026103	46.9126	-0.344162	-20997.7	1.243150E-6	NaN
479	1.000000	0.714861	7.36974e+06	-53139.1	1005.82	-29747.3	0.000000	0.000000	6.715034	0.090525	NaN	0.000000	0.001582	0.001701	28.0817	0.100041	0.001878	53.2587	-130.813	-167.284	0.063214	0.713530	-0.336566	-0.337897	0.090525	53.2587	-0.337841	-16985.1	-5.329701E-6	NaN
479	1.000000	0.722865	7.36974e+06	-53139.1	1005.82	-29747.3	0.000000	0.000000	6.723033	-0.033518	NaN	0.000000	0.001549	0.001707	28.0817	0.101014	0.002205	45.8076	6.537039	-165.582	0.051449	0.721528	-0.328562	-0.329899	-0.033518	45.8076	-0.328013	-12199.5	2.747479E-6	NaN
479	1.000000	0.730884	7.36974e+06	-53139.1	1005.82	-29747.3	0.000000	0.000000	6.731056	0.055177	NaN	0.000000	0.001534	0.001689	28.0817	0.088706	0.001962	45.2171	134.801	-164.195	0.052886	0.729566	-0.320543	-0.321861	0.055177	45.2171	-0.321458	-9774.51	-5.644943E-6	NaN
479	1.000000	0.738855	7.36974e+06	-53139.1	1005.82	-29747.3	0.000000	0.000000	6.739027	0.043606	NaN	0.000000	0.001568	0.001724	28.0806	0.049390	0.002040	24.2151	66.4282	-164.293	0.034133	0.737532	-0.312572	-0.313895	0.043606	24.2151	-0.313922	-7568.95	-5.761151E-6	NaN
479	1.000000	0.746870	7.36974e+06	-53139.1	1005.82	-29747.3	0.000000	0.000000	6.747039	-0.029930	NaN	0.000000	0.001540	0.001696	28.0806	0.091242	0.001972	46.2597	51.6802	-166.797	-0.080166	0.745595	-0.304557	-0.305832	-0.029930	46.2597	-0.304071	-5409.66	5.532614E-6	NaN
479	1.000000	0.754878	7.36974e+06	-53139.1	1005.82	-29747.3	0.000000	0.000000	6.755047	-0.026500	NaN	0.000000	0.001548	0.001680	28.0805	0.059682	0.001918	31.1225	18.3236	-165.698	0.043866	0.753573	-0.296549	-0.297854	-0.026500	31.1225	-0.295910	-4089.57	6.479813E-6	NaN
479	1.000000	0.762894	7.36974e+06	-53139.1	1005.82	-29747.3	0.000000	0.000000	6.763065	0.044849	NaN	0.000000	0.001516	0.001702	28.0805	0.051044	0.002117	24.1097	-83.0487	-166.695	0.117034	0.761579	-0.288533	-0.289848	0.044849	24.1097	-0.289928	-3328.35	-1.347501E-5	NaN
479	1.000000	0.770872	7.36974e+06	-53139.1	1005.82	-29747.3	0.000000	0.000000	6.771044	0.056169	NaN	0.000000	0.001537	0.001733	28.0803	0.052562	0.001996	26.3368	86.7399	-162.123	0.048747	0.769558	-0.280555	-0.281869	0.056169	26.3368	-0.282155	-2543.61	-2.208226E-5	NaN
479	1.000000	0.778887	7.36974e+06	-53139.1	1005.82	-29747.3	0.000000	0.000000	6.779058	0.043530	NaN	0.000000	0.001566	0.001696	28.0806	0.080512	0.001987	40.5213	-178.362	-164.963	0.126751	0.777572	-0.272540	-0.273855	0.043530	40.5213	-0.273346	-1872.13	-2.325156E-5	NaN
479	1.000000	0.786884	7.36974e+06	-53139.1	1005.82	-29747.3	0.000000	0.000000	6.787055	0.025941	NaN	0.000000	0.001564	0.001726	28.0806	0.062459	0.001924	32.4566	-155.269	-163.263	-0.039874	0.785590	-0.264543	-0.265837	0.025941	32.4566	-0.265142	-1404.62	-1.846854E-5	NaN
479	1.000000	0.794863	7.36974e+06	-53139.1	1005.82	-29747.3	0.000000	0.000000	6.795033	0.005076	NaN	0.000000	0.001570	0.001701	28.0804	0.038574	0.001950	19.7768	-172.173	-166.434	0.017936	0.793639	-0.256564	-0.257788	0.005076	19.7768	-0.256756	-1045.04	-4.857172E-6	NaN
479	1.000000	0.802872	7.36974e+06	-53139.1	1005.82	-29747.3	0.000000	0.000000	6.803043	0.026941	NaN	0.000000	0.001560	0.001734	28.0805	0.042945	0.002057	20.874	-31.7567	-168.706	-0.011005	0.801595	-0.248555	-0.249832	0.026941	20.874	-0.249523	-808.318	-3.332959E-5	NaN
479	1.000000	0.810879	7.36974e+06	-53139.1	1005.82	-29747.3	0.000000	0.000000	6.811051	0.043483	NaN	0.000000	0.001605	0.001751	28.0803	0.029467	0.002057	14.328	124.592	-165.693	-0.006431	0.809585	-0.240547	-0.241842	0.043483	14.328	-0.242824	-636.198	-6.834849E-5	NaN
479	1.000000	0.818884	7.36974e+06	-53139.1	1005.82	-29747.3	0.000000	0.000000	6.819055	0.039919	NaN	0.000000	0.001577	0.001730	28.0805	0.133984	0.001888	70.9609	-95.2362	-164.025	0.057748	0.817574	-0.232543	-0.233853	0.039919	70.9609	-0.232965	-445.921	-8.951977E-5	NaN
479	1.000000	0.826919	7.36974e+06	-53139.1	1005.82	-29747.3	0.000000	0.000000	6.827089	0.023867	NaN	0.000000	0.001550	0.001732	28.0804	0.122324	0.001915	63.8671	57.6348	-162.028	0.004389	0.825616	-0.224508	-0.225811	0.023867	63.8671	-0.224788	-331.112	-7.207988E-5	NaN
479	1.000000	0.834920	7.36974e+06	-53139.1	1005.82	-29747.3	0.000000	0.000000	6.835091	0.016873	NaN	0.000000	0.001608	0.001728	28.0806	0.026677	0.002120	12.584	72.7114	-163.904	-0.017687	0.833575	-0.216507	-0.217852	0.016873	12.584	-0.217512	-253.43	-6.657885E-5	NaN
479	1.000000	0.842879	7.36974e+06	-53139.1	1005.82	-29747.3	0.000000	0.000000	6.843050	0.023927	NaN	0.000000	0.001586	0.001717	28.0804	0.089788	0.002011	44.6445	168.238	-165.995	0.027796	0.841614	-0.208548	-0.209813	0.023927	44.6445	-0.208950	-184.417	-0.000130	NaN
479	1.000000	0.850897	7.36974e+06	-53139.1	1005.82	-29747.3	0.000000	0.000000	6.851068	0.019999	NaN	0.000000	0.001586	0.001701	28.0803	0.048927	0.002059	23.7665	-21.8015	-169.5	0.037600	0.849571	-0.200530	-0.201856	0.019999	23.7665	-0.201161	-137.644	-0.000145	NaN
479	1.000000	0.858935	7.36974e+06	-53139.1	1005.82	-29747.3	0.000000	0.000000	6.859107	0.043296	NaN	0.000000	0.001577	0.001711	28.0806	0.010501	0.001977	5.311173	57.8613	-168.118	-0.012673	0.857600	-0.192492	-0.193827	0.043296	5.311173	-0.198605	-124.955	-0.000346	NaN
479	1.000000	0.866927	7.36974e+06	-53139.1	1005.82	-29747.3	0.000000	0.000000	6.867098	0.009499	NaN	0.000000	0.001568	0.001718	28.0803	0.150921	0.001961	76.963	78.9047	-166.638	0.131061	0.865699	-0.184499	-0.185728	0.009499	76.963	-0.184592	-72.9882	-0.000130	NaN
479	1.000000	0.874938	7.36974e+06	-53139.1	1005.82	-29747.3	0.000000	0.000000	6.875109	0.022418	NaN	0.000000	0.001601	0.001720	28.0817	0.073830	0.002039	36.2002	121.602	-163.592	0.004355	0.873633	-0.176489	-0.177794	0.022418	36.2002	-0.176953	-54.1354	-0.000414	NaN
479	1.000000	0.882961	7.36974e+06	-53139.1	1005.82	-29747.3	0.000000	0.000000	6.883132	0.028360	NaN	0.000000	0.001615	0.001719	28.0816	0.022679	0.002080	10.9057	66.9322	-166.232	-0.015950	0.881622	-0.168465	-0.169805	0.028360	10.9057	-0.170416	-41.7668	-0.000679	NaN
479	1.000000	0.890917	7.36974e+06	-53139.1	1005.82	-29747.3	0.000000	0.000000	6.891089	0.056181	NaN	0.000000	0.001580	0.001732	28.0816	0.157015	0.002011	78.0592	-134.836	-167.228	0.041802	0.889618	-0.160510	-0.161809	0.056181	78.0592	-0.161050	-28.6165	-0.001963	NaN
479	1.000000	0.898948	7.36974e+06	-53139.1	1005.82	-29747.3	0.000000	0.000000	6.899118	0.009471	NaN	0.000000	0.001640	0.001739	28.0821	0.024557	0.002018	12.1676	132.347	-165.999	0.015104	0.897636	-0.152479	-0.153791	0.009471	12.1676	-0.153063	-20.5887	-0.000460	NaN
479	1.000000	0.906947	7.36974e+06	-53139.1	1005.82	-29747.3	0.000000	0.000000	6.907117	-0.009936	NaN	0.000000	0.001621	0.001723	28.0816	0.117127	0.001974	59.3333	-32.6608	-168.151	0.016810	0.905677	-0.144479	-0.145750	-0.009936	59.3333	-0.144354	-14.2627	0.000697	NaN
479	1.000000	0.914954	7.36974e+06	-53139.1	1005.82	-29747.3	0.000000	0.000000	6.915125	0.043792	NaN	0.000000	0.001606	0.001721	28.0817	0.036536	0.001909	19.1386	-108.371	-168.802	0.144389	0.913613	-0.136473	-0.137814	0.043792	19.1386	-0.138189	-10.9359	-0.004004	NaN
479	1.000000	0.922950	7.36974e+06	-53139.1	1005.82	-29747.3	0.000000	0.000000	6.923119	-0.000727	NaN	0.000000	0.001609	0.001716	28.0819	0.160870	0.001948	82.5992	-104.573	-162.872	0.044055	0.921654	-0.128477	-0.129773	-0.000727	82.5992	-0.128471	-7.115822	0.000102	NaN
479	1.000000	0.930951	7.36974e+06	-53139.1	1005.82	-29747.3	0.000000	0.000000	6.931123	0.050337	NaN	0.000000	0.001590	0.001737	28.0816	0.078639	0.001965	40.0297	-106.184	-166.698	0.026292	0.929590	-0.120476	-0.121837	0.050337	40.0297	-0.121419	-5.159932	-0.009755	NaN
479	1.000000	0.938946	7.36974e+06	-53139.1	1005.82	-29747.3	0.000000	0.000000	6.939114	-0.031037	NaN	0.000000	0.001603	0.001755	28.0819	0.119219	0.002052	58.1041	163.932	-163.594	0.033665	0.937635	-0.112481	-0.113792	-0.031037	58.1041	-0.112081	-3.323042	0.009340	NaN
479	1.000000	0.946949	7.36974e+06	-53139.1	1005.82	-29747.3	0.000000	0.000000	6.947118	-0.025954	NaN	0.000000	0.001602	0.001732	28.0816	0.039801	0.002001	19.8865	8.756493	-164.894	-0.059583	0.945609	-0.104478	-0.105818	-0.025954	19.8865	-0.103499	-2.180849	0.011901	NaN
479	1.000000	0.954971	7.36974e+06	-53139.1	1005.82	-29747.3	0.000000	0.000000	6.955141	0.005989	NaN	0.000000	0.001576	0.001729	28.0817	0.092781	0.001848	50.2079	108.567	-165.617	0.031473	0.953665	-0.096456	-0.097762	0.005989	50.2079	-0.096546	-1.529260	-0.003916	NaN
479	1.000000	0.962979	7.36974e+06	-53139.1	1005.82	-29747.3	0.000000	0.000000	6.963149	0.004598	NaN	0.000000	0.001606	0.001703	28.0818	0.044850	0.001946	23.0443	159.269	-167.771	0.023706	0.961652	-0.088448	-0.089775	0.004598	23.0443	-0.088598	-1.001774	-0.004590	NaN
479	1.000000	0.970974	7.36974e+06	-53139.1	1005.82	-29747.3	0.000000	0.000000	6.971142	-0.046079	NaN	0.000000	0.001572	0.001736	28.0817	0.033510	0.002054	16.3169	-69.2886	-167.876	-0.051882	0.969623	-0.080453	-0.081804	-0.046079	16.3169	-0.078335	-0.562098	0.081977	NaN
479	1.000000	0.978945	7.36974e+06	-53139.1	1005.82	-29747.3	0.000000	0.000000	6.979111	-0.093138	NaN	0.000000	0.001574	0.001717	28.0819	0.042108	0.001958	21.507	157.466	-165.881	-0.030021	0.977685	-0.072482	-0.073741	-0.093138	21.507	-0.069234	-0.325322	0.286294	NaN
479	1.000000	0.986965	7.36974e+06	-53139.1	1005.82	-29747.3	0.000000	0.000000	6.987133	-0.048558	NaN	0.000000	0.001579	0.001731	28.0818	0.115723	0.001992	58.0991	95.6922	-164.746	-0.051457	0.985652	-0.064461	-0.065775	-0.048558	58.0991	-0.063835	-0.231270	0.209961	NaN
479	1.000000	0.994963	7.36974e+06	-53139.1	1005.82	-29747.3	0.000000	0.000000	6.995133	-0.002160	NaN	0.000000	0.001557	0.001716	28.0817	0.040517	0.002054	19.7242	-12.2307	-165.545	-0.009858	0.993675	-0.056464	-0.057752	-0.002160	19.7242	-0.056381	-0.141422	0.015275	NaN
479	1.000000	1.002990	7.36974e+06	-53139.1	1005.82	-29747.3	0.000000	0.000000	7.003159	-0.020897	NaN	0.000000	0.001562	0.001660	28.0818	0.068648	0.001973	34.7916	103.53	-167.813	0.003586	1.001631	-0.048436	-0.049796	-0.020897	34.7916	-0.047986	-0.079273	0.263605	NaN
479	1.000000	1.010980	7.36974e+06	-53139.1	1005.82	-29747.3	0.000000	0.000000	7.011152	0.038198	NaN	0.000000	0.001591	0.001709	28.0809	0.088571	0.001954	45.3233	62.9823	-166.451	0.013378	1.009638	-0.040447	-0.041789	0.038198	45.3233	-0.041079	-0.048771	-0.783203	NaN
479	1.000000	1.018987	7.36974e+06	-53139.1	1005.82	-29747.3	0.000000	0.000000	7.019157	0.006188	NaN	0.000000	0.001611	0.001704	28.0807	0.048522	0.001958	24.7838	-58.9298	-166.66	0.104267	1.017701	-0.032440	-0.033726	0.006188	24.7838	-0.032627	-0.027314	-0.226546	NaN
479	1.000000	1.026993	7.36974e+06	-53139.1	1005.82	-29747.3	0.000000	0.000000	7.027162	-0.029278	NaN	0.000000	0.001592	0.001691	28.0804	0.175742	0.001902	92.3906	22.3253	-168.285	-0.069655	1.025640	-0.024434	-0.025787	-0.029278	92.3906	-0.024196	-0.016077	1.821050	NaN
479	1.000000	1.035002	7.36974e+06	-53139.1	1005.82	-29747.3	0.000000	0.000000	7.035170	-0.043084	NaN	0.000000	0.001669	0.001724	28.0804	0.074894	0.002027	36.9491	-115.053	-164.311	-0.027214	1.033671	-0.016425	-0.017756	-0.043084	36.9491	-0.015551	-0.009608	4.484276	NaN
479	1.000000	1.042983	7.36974e+06	-53139.1	1005.82	-29747.3	0.000000	0.000000	7.043152	-0.020384	NaN	0.000000	0.001662	0.001703	28.0804	0.101933	0.001994	51.1091	36.0626	-164.07	-0.063694	1.041715	-0.008444	-0.009712	-0.020384	51.1091	-0.008145	-0.005316	3.834269	NaN
479	1.000000	1.050968	7.36974e+06	-53139.1	1005.82	-29747.3	0.000000	0.000000	7.051340	4.908215	NaN	0.000000	0.001629	0.001723	28.0807	5.454137	0.001664	3277.39	9.887569	-171.358	3.175729	1.049614	-0.000459	-0.001813	4.908215	3277.39	-0.001582	-0.001147	-4278.53	NaN
479	2.000000	1.055554	7.36974e+06	-53139.1	1005.82	-29747.3	0.000000	0.000000	7.056137	10.0593	NaN	0.000000	0.001656	0.001725	28.081	9.837684	0.001709	5754.72	7.280411	-175.011	9.686990	1.055272	0.004127	0.003845	10.0593	5754.72	0.002816	0.002226	4519.61	111446
479	2.000000	1.057496	7.36974e+06	-53139.1	1005.82	-29747.3	0.000000	0.000000	7.058272	14.7364	NaN	0.000000	0.001668	0.001703	28.0803	12.1588	0.001722	7061.47	8.282045	-176.18	13.5644	1.057235	0.006070	0.005808	14.7364	7061.47	0.004504	0.003686	3998.34	106271
479	2.000000	1.059504	7.36974e+06	-53139.1	1005.82	-29747.3	0.000000	0.000000	7.060398	17.6277	NaN	0.000000	0.001683	0.001750	28.0804	13.9377	0.001613	8640.01	6.336675	-176.094	17.4172	1.059231	0.008077	0.007804	17.6277	8640.01	0.006547	0.005590	3153.65	105583
479	2.000000	1.061498	7.36974e+06	-53139.1	1005.82	-29747.3	0.000000	0.000000	7.062556	21.5796	NaN	0.000000	0.001669	0.001721	28.0806	16.956	0.001837	9228.96	7.765864	-177.35	21.4016	1.061237	0.010072	0.009810	21.5796	9228.96	0.008318	0.007371	2927.51	98209.4
479	2.000000	1.063423	7.36974e+06	-53139.1	1005.82	-29747.3	0.000000	0.000000	7.064696	26.8279	NaN	0.000000	0.001720	0.001687	28.0806	18.5709	0.001875	9903.68	2.785138	-173.211	23.9369	1.063130	0.011996	0.011703	26.8279	9903.68	0.009964	0.009142	2934.67	94635.9
479	2.000000	1.065472	7.36974e+06	-53139.1	1005.82	-29747.3	0.000000	0.000000	7.066911	30.8527	NaN	0.000000	0.001693	0.001703	28.0804	20.6902	0.001735	11927.2	6.013404	-178.096	30.5864	1.065124	0.014045	0.013697	30.8527	11927.2	0.012105	0.011616	2655.99	101107
479	2.000000	1.067453	7.36974e+06	-53139.1	1005.82	-29747.3	0.000000	0.000000	7.069152	37.1692	NaN	0.000000	0.001701	0.001712	28.0804	22.6241	0.001715	13193.1	6.728461	-178.604	35.836	1.067148	0.016027	0.015721	37.1692	13193.1	0.013914	0.013864	2681.02	102372
479	2.000000	1.069421	7.36974e+06	-53139.1	1005.82	-29747.3	0.000000	0.000000	7.071465	45.5715	NaN	0.000000	0.001687	0.001683	28.0806	24.2084	0.001784	13567.7	3.530467	-176.256	43.7333	1.069081	0.017994	0.017654	45.5715	13567.7	0.015475	0.015923	2861.92	98233.6
479	2.000000	1.071410	7.36974e+06	-53139.1	1005.82	-29747.3	0.000000	0.000000	7.073579	48.6133	NaN	0.000000	0.001683	0.001738	28.0805	26.5469	0.001859	14281.6	5.591031	-179.557	46.4632	1.071164	0.019983	0.019738	48.6133	14281.6	0.017430	0.018663	2604.74	95511
479	2.000000	1.073425	7.36974e+06	-53139.1	1005.82	-29747.3	0.000000	0.000000	7.075832	54.3871	NaN	0.000000	0.001678	0.001748	28.0805	27.37	0.001735	15774	1.434384	-175.013	53.6164	1.073097	0.021998	0.021670	54.3871	15774	0.019412	0.021627	2514.77	97997.9
479	2.000000	1.075423	7.36974e+06	-53139.1	1005.82	-29747.3	0.000000	0.000000	7.078133	61.7655	NaN	0.000000	0.001693	0.001723	28.0804	29.7162	0.001809	16429.6	6.089161	178.663	61.8294	1.075094	0.023996	0.023667	61.7655	16429.6	0.021177	0.024425	2528.76	96046.3
479	2.000000	1.077454	7.36974e+06	-53139.1	1005.82	-29747.3	0.000000	0.000000	7.080420	67.9912	NaN	0.000000	0.001661	0.001718	28.0818	30.8728	0.001699	18170.1	1.851363	-175.746	67.0853	1.077045	0.026027	0.025618	67.9912	18170.1	0.023221	0.027858	2440.65	99461.8
479	2.000000	1.079426	7.36974e+06	-53139.1	1005.82	-29747.3	0.000000	0.000000	7.082574	72.3952	NaN	0.000000	0.001627	0.001719	28.0818	33.2336	0.001668	19925.2	4.970131	177.718	72.8067	1.079119	0.027999	0.027692	72.3952	19925.2	0.025274	0.031517	2297.05	102543
479	2.000000	1.081421	7.36974e+06	-53139.1	1005.82	-29747.3	0.000000	0.000000	7.084797	77.9454	NaN	0.000000	0.001707	0.001705	28.0817	35.9136	0.001835	19567.4	5.676703	178.292	77.6386	1.081124	0.029994	0.029697	77.9454	19567.4	0.027007	0.034768	2241.9	95877.9
479	2.000000	1.083400	7.36974e+06	-53139.1	1005.82	-29747.3	0.000000	0.000000	7.087132	86.6242	NaN	0.000000	0.001697	0.001711	28.0816	37.0417	0.001827	20272.6	8.964312	175.107	86.9165	1.083120	0.031973	0.031693	86.6242	20272.6	0.028768	0.038229	2265.9	94729.2
479	2.000000	1.085433	7.36974e+06	-53139.1	1005.82	-29747.3	0.000000	0.000000	7.089545	95.8538	NaN	0.000000	0.001617	0.001716	28.0817	39.235	0.001742	22525	5.117528	177.083	96.4942	1.085072	0.034006	0.033646	95.8538	22525	0.030814	0.042449	2258.12	99886.5
479	2.000000	1.087449	7.36974e+06	-53139.1	1005.82	-29747.3	0.000000	0.000000	7.092010	106.766	NaN	0.000000	0.001613	0.001720	28.0818	40.1763	0.001777	22611.7	1.463663	-177.428	106.234	1.087130	0.036022	0.035703	106.766	22611.7	0.032481	0.046043	2318.84	96277.5
479	2.000000	1.089395	7.36974e+06	-53139.1	1005.82	-29747.3	0.000000	0.000000	7.094246	113.822	NaN	0.000000	0.001611	0.001723	28.0818	42.484	0.001796	23655.5	5.347184	176.476	112.53	1.089091	0.037968	0.037665	113.822	23655.5	0.034360	0.050265	2264.42	96398.8
479	2.000000	1.091387	7.36974e+06	-53139.1	1005.82	-29747.3	0.000000	0.000000	7.096386	117.417	NaN	0.000000	0.001614	0.001713	28.0816	44.4002	0.001923	23083.6	1.336631	-179.557	114.724	1.091184	0.039960	0.039757	117.417	23083.6	0.036145	0.054446	2156.58	90384.4
479	2.000000	1.093444	7.36974e+06	-53139.1	1005.82	-29747.3	0.000000	0.000000	7.098870	127.784	NaN	0.000000	0.001598	0.001744	28.0815	46.3615	0.001825	25397.8	6.920264	174.126	129.047	1.093122	0.042017	0.041695	127.784	25397.8	0.038244	0.059568	2145.17	95073.7
479	2.000000	1.095394	7.36974e+06	-53139.1	1005.82	-29747.3	0.000000	0.000000	7.101270	138.744	NaN	0.000000	0.001650	0.001712	28.0816	47.2004	0.001806	26132.2	6.285173	174.58	138.182	1.095100	0.043967	0.043673	138.744	26132.2	0.039985	0.063989	2168.25	94383.9
479	2.000000	1.097424	7.36974e+06	-53139.1	1005.82	-29747.3	0.000000	0.000000	7.103734	149.281	NaN	0.000000	0.001635	0.001704	28.0817	48.7426	0.001713	28450.8	3.435657	177.871	146.715	1.097009	0.045997	0.045582	149.281	28450.8	0.042062	0.069466	2148.99	98623.8
479	2.000000	1.099380	7.36974e+06	-53139.1	1005.82	-29747.3	0.000000	0.000000	7.106082	158.827	NaN	0.000000	0.001619	0.001713	28.0818	50.6694	0.001797	28203.3	4.587282	176.066	157.906	1.099013	0.047953	0.047586	158.827	28203.3	0.043729	0.074021	2145.7	94710
479	2.000000	1.101364	7.36974e+06	-53139.1	1005.82	-29747.3	0.000000	0.000000	7.108419	167.391	NaN	0.000000	0.001612	0.001733	28.0818	53.0877	0.001816	29229.5	3.350443	176.555	164.906	1.101022	0.049937	0.049595	167.391	29229.5	0.045642	0.079421	2107.62	94760.3
479	2.000000	1.103375	7.36974e+06	-53139.1	1005.82	-29747.3	0.000000	0.000000	7.110792	176.2	NaN	0.000000	0.001650	0.001722	28.0817	53.3837	0.001716	31106.6	2.648752	176.501	174.145	1.103175	0.051948	0.051749	176.2	31106.6	0.047700	0.085436	2062.38	97231.3
479	2.000000	1.105364	7.36974e+06	-53139.1	1005.82	-29747.3	0.000000	0.000000	7.113237	187.273	NaN	0.000000	0.001648	0.001734	28.0817	56.4071	0.001662	33932	6.773910	173.229	185.793	1.104913	0.053937	0.053486	187.273	33932	0.049798	0.091790	2040.22	102326
479	2.000000	1.107412	7.36974e+06	-53139.1	1005.82	-29747.3	0.000000	0.000000	7.115618	195.385	NaN	0.000000	0.001608	0.001744	28.0817	58.5083	0.001840	31806.1	4.199353	176.397	194.838	1.107004	0.055985	0.055577	195.385	31806.1	0.051378	0.096719	2020.13	93438.8
479	2.000000	1.109380	7.36974e+06	-53139.1	1005.82	-29747.3	0.000000	0.000000	7.118071	207.186	NaN	0.000000	0.001630	0.001707	28.0818	60.8387	0.001783	34128.4	5.133893	173.567	205.583	1.109082	0.057953	0.057655	207.186	34128.4	0.053400	0.103210	2007.41	97057.1
479	2.000000	1.111383	7.36974e+06	-53139.1	1005.82	-29747.3	0.000000	0.000000	7.120487	217.214	NaN	0.000000	0.001605	0.001695	28.0806	63.1353	0.001799	35097.7	3.241115	175.242	216.37	1.111102	0.059956	0.059675	217.214	35097.7	0.055314	0.109544	1982.89	96885.3
479	2.000000	1.113340	7.36974e+06	-53139.1	1005.82	-29747.3	0.000000	0.000000	7.122948	229.487	NaN	0.000000	0.001611	0.001722	28.0805	64.1754	0.001812	35424.6	3.734952	174.587	227.628	1.113143	0.061913	0.061716	229.487	35424.6	0.057054	0.115458	1987.62	95250.1
479	2.000000	1.115331	7.36974e+06	-53139.1	1005.82	-29747.3	0.000000	0.000000	7.125647	246.679	NaN	0.000000	0.001625	0.001710	28.0806	66.7617	0.001756	38008.9	9.858240	168.704	244.082	1.115006	0.063904	0.063579	246.679	38008.9	0.059037	0.122376	2015.74	99268.2
479	2.000000	1.117415	7.36974e+06	-53139.1	1005.82	-29747.3	0.000000	0.000000	7.128118	256.111	NaN	0.000000	0.001648	0.001676	28.0803	68.5522	0.001767	38796.8	4.727546	174.198	256.049	1.116996	0.065988	0.065569	256.111	38796.8	0.061037	0.129553	1976.88	98479.4
479	2.000000	1.119428	7.36974e+06	-53139.1	1005.82	-29747.3	0.000000	0.000000	7.130587	267.187	NaN	0.000000	0.001607	0.001695	28.0804	69.7147	0.001810	38508	9.006297	169.929	267.989	1.118914	0.068001	0.067487	267.187	38508	0.062797	0.136029	1964.19	95391.1
479	2.000000	1.121405	7.36974e+06	-53139.1	1005.82	-29747.3	0.000000	0.000000	7.133056	279.147	NaN	0.000000	0.001612	0.001689	28.0804	73.4777	0.001816	40461	7.292836	169.901	279.045	1.121129	0.069978	0.069702	279.147	40461	0.064804	0.143596	1943.97	97552.4
479	2.000000	1.123329	7.36974e+06	-53139.1	1005.82	-29747.3	0.000000	0.000000	7.135662	295.747	NaN	0.000000	0.001595	0.001680	28.0807	71.927	0.001645	43718.2	-0.023624	177.508	292.705	1.122965	0.071902	0.071538	295.747	43718.2	0.066828	0.151425	1953.1	102645
479	2.000000	1.125406	7.36974e+06	-53139.1	1005.82	-29747.3	0.000000	0.000000	7.138233	307.751	NaN	0.000000	0.001595	0.001682	28.0807	77.2716	0.001940	39834.5	2.236566	176.001	309.925	1.125057	0.073979	0.073630	307.751	39834.5	0.068185	0.156781	1962.93	91914.8
479	2.000000	1.127458	7.36974e+06	-53139.1	1005.82	-29747.3	0.000000	0.000000	7.140834	321.086	NaN	0.000000	0.001586	0.001702	28.0804	78.1582	0.001796	43510.7	3.692279	174.699	324.537	1.127014	0.076031	0.075587	321.086	43510.7	0.070496	0.166112	1932.95	97537
479	2.000000	1.129391	7.36974e+06	-53139.1	1005.82	-29747.3	0.000000	0.000000	7.143354	335.361	NaN	0.000000	0.001570	0.001709	28.0804	79.3925	0.001801	44082.8	4.199203	173.101	335.862	1.129035	0.077964	0.077608	335.361	44082.8	0.072258	0.173396	1934.08	96721.4
479	2.000000	1.131340	7.36974e+06	-53139.1	1005.82	-29747.3	0.000000	0.000000	7.145879	349.35	NaN	0.000000	0.001594	0.001709	28.0804	81.7544	0.001877	43557.9	1.506269	175.744	346.213	1.131026	0.079913	0.079599	349.35	43557.9	0.073898	0.180306	1937.54	93720.6
479	2.000000	1.133409	7.36974e+06	-53139.1	1005.82	-29747.3	0.000000	0.000000	7.148597	365.136	NaN	0.000000	0.001584	0.001713	28.0806	83.3168	0.001697	49109.6	7.041618	169.578	366.227	1.132994	0.081982	0.081567	365.136	49109.6	0.076406	0.191119	1910.52	102633
479	2.000000	1.135268	7.36974e+06	-53139.1	1005.82	-29747.3	0.000000	0.000000	7.151140	381.772	NaN	0.000000	0.001558	0.001729	28.0806	85.1125	0.001769	48125.4	1.778557	175.177	378.77	1.135041	0.083841	0.083614	381.772	48125.4	0.077891	0.197662	1931.44	98897.6
479	2.000000	1.137389	7.36974e+06	-53139.1	1005.82	-29747.3	0.000000	0.000000	7.153800	394.881	NaN	0.000000	0.001579	0.001730	28.0805	86.9773	0.001799	48340.1	1.941395	175.43	394.112	1.136999	0.085962	0.085572	394.881	48340.1	0.079836	0.206384	1913.33	97217.1
479	2.000000	1.139368	7.36974e+06	-53139.1	1005.82	-29747.3	0.000000	0.000000	7.156332	408.323	NaN	0.000000	0.001572	0.001709	28.0804	89.5494	0.001832	48876.1	6.798234	170.016	410.795	1.138936	0.087941	0.087509	408.323	48876.1	0.081675	0.214796	1900.98	96351.1
479	2.000000	1.141384	7.36975e+06	-53139.1	1005.82	-29747.3	0.000000	0.000000	7.159005	424.289	NaN	0.000000	0.001603	0.001712	28.0803	91.995	0.001846	49829.1	4.498298	171.657	424.066	1.141045	0.089957	0.089618	424.289	49829.1	0.083571	0.223633	1897.25	96269.3
479	2.000000	1.143292	7.36975e+06	-53139.1	1005.82	-29747.3	0.000000	0.000000	7.161648	442.168	NaN	0.000000	0.001641	0.001698	28.0804	92.9987	0.001839	50573	6.504158	169.822	437.872	1.142954	0.091865	0.091528	442.168	50573	0.085308	0.231874	1906.93	95954.6
479	2.000000	1.145310	7.36975e+06	-53139.1	1005.82	-29747.3	0.000000	0.000000	7.164356	458.963	NaN	0.000000	0.001597	0.001734	28.0817	93.5029	0.001737	53837.2	0.810591	175.118	456.211	1.144920	0.093883	0.093493	458.963	53837.2	0.087489	0.242417	1893.28	99901.9
479	2.000000	1.147265	7.36975e+06	-53139.1	1005.82	-29747.3	0.000000	0.000000	7.166592	465.775	NaN	0.000000	0.001618	0.001716	28.0817	96.1506	0.001824	52702.6	4.005045	171.666	458.751	1.147063	0.095838	0.095636	465.775	52702.6	0.089209	0.250891	1856.48	96130.8
479	2.000000	1.149351	7.36975e+06	-53139.1	1005.82	-29747.3	0.000000	0.000000	7.169699	490.592	NaN	0.000000	0.001596	0.001729	28.0818	98.4208	0.001859	52954.1	7.793218	168.192	490.482	1.148995	0.097924	0.097568	490.592	52954.1	0.090976	0.259730	1888.86	94931.9
479	2.000000	1.151335	7.36975e+06	-53139.1	1005.82	-29747.3	0.000000	0.000000	7.172272	504.913	NaN	0.000000	0.001619	0.001754	28.0816	98.5634	0.001668	59087	2.779403	172.342	504.355	1.151095	0.099908	0.099668	504.913	59087	0.093499	0.272606	1852.17	103394
479	2.000000	1.152777	7.36975e+06	-53139.1	1005.82	-29747.3	0.000000	0.000000	7.174769	530.557	NaN	0.000000	0.001624	0.001726	28.082	100.936	0.001820	55461.4	7.726102	-12.0208	523.565	1.152369	0.101350	0.100942	530.557	55461.4	0.094175	0.276108	1921.56	96432.9