File: remote_trans/data/nanoindenter/0828-1/data/Data_2025-08-06,11h17m57s/2025-07-22_16-23-58_1_64.txt
2025-07-22, 16:23:58, 1
Index	Phase	Displacement	Time	Pos X	Pos Y	Pos Z	Rot A	Rot B	Piezo Z	Force A	Force B	Gripper	Voltage A	Voltage B	Temperature	Amplitude force	Amplitude pos	Stiffness	Phase shift	Phase excitation	Force A raw	Displacement raw	HMax	HMax raw	Real Force	Real Stiffness	Contact Depth	Area	Hardness	Reduced Mod.
[#]	[#]	[um]	[s]	[um]	[um]	[um]	[m°]	[m°]	[um]	[uN]	[uN]	[V]	[V]	[V]	[°C]	[uN]	[um]	[N/m]	[°]	[°]	[uN]	[um]	[um]	[um]	[uN]	[N/m]	[um]	[um^2]	[MPa]	[MPa]
64	1.000000	0.002617	7.36567e+06	-41839.1	955.818	-29785.5	0.000000	0.000000	6.002796	-0.026470	NaN	0.000000	0.001571	0.001651	28.0877	0.189274	0.000888	213.127	-135.096	-171.054	0.045445	0.001420	-1.076549	-1.077746	-0.026470	213.127	-1.076456	-2.420566E+14	1.093546E-16	NaN
64	1.000000	0.010599	7.36567e+06	-41839.1	955.819	-29785.5	0.000000	0.000000	6.010777	-0.054027	NaN	0.000000	0.001577	0.001671	28.0873	0.097196	0.000983	98.8513	-113.572	-166.661	-0.052933	0.009311	-1.068567	-1.069855	-0.054027	98.8513	-1.068157	-1.872539E+14	2.885210E-16	NaN
64	1.000000	0.018578	7.36567e+06	-41839.1	955.818	-29785.5	0.000000	0.000000	6.018758	-0.039866	NaN	0.000000	0.001541	0.001650	28.088	0.058081	0.001708	34.0128	-4.313942	-165.331	-0.011130	0.017273	-1.060587	-1.061892	-0.039866	34.0128	-1.059708	-1.441787E+14	2.765019E-16	NaN
64	1.000000	0.026598	7.36567e+06	-41839.1	955.818	-29785.5	0.000000	0.000000	6.026775	-0.089119	NaN	0.000000	0.001584	0.001698	28.0855	0.101937	0.001892	53.888	-135.378	-163.774	-0.032467	0.025229	-1.052568	-1.053936	-0.089119	53.888	-1.051328	-1.112403E+14	8.011371E-16	NaN
64	1.000000	0.034581	7.36567e+06	-41839.1	955.818	-29785.5	0.000000	0.000000	6.034761	-0.017361	NaN	0.000000	0.001540	0.001693	28.0872	0.065551	0.001861	35.2294	-74.1269	-166.124	-0.076377	0.033269	-1.044585	-1.045897	-0.017361	35.2294	-1.044216	-8.925835E+13	1.944975E-16	NaN
64	1.000000	0.042589	7.36567e+06	-41839.1	955.818	-29785.5	0.000000	0.000000	6.042767	-0.063696	NaN	0.000000	0.001570	0.001664	28.0872	0.034522	0.001934	17.8489	-100.59	-167.616	0.006272	0.041233	-1.036577	-1.037933	-0.063696	17.8489	-1.033900	-6.485394E+13	9.821517E-16	NaN
64	1.000000	0.050594	7.36567e+06	-41839.1	955.818	-29785.5	0.000000	0.000000	6.050771	-0.076993	NaN	0.000000	0.001585	0.001665	28.0874	0.117561	0.002156	54.5245	173.412	-163.083	-0.200192	0.049278	-1.028572	-1.029888	-0.076993	54.5245	-1.027513	-5.321404E+13	1.446859E-15	NaN
64	1.000000	0.058589	7.36567e+06	-41839.1	955.818	-29785.5	0.000000	0.000000	6.058767	-0.051882	NaN	0.000000	0.001595	0.001645	28.0873	0.096823	0.001982	48.8531	-30.3352	-168.196	0.012392	0.057257	-1.020577	-1.021909	-0.051882	48.8531	-1.019781	-4.187933E+13	1.238834E-15	NaN
64	1.000000	0.066567	7.36567e+06	-41839.1	955.819	-29785.5	0.000000	0.000000	6.066749	0.020773	NaN	0.000000	0.001567	0.001712	28.0873	0.125280	0.002079	60.2501	72.5567	-166.777	0.034925	0.065276	-1.012599	-1.013889	0.020773	60.2501	-1.012857	-3.379375E+13	-6.146935E-16	NaN
64	1.000000	0.074588	7.36567e+06	-41839.1	955.819	-29785.5	0.000000	0.000000	6.074769	-0.015450	NaN	0.000000	0.001582	0.001692	28.0884	0.061009	0.002047	29.8078	-167.141	-163.869	-0.100228	0.073292	-1.004577	-1.005874	-0.015450	29.8078	-1.004189	-2.583197E+13	5.980791E-16	NaN
64	1.000000	0.082598	7.36567e+06	-41839.1	955.818	-29785.5	0.000000	0.000000	6.082773	-0.137684	NaN	0.000000	0.001560	0.001685	28.0886	0.086359	0.002121	40.7102	-69.743	-164.772	-0.100677	0.081260	-0.996567	-0.997906	-0.137684	40.7102	-0.994031	-1.885365E+13	7.302801E-15	NaN
64	1.000000	0.090606	7.36567e+06	-41839.1	955.818	-29785.5	0.000000	0.000000	6.090785	-0.044268	NaN	0.000000	0.001587	0.001697	28.0883	0.122865	0.002050	59.9348	-62.3566	-166.775	0.053758	0.089301	-0.988560	-0.989865	-0.044268	59.9348	-0.988006	-1.564057E+13	2.830319E-15	NaN
64	1.000000	0.098593	7.36567e+06	-41839.1	955.818	-29785.5	0.000000	0.000000	6.098770	-0.088891	NaN	0.000000	0.001558	0.001677	28.0887	0.076906	0.001949	39.458	12.496	-168.252	-0.102502	0.097280	-0.980572	-0.981886	-0.088891	39.458	-0.978883	-1.178582E+13	7.542208E-15	NaN
64	1.000000	0.106622	7.36567e+06	-41839.1	955.819	-29785.5	0.000000	0.000000	6.106800	-0.072346	NaN	0.000000	0.001562	0.001657	28.0879	0.052723	0.002099	25.1212	150.211	-164.742	-0.072775	0.105289	-0.972543	-0.973877	-0.072346	25.1212	-0.970384	-9.053814E+12	7.990653E-15	NaN
64	1.000000	0.114572	7.36567e+06	-41839.1	955.819	-29785.5	0.000000	0.000000	6.114749	-0.093264	NaN	0.000000	0.001544	0.001698	28.0868	0.051179	0.001894	27.0167	151.26	-166.582	-0.002043	0.113272	-0.964594	-0.965893	-0.093264	27.0167	-0.962005	-6.980643E+12	1.336041E-14	NaN
64	1.000000	0.122585	7.36567e+06	-41839.1	955.818	-29785.5	0.000000	0.000000	6.122766	0.009042	NaN	0.000000	0.001585	0.001657	28.0881	0.070381	0.002078	33.8742	-31.3229	-163.587	0.019323	0.121310	-0.956581	-0.957855	0.009042	33.8742	-0.956781	-5.935726E+12	-1.523371E-15	NaN
64	1.000000	0.130570	7.36567e+06	-41839.1	955.818	-29785.5	0.000000	0.000000	6.130749	-0.051302	NaN	0.000000	0.001587	0.001681	28.088	0.114805	0.002084	55.089	10.0514	-166.011	-0.031077	0.129264	-0.948595	-0.949901	-0.051302	55.089	-0.947897	-4.504676E+12	1.138863E-14	NaN
64	1.000000	0.138618	7.36567e+06	-41839.1	955.818	-29785.5	0.000000	0.000000	6.138798	-0.016167	NaN	0.000000	0.001579	0.001698	28.0859	0.125121	0.002078	60.2076	-88.781	-168.962	0.052928	0.137307	-0.940547	-0.941859	-0.016167	60.2076	-0.940346	-3.562922E+12	4.537554E-15	NaN
64	1.000000	0.146600	7.36567e+06	-41839.1	955.818	-29785.5	0.000000	0.000000	6.146777	-0.090771	NaN	0.000000	0.001579	0.001681	28.0885	0.041328	0.002018	20.4748	96.9171	-166.022	-0.067041	0.145288	-0.932566	-0.933878	-0.090771	20.4748	-0.929241	-2.523203E+12	3.597454E-14	NaN
64	1.000000	0.154575	7.36567e+06	-41839.1	955.819	-29785.5	0.000000	0.000000	6.154754	-0.048374	NaN	0.000000	0.001587	0.001674	28.0884	0.036419	0.001839	19.8057	-56.8913	-164.402	-0.053583	0.153326	-0.924591	-0.925840	-0.048374	19.8057	-0.922759	-2.062801E+12	2.345060E-14	NaN
64	1.000000	0.162592	7.36567e+06	-41839.1	955.818	-29785.5	0.000000	0.000000	6.162771	-0.053945	NaN	0.000000	0.001591	0.001672	28.0876	0.076659	0.002082	36.8185	-138.923	-166.739	0.023650	0.161311	-0.916574	-0.917855	-0.053945	36.8185	-0.915475	-1.644767E+12	3.279818E-14	NaN
64	1.000000	0.170607	7.36567e+06	-41839.1	955.818	-29785.5	0.000000	0.000000	6.170786	-0.046380	NaN	0.000000	0.001558	0.001643	28.0865	0.111174	0.001980	56.1413	91.6069	-162.127	-0.098512	0.169266	-0.908559	-0.909899	-0.046380	56.1413	-0.907939	-1.301142E+12	3.564595E-14	NaN
64	1.000000	0.178639	7.36567e+06	-41839.1	955.819	-29785.5	0.000000	0.000000	6.178815	-0.126926	NaN	0.000000	0.001568	0.001640	28.0865	0.028907	0.002195	13.1681	29.5268	-164.284	-0.024881	0.177321	-0.900527	-0.901844	-0.126926	13.1681	-0.893298	-8.250647E+11	1.538376E-13	NaN
64	1.000000	0.186575	7.36567e+06	-41839.1	955.817	-29785.5	0.000000	0.000000	6.186753	-0.068302	NaN	0.000000	0.001583	0.001661	28.086	0.055139	0.001941	28.4011	175.248	-169.977	-0.075969	0.185314	-0.892590	-0.893852	-0.068302	28.4011	-0.890787	-7.630451E+11	8.951218E-14	NaN
64	1.000000	0.194636	7.36567e+06	-41839.1	955.818	-29785.5	0.000000	0.000000	6.194815	-0.046842	NaN	0.000000	0.001575	0.001614	28.0854	0.064672	0.001925	33.6004	95.4777	-169.453	-0.030692	0.193324	-0.884530	-0.885842	-0.046842	33.6004	-0.883484	-6.078830E+11	7.705764E-14	NaN
64	1.000000	0.202630	7.36567e+06	-41839.1	955.819	-29785.5	0.000000	0.000000	6.202809	-0.043799	NaN	0.000000	0.001547	0.001630	28.0869	0.059163	0.002012	29.4052	-134.065	-165.849	-0.066813	0.201291	-0.876535	-0.877875	-0.043799	29.4052	-0.875418	-4.728686E+11	9.262434E-14	NaN
64	1.000000	0.210637	7.36567e+06	-41839.1	955.819	-29785.5	0.000000	0.000000	6.210817	-0.033387	NaN	0.000000	0.001582	0.001613	28.0858	0.048146	0.002056	23.4134	-167.965	-165.051	-0.007771	0.209327	-0.868529	-0.869839	-0.033387	23.4134	-0.867459	-3.690330E+11	9.047171E-14	NaN
64	1.000000	0.218648	7.36567e+06	-41839.1	955.818	-29785.5	0.000000	0.000000	6.218827	-0.031720	NaN	0.000000	0.001596	0.001634	28.0866	0.028053	0.002007	13.9775	-11.5309	-168.048	0.002559	0.217340	-0.860518	-0.861825	-0.031720	13.9775	-0.858816	-2.819007E+11	1.125205E-13	NaN
64	1.000000	0.226658	7.36567e+06	-41839.1	955.819	-29785.5	0.000000	0.000000	6.226835	-0.095527	NaN	0.000000	0.001564	0.001668	28.0876	0.007079	0.001974	3.585014	100.946	-165.375	0.029136	0.225315	-0.852508	-0.853851	-0.095527	3.585014	-0.832523	-1.241591E+11	7.693924E-13	NaN
64	1.000000	0.234664	7.36567e+06	-41839.1	955.818	-29785.5	0.000000	0.000000	6.234841	-0.095090	NaN	0.000000	0.001548	0.001665	28.0876	0.046214	0.001994	23.1757	-159.716	-168.555	-0.041033	0.233307	-0.844501	-0.845858	-0.095090	23.1757	-0.841424	-1.639028E+11	5.801608E-13	NaN
64	1.000000	0.242654	7.36567e+06	-41839.1	955.818	-29785.5	0.000000	0.000000	6.242834	-0.035460	NaN	0.000000	0.001634	0.001648	28.087	0.019305	0.002095	9.213649	-90.8336	-162.558	-0.102615	0.241368	-0.836511	-0.837797	-0.035460	9.213649	-0.833625	-1.285019E+11	2.759496E-13	NaN
64	1.000000	0.250663	7.36567e+06	-41839.1	955.819	-29785.5	0.000000	0.000000	6.250839	-0.104231	NaN	0.000000	0.001621	0.001634	28.0877	0.083846	0.001948	43.051	-148.892	-168.968	-0.115313	0.249356	-0.828503	-0.829810	-0.104231	43.051	-0.826687	-1.034846E+11	1.007216E-12	NaN
64	1.000000	0.258643	7.36567e+06	-41839.1	955.818	-29785.5	0.000000	0.000000	6.258822	-0.058584	NaN	0.000000	0.001595	0.001643	28.088	0.082981	0.002070	40.0823	-134.185	-165.362	-0.002228	0.257373	-0.820522	-0.821792	-0.058584	40.0823	-0.819426	-8.249557E+10	7.101529E-13	NaN
64	1.000000	0.266661	7.36567e+06	-41839.1	955.819	-29785.5	0.000000	0.000000	6.266838	-0.078441	NaN	0.000000	0.001580	0.001646	28.0871	0.070853	0.001909	37.1159	92.896	-167.17	-0.057413	0.265334	-0.812505	-0.813831	-0.078441	37.1159	-0.810920	-6.324879E+10	1.240198E-12	NaN
64	1.000000	0.274667	7.36567e+06	-41839.1	955.818	-29785.5	0.000000	0.000000	6.274846	-0.048372	NaN	0.000000	0.001582	0.001658	28.087	0.042985	0.001995	21.5474	-4.983167	-167.399	-0.010041	0.273347	-0.804498	-0.805819	-0.048372	21.5474	-0.802815	-4.909841E+10	9.851978E-13	NaN
64	1.000000	0.282673	7.36567e+06	-41839.1	955.818	-29785.5	0.000000	0.000000	6.282850	-0.090651	NaN	0.000000	0.001606	0.001668	28.0873	0.023891	0.001970	12.1291	-141.671	-166.899	-0.037178	0.281356	-0.796493	-0.797810	-0.090651	12.1291	-0.790888	-3.381734E+10	2.680607E-12	NaN
64	1.000000	0.290677	7.36567e+06	-41839.1	955.818	-29785.5	0.000000	0.000000	6.290856	-0.036238	NaN	0.000000	0.001605	0.001648	28.0884	0.013734	0.001829	7.509219	22.3991	-166.454	0.090805	0.289316	-0.788489	-0.789850	-0.036238	7.509219	-0.784870	-2.801537E+10	1.293498E-12	NaN
64	1.000000	0.298662	7.36567e+06	-41839.1	955.818	-29785.5	0.000000	0.000000	6.298839	-0.096526	NaN	0.000000	0.001606	0.001667	28.0875	0.040002	0.001857	21.546	-147.896	-164.828	-0.112981	0.297377	-0.780504	-0.781789	-0.096526	21.546	-0.777144	-2.199974E+10	4.387590E-12	NaN
64	1.000000	0.306686	7.36567e+06	-41839.1	955.818	-29785.5	0.000000	0.000000	6.306866	-0.017540	NaN	0.000000	0.001593	0.001658	28.088	0.017080	0.001925	8.870606	15.6355	-168.454	-0.002746	0.305405	-0.772480	-0.773760	-0.017540	8.870606	-0.770997	-1.814909E+10	9.664475E-13	NaN
64	1.000000	0.314674	7.36567e+06	-41839.1	955.819	-29785.5	0.000000	0.000000	6.314850	-0.103398	NaN	0.000000	0.001572	0.001659	28.0882	0.104733	0.002032	51.5539	-86.0735	-164.171	-0.102038	0.313408	-0.764492	-0.765758	-0.103398	51.5539	-0.762988	-1.412360E+10	7.320911E-12	NaN
64	1.000000	0.322692	7.36567e+06	-41839.1	955.818	-29785.5	0.000000	0.000000	6.322871	-0.029847	NaN	0.000000	0.001597	0.001623	28.0887	0.087950	0.001942	45.2841	77.8573	-168.479	-0.088210	0.321339	-0.756474	-0.757827	-0.029847	45.2841	-0.755980	-1.133967E+10	2.632092E-12	NaN
64	1.000000	0.330664	7.36567e+06	-41839.1	955.817	-29785.5	0.000000	0.000000	6.330842	-0.065760	NaN	0.000000	0.001581	0.001641	28.089	0.058670	0.002016	29.1017	-19.8491	-166.957	-0.021854	0.329367	-0.748501	-0.749799	-0.065760	29.1017	-0.746807	-8.506408E+9	7.730667E-12	NaN
64	1.000000	0.338690	7.36567e+06	-41839.1	955.819	-29785.5	0.000000	0.000000	6.338869	-0.043984	NaN	0.000000	0.001589	0.001628	28.0874	0.107800	0.002038	52.8987	67.7119	-170.026	-0.065420	0.337411	-0.740475	-0.741754	-0.043984	52.8987	-0.739852	-6.839685E+9	6.430693E-12	NaN
64	1.000000	0.346700	7.36567e+06	-41839.1	955.818	-29785.5	0.000000	0.000000	6.346880	-0.034219	NaN	0.000000	0.001588	0.001637	28.0875	0.012818	0.001972	6.499393	-7.180044	-169.86	-0.155250	0.345372	-0.732465	-0.733794	-0.034219	6.499393	-0.728517	-4.792801E+9	7.139581E-12	NaN
64	1.000000	0.354702	7.36567e+06	-41839.1	955.819	-29785.5	0.000000	0.000000	6.354879	-0.082372	NaN	0.000000	0.001570	0.001620	28.0873	0.091534	0.001902	48.1152	-116.177	-168.08	-0.092477	0.353421	-0.724464	-0.725744	-0.082372	48.1152	-0.723180	-4.053566E+9	2.032098E-11	NaN
64	1.000000	0.362716	7.36567e+06	-41839.1	955.818	-29785.5	0.000000	0.000000	6.362893	-0.083669	NaN	0.000000	0.001548	0.001598	28.0875	0.056665	0.002034	27.852	-75.4996	-166.176	-0.114381	0.361406	-0.716450	-0.717760	-0.083669	27.852	-0.714197	-3.057115E+9	2.736877E-11	NaN
64	1.000000	0.370714	7.36567e+06	-41839.1	955.819	-29785.5	0.000000	0.000000	6.370892	-0.055320	NaN	0.000000	0.001544	0.001620	28.0874	0.070142	0.002021	34.708	15.8635	-165.983	-0.019136	0.369392	-0.708452	-0.709774	-0.055320	34.708	-0.707256	-2.458122E+9	2.250481E-11	NaN
64	1.000000	0.378743	7.36567e+06	-41839.1	955.818	-29785.5	0.000000	0.000000	6.378922	-0.034267	NaN	0.000000	0.001583	0.001631	28.0881	0.102197	0.002122	48.1527	-67.6426	-166.402	-0.089963	0.377383	-0.700423	-0.701783	-0.034267	48.1527	-0.699889	-1.949932E+9	1.757348E-11	NaN
64	1.000000	0.386685	7.36567e+06	-41839.1	955.818	-29785.5	0.000000	0.000000	6.386864	-0.049218	NaN	0.000000	0.001560	0.001604	28.0887	0.101031	0.001964	51.4481	111.269	-166.328	-0.083415	0.385423	-0.692481	-0.693743	-0.049218	51.4481	-0.691763	-1.510138E+9	3.259147E-11	NaN
64	1.000000	0.394697	7.36567e+06	-41839.1	955.819	-29785.5	0.000000	0.000000	6.394874	-0.094058	NaN	0.000000	0.001579	0.001632	28.0884	0.087908	0.001913	45.9469	10.2316	-167.316	-0.038972	0.393426	-0.684469	-0.685740	-0.094058	45.9469	-0.682934	-1.143732E+9	8.223751E-11	NaN
64	1.000000	0.402739	7.36567e+06	-41839.1	955.818	-29785.5	0.000000	0.000000	6.402917	-0.064374	NaN	0.000000	0.001586	0.001620	28.0881	0.009096	0.001998	4.553173	-90.6354	-167.223	-0.162254	0.401447	-0.676427	-0.677719	-0.064374	4.553173	-0.665823	-6.671313E+8	9.649357E-11	NaN
64	1.000000	0.410715	7.36567e+06	-41839.1	955.819	-29785.5	0.000000	0.000000	6.410894	-0.043840	NaN	0.000000	0.001599	0.001597	28.0874	0.072941	0.002039	35.768	127.789	-168.402	-0.031458	0.409431	-0.668451	-0.669735	-0.043840	35.768	-0.667532	-7.040545E+8	6.226720E-11	NaN
64	1.000000	0.418693	7.36567e+06	-41839.1	955.818	-29785.5	0.000000	0.000000	6.418870	-0.094261	NaN	0.000000	0.001562	0.001609	28.0874	0.069519	0.001908	36.4271	21.5537	-167.243	-0.058363	0.417419	-0.660472	-0.661747	-0.094261	36.4271	-0.658532	-5.300977E+8	1.778175E-10	NaN
64	1.000000	0.426731	7.36567e+06	-41839.1	955.819	-29785.5	0.000000	0.000000	6.426910	-0.044684	NaN	0.000000	0.001543	0.001630	28.0866	0.070864	0.001912	37.0604	1.202511	-165.457	-0.074829	0.425457	-0.652435	-0.653708	-0.044684	37.0604	-0.651530	-4.250253E+8	1.051333E-10	NaN
64	1.000000	0.434746	7.36567e+06	-41839.1	955.818	-29785.5	0.000000	0.000000	6.434929	0.054010	NaN	0.000000	0.001577	0.001642	28.086	0.067968	0.001944	34.9691	-155.353	-164.221	-0.005110	0.433361	-0.644419	-0.645805	0.054010	34.9691	-0.645578	-3.522096E+8	-1.533464E-10	NaN
64	1.000000	0.442723	7.36567e+06	-41839.1	955.818	-29785.5	0.000000	0.000000	6.442901	-0.070856	NaN	0.000000	0.001581	0.001631	28.0869	0.026777	0.002057	13.0152	-85.1919	-169.856	-0.038912	0.441470	-0.636443	-0.637696	-0.070856	13.0152	-0.632360	-2.319667E+8	3.054571E-10	NaN
64	1.000000	0.450768	7.36567e+06	-41839.1	955.818	-29785.5	0.000000	0.000000	6.450947	-0.042534	NaN	0.000000	0.001589	0.001657	28.0877	0.075273	0.001988	37.8647	8.939774	-163.457	-0.055807	0.449448	-0.628398	-0.629718	-0.042534	37.8647	-0.627555	-1.992712E+8	2.134459E-10	NaN
64	1.000000	0.458766	7.36567e+06	-41839.1	955.818	-29785.5	0.000000	0.000000	6.458943	-0.082351	NaN	0.000000	0.001602	0.001600	28.086	0.066346	0.002134	31.0876	169.314	-168.021	-0.079791	0.457449	-0.620400	-0.621717	-0.082351	31.0876	-0.618413	-1.492181E+8	5.518820E-10	NaN
64	1.000000	0.466735	7.36567e+06	-41839.1	955.818	-29785.5	0.000000	0.000000	6.466912	-0.108721	NaN	0.000000	0.001587	0.001606	28.0869	0.076824	0.001936	39.6723	-77.7849	-166.53	0.006113	0.465404	-0.612430	-0.613762	-0.108721	39.6723	-0.610375	-1.156843E+8	9.398102E-10	NaN
64	1.000000	0.474744	7.36567e+06	-41839.1	955.818	-29785.5	0.000000	0.000000	6.474923	-0.061239	NaN	0.000000	0.001574	0.001618	28.0866	0.034879	0.001865	18.7002	73.9168	-166.606	-0.067636	0.473414	-0.604421	-0.605751	-0.061239	18.7002	-0.601965	-8.861841E+7	6.910370E-10	NaN
64	1.000000	0.482746	7.36567e+06	-41839.1	955.819	-29785.5	0.000000	0.000000	6.482923	-0.090565	NaN	0.000000	0.001597	0.001635	28.0876	0.128259	0.001956	65.5865	-58.0903	-166.235	-0.057373	0.481460	-0.596420	-0.597706	-0.090565	65.5865	-0.595384	-7.192408E+7	1.259168E-9	NaN
64	1.000000	0.490763	7.36567e+06	-41839.1	955.819	-29785.5	0.000000	0.000000	6.490940	-0.076472	NaN	0.000000	0.001611	0.001646	28.0877	0.139892	0.002001	69.9147	-127.978	-167.146	-0.112215	0.489453	-0.588403	-0.589713	-0.076472	69.9147	-0.587583	-5.614840E+7	1.361959E-9	NaN
64	1.000000	0.498772	7.36567e+06	-41839.1	955.818	-29785.5	0.000000	0.000000	6.498951	-0.048479	NaN	0.000000	0.001572	0.001691	28.088	0.122676	0.002005	61.1929	171.592	-164.503	-0.096126	0.497488	-0.580394	-0.581678	-0.048479	61.1929	-0.579800	-4.384934E+7	1.105583E-9	NaN
64	1.000000	0.506779	7.36567e+06	-41839.1	955.818	-29785.5	0.000000	0.000000	6.506957	-0.055906	NaN	0.000000	0.001547	0.001673	28.0867	0.038071	0.002134	17.839	-19.1771	-165.187	-0.125538	0.505473	-0.572387	-0.573692	-0.055906	17.839	-0.570036	-3.214654E+7	1.739085E-9	NaN
64	1.000000	0.514780	7.36567e+06	-41839.1	955.818	-29785.5	0.000000	0.000000	6.514957	-0.095995	NaN	0.000000	0.001559	0.001642	28.0857	0.048243	0.001934	24.9406	144.374	-164.575	-0.077290	0.513471	-0.564386	-0.565695	-0.095995	24.9406	-0.561499	-2.449725E+7	3.918602E-9	NaN
64	1.000000	0.522779	7.36567e+06	-41839.1	955.817	-29785.5	0.000000	0.000000	6.522959	-0.017316	NaN	0.000000	0.001575	0.001654	28.0865	0.057254	0.001919	29.835	131.104	-166.39	-0.032738	0.521431	-0.556387	-0.557735	-0.017316	29.835	-0.555952	-2.052880E+7	8.434838E-10	NaN
64	1.000000	0.530785	7.36567e+06	-41839.1	955.818	-29785.5	0.000000	0.000000	6.530965	-0.029537	NaN	0.000000	0.001578	0.001666	28.0872	0.046012	0.001924	23.9139	-120.743	-167.148	-0.051783	0.529438	-0.548381	-0.549728	-0.029537	23.9139	-0.547454	-1.565628E+7	1.886576E-9	NaN
64	1.000000	0.538772	7.36567e+06	-41839.1	955.818	-29785.5	0.000000	0.000000	6.538949	-0.097488	NaN	0.000000	0.001608	0.001641	28.086	0.069229	0.002092	33.0922	97.5127	-168.091	-0.142914	0.537505	-0.540394	-0.541661	-0.097488	33.0922	-0.538184	-1.164588E+7	8.371067E-9	NaN
64	1.000000	0.546779	7.36567e+06	-41839.1	955.818	-29785.5	0.000000	0.000000	6.546955	-0.139631	NaN	0.000000	0.001600	0.001657	28.0882	0.033443	0.001966	17.0069	-122.004	-164.64	-0.070801	0.545493	-0.532386	-0.533673	-0.139631	17.0069	-0.526229	-7.94664e+06	1.757111E-8	NaN
64	1.000000	0.554785	7.36567e+06	-41839.1	955.819	-29785.5	0.000000	0.000000	6.554964	-0.045913	NaN	0.000000	0.001591	0.001649	28.0876	0.095063	0.001853	51.3014	57.1042	-168.122	-0.077700	0.553464	-0.524380	-0.525702	-0.045913	51.3014	-0.523709	-7.33111e+06	6.262738E-9	NaN
64	1.000000	0.562764	7.36567e+06	-41839.1	955.818	-29785.5	0.000000	0.000000	6.562942	-0.068982	NaN	0.000000	0.001589	0.001660	28.088	0.141473	0.002022	69.9724	148.674	-166.147	-0.079135	0.561508	-0.516402	-0.517657	-0.068982	69.9724	-0.515662	-5.66563e+06	1.217558E-8	NaN
64	1.000000	0.570780	7.36567e+06	-41839.1	955.818	-29785.5	0.000000	0.000000	6.570959	-0.026398	NaN	0.000000	0.001589	0.001633	28.0889	0.103110	0.001829	56.3832	143.534	-167.268	-0.052589	0.569508	-0.508386	-0.509657	-0.026398	56.3832	-0.508035	-4.43651e+06	5.950127E-9	NaN
64	1.000000	0.578813	7.36567e+06	-41839.1	955.818	-29785.5	0.000000	0.000000	6.578988	-0.141162	NaN	0.000000	0.001566	0.001656	28.0887	0.070732	0.001883	37.5619	-14.18	-168.024	-0.049576	0.577492	-0.500352	-0.501674	-0.141162	37.5619	-0.497534	-3.16667e+06	4.457750E-8	NaN
64	1.000000	0.586820	7.36567e+06	-41839.1	955.818	-29785.5	0.000000	0.000000	6.586999	-0.048006	NaN	0.000000	0.001587	0.001682	28.0878	0.097213	0.002056	47.2849	155.596	-170.543	-0.057220	0.585505	-0.492346	-0.493660	-0.048006	47.2849	-0.491584	-2.61535e+06	1.835559E-8	NaN
64	1.000000	0.594796	7.36567e+06	-41839.1	955.818	-29785.5	0.000000	0.000000	6.594975	-0.047828	NaN	0.000000	0.001602	0.001652	28.0887	0.094202	0.002038	46.2257	5.395709	-164.254	0.004215	0.593486	-0.484370	-0.485679	-0.047828	46.2257	-0.483594	-2.02219e+06	2.365166E-8	NaN
64	1.000000	0.602809	7.36567e+06	-41839.1	955.819	-29785.5	0.000000	0.000000	6.602989	-0.039080	NaN	0.000000	0.001608	0.001639	28.0868	0.122101	0.001994	61.2398	110.597	-163.829	-0.109342	0.601485	-0.476356	-0.477681	-0.039080	61.2398	-0.475878	-1.57688e+06	2.478322E-8	NaN
64	1.000000	0.610813	7.36567e+06	-41839.1	955.818	-29785.5	0.000000	0.000000	6.610993	-0.025845	NaN	0.000000	0.001569	0.001670	28.0891	0.107590	0.001965	54.7641	75.2674	-164.391	-0.059964	0.609543	-0.468352	-0.469623	-0.025845	54.7641	-0.467998	-1.22273e+06	2.113703E-8	NaN
64	1.000000	0.618811	7.36567e+06	-41839.1	955.818	-29785.5	0.000000	0.000000	6.618988	-0.093841	NaN	0.000000	0.001561	0.001654	28.0875	0.045508	0.001818	25.0345	-75.0919	-166.736	-0.030228	0.617496	-0.460355	-0.461670	-0.093841	25.0345	-0.457543	-871941	1.076236E-7	NaN
64	1.000000	0.626835	7.36567e+06	-41839.1	955.818	-29785.5	0.000000	0.000000	6.627009	-0.154751	NaN	0.000000	0.001584	0.001661	28.0899	0.082715	0.001934	42.7668	-61.7097	-161.463	-0.188016	0.625487	-0.452331	-0.453679	-0.154751	42.7668	-0.449617	-674450	2.294471E-7	NaN
64	1.000000	0.634845	7.36567e+06	-41839.1	955.818	-29785.5	0.000000	0.000000	6.635023	-0.070571	NaN	0.000000	0.001575	0.001639	28.089	0.135989	0.001936	70.2483	-4.432803	-164.549	-0.048854	0.633469	-0.444320	-0.445696	-0.070571	70.2483	-0.443567	-554222	1.273327E-7	NaN
64	1.000000	0.642826	7.36567e+06	-41839.1	955.819	-29785.5	0.000000	0.000000	6.643005	-0.057462	NaN	0.000000	0.001645	0.001647	28.0893	0.027150	0.002036	13.3334	65.0877	-169.088	0.023036	0.641540	-0.436339	-0.437626	-0.057462	13.3334	-0.433107	-394457	1.456744E-7	NaN
64	1.000000	0.650823	7.36567e+06	-41839.1	955.819	-29785.5	0.000000	0.000000	6.651001	-0.088241	NaN	0.000000	0.001654	0.001640	28.0892	0.015204	0.002108	7.211772	57.6868	-166.127	-0.065967	0.649496	-0.428342	-0.429670	-0.088241	7.211772	-0.419165	-250367	3.524466E-7	NaN
64	1.000000	0.658821	7.36567e+06	-41839.1	955.818	-29785.5	0.000000	0.000000	6.658998	-0.095616	NaN	0.000000	0.001654	0.001651	28.0891	0.021074	0.002001	10.5332	-119.251	-167.848	-0.012257	0.657544	-0.420344	-0.421622	-0.095616	10.5332	-0.413536	-208286	4.590583E-7	NaN
64	1.000000	0.666838	7.36567e+06	-41839.1	955.818	-29785.5	0.000000	0.000000	6.667016	-0.064157	NaN	0.000000	0.001653	0.001655	28.088	0.048413	0.002009	24.0938	-176.68	-166.09	-0.071778	0.665512	-0.412328	-0.413653	-0.064157	24.0938	-0.410331	-187545	3.420882E-7	NaN
64	1.000000	0.674865	7.36567e+06	-41839.1	955.818	-29785.5	0.000000	0.000000	6.675043	-0.058074	NaN	0.000000	0.001639	0.001669	28.0878	0.080472	0.002117	38.0167	179.08	-167.156	-0.110186	0.673530	-0.404301	-0.405636	-0.058074	38.0167	-0.403155	-148242	3.917537E-7	NaN
64	1.000000	0.682824	7.36567e+06	-41839.1	955.818	-29785.5	0.000000	0.000000	6.683002	-0.058831	NaN	0.000000	0.001592	0.001636	28.087	0.017504	0.001924	9.095823	112.235	-164.976	-0.010973	0.681507	-0.396342	-0.397659	-0.058831	9.095823	-0.391491	-101039	5.822643E-7	NaN
64	1.000000	0.690807	7.36567e+06	-41839.1	955.819	-29785.5	0.000000	0.000000	6.690988	0.000244	NaN	0.000000	0.001582	0.001683	28.0861	0.032877	0.002105	15.6202	-58.8849	-167.364	-0.045100	0.689549	-0.388359	-0.389617	0.000244	15.6202	-0.388370	-91169.6	-2.678642E-9	NaN
64	1.000000	0.698849	7.36567e+06	-41839.1	955.819	-29785.5	0.000000	0.000000	6.699025	-0.109236	NaN	0.000000	0.001559	0.001651	28.0872	0.114371	0.001989	57.4985	-138.356	-166.411	-0.035790	0.697554	-0.380317	-0.381612	-0.109236	57.4985	-0.378892	-66677.9	1.638261E-6	NaN
64	1.000000	0.706870	7.36567e+06	-41839.1	955.818	-29785.5	0.000000	0.000000	6.707050	-0.009078	NaN	0.000000	0.001546	0.001687	28.088	0.009886	0.002054	4.813187	40.7756	-164.648	-0.028679	0.705579	-0.372296	-0.373586	-0.009078	4.813187	-0.370881	-51146.5	1.774912E-7	NaN
64	1.000000	0.714859	7.36567e+06	-41839.1	955.818	-29785.5	0.000000	0.000000	6.715035	-0.122619	NaN	0.000000	0.001579	0.001667	28.0879	0.083440	0.002059	40.5157	127.731	-167.942	-0.114196	0.713576	-0.364307	-0.365589	-0.122619	40.5157	-0.362037	-38130.9	3.215723E-6	NaN
64	1.000000	0.722852	7.36567e+06	-41839.1	955.818	-29785.5	0.000000	0.000000	6.723032	-0.016095	NaN	0.000000	0.001571	0.001665	28.0882	0.068591	0.002036	33.691	-140.537	-166.116	-0.007560	0.721609	-0.356314	-0.357557	-0.016095	33.691	-0.355956	-31141.2	5.168262E-7	NaN
64	1.000000	0.730861	7.36567e+06	-41839.1	955.819	-29785.5	0.000000	0.000000	6.731040	-0.061122	NaN	0.000000	0.001566	0.001627	28.0881	0.066194	0.001959	33.7982	35.1273	-163.212	-0.078374	0.729494	-0.348304	-0.349672	-0.061122	33.7982	-0.346948	-23050.5	2.651645E-6	NaN
64	1.000000	0.738883	7.36567e+06	-41839.1	955.818	-29785.5	0.000000	0.000000	6.739063	-0.024428	NaN	0.000000	0.001519	0.001646	28.0885	0.072112	0.002056	35.0712	163.843	-166.932	-0.107156	0.737554	-0.340283	-0.341611	-0.024428	35.0712	-0.339760	-18115.8	1.348434E-6	NaN
64	1.000000	0.746858	7.36567e+06	-41839.1	955.818	-29785.5	0.000000	0.000000	6.747037	-0.041252	NaN	0.000000	0.001565	0.001622	28.0868	0.018066	0.002064	8.750681	-24.2795	-165.293	-0.075816	0.745536	-0.332308	-0.333629	-0.041252	8.750681	-0.328772	-12516	3.295902E-6	NaN
64	1.000000	0.754861	7.36567e+06	-41839.1	955.818	-29785.5	0.000000	0.000000	6.755041	-0.031620	NaN	0.000000	0.001550	0.001631	28.0869	0.046738	0.002009	23.2686	-86.8735	-167.012	0.008215	0.753488	-0.324304	-0.325678	-0.031620	23.2686	-0.323285	-10398	3.041002E-6	NaN
64	1.000000	0.762855	7.36567e+06	-41839.1	955.818	-29785.5	0.000000	0.000000	6.763036	-0.015178	NaN	0.000000	0.001561	0.001660	28.0869	0.161076	0.002059	78.2317	102.036	-166.687	-0.041026	0.761588	-0.316310	-0.317577	-0.015178	78.2317	-0.316165	-8168.32	1.858197E-6	NaN
64	1.000000	0.770861	7.36567e+06	-41839.1	955.819	-29785.5	0.000000	0.000000	6.771039	-0.065909	NaN	0.000000	0.001589	0.001687	28.0876	0.057038	0.001888	30.209	54.0176	-169.332	-0.000594	0.769589	-0.308305	-0.309577	-0.065909	30.209	-0.306669	-5911.67	1.114901E-5	NaN
64	1.000000	0.778889	7.36567e+06	-41839.1	955.818	-29785.5	0.000000	0.000000	6.779066	-0.084144	NaN	0.000000	0.001580	0.001677	28.0866	0.079445	0.002010	39.5231	152.434	-166.801	-0.067102	0.777626	-0.300277	-0.301540	-0.084144	39.5231	-0.298680	-4497.59	1.870874E-5	NaN
64	1.000000	0.786879	7.36567e+06	-41839.1	955.818	-29785.5	0.000000	0.000000	6.787056	-0.098316	NaN	0.000000	0.001579	0.001653	28.0879	0.033101	0.001992	16.6135	159.942	-165.405	-0.110830	0.785578	-0.292286	-0.293587	-0.098316	16.6135	-0.287848	-3097.68	3.173852E-5	NaN
64	1.000000	0.794895	7.36567e+06	-41839.1	955.819	-29785.5	0.000000	0.000000	6.795074	-0.063717	NaN	0.000000	0.001569	0.001672	28.0883	0.070253	0.002020	34.7816	131.756	-165.851	-0.086565	0.793578	-0.284270	-0.285588	-0.063717	34.7816	-0.282896	-2609.87	2.441392E-5	NaN
64	1.000000	0.802926	7.36567e+06	-41839.1	955.818	-29785.5	0.000000	0.000000	6.803104	-0.061407	NaN	0.000000	0.001573	0.001649	28.0884	0.083116	0.002022	41.1113	-158.173	-165.987	-0.015717	0.801537	-0.276240	-0.277628	-0.061407	41.1113	-0.275120	-1991.64	3.083233E-5	NaN
64	1.000000	0.810897	7.36567e+06	-41839.1	955.819	-29785.5	0.000000	0.000000	6.811075	-0.052933	NaN	0.000000	0.001535	0.001680	28.0879	0.088121	0.002038	43.232	27.7163	-165.887	-0.082183	0.809609	-0.268269	-0.269557	-0.052933	43.232	-0.267351	-1517.86	3.487377E-5	NaN
64	1.000000	0.818897	7.36567e+06	-41839.1	955.819	-29785.5	0.000000	0.000000	6.819076	-0.031642	NaN	0.000000	0.001552	0.001644	28.0893	0.035525	0.002003	17.7321	5.529680	-168.882	-0.013010	0.817582	-0.260269	-0.261584	-0.031642	17.7321	-0.258931	-1128.54	2.803834E-5	NaN
64	1.000000	0.826897	7.36567e+06	-41839.1	955.819	-29785.5	0.000000	0.000000	6.827076	-0.051148	NaN	0.000000	0.001572	0.001667	28.0888	0.056119	0.002019	27.7919	7.691514	-164.251	0.027385	0.825568	-0.252269	-0.253598	-0.051148	27.7919	-0.250888	-848.593	6.027400E-5	NaN
64	1.000000	0.834919	7.36567e+06	-41839.1	955.819	-29785.5	0.000000	0.000000	6.835097	-0.083998	NaN	0.000000	0.001593	0.001662	28.089	0.090962	0.001978	45.9808	58.0076	-167.098	-0.060882	0.833632	-0.244246	-0.245533	-0.083998	45.9808	-0.242876	-637.403	0.000132	NaN
64	1.000000	0.842911	7.36567e+06	-41839.1	955.818	-29785.5	0.000000	0.000000	6.843089	-0.066675	NaN	0.000000	0.001614	0.001670	28.0884	0.085560	0.001990	42.9971	169.484	-166.585	-0.114559	0.841600	-0.236254	-0.237566	-0.066675	42.9971	-0.235091	-481.596	0.000138	NaN
64	1.000000	0.850907	7.36567e+06	-41839.1	955.818	-29785.5	0.000000	0.000000	6.851085	-0.086322	NaN	0.000000	0.001568	0.001648	28.0885	0.088559	0.002053	43.141	-123.354	-165.288	-0.102646	0.849626	-0.228258	-0.229539	-0.086322	43.141	-0.226757	-355.812	0.000243	NaN
64	1.000000	0.858899	7.36567e+06	-41839.1	955.819	-29785.5	0.000000	0.000000	6.859075	-0.103813	NaN	0.000000	0.001608	0.001619	28.0891	0.069906	0.001891	36.9671	-30.2009	-164.153	-0.123485	0.857653	-0.220267	-0.221513	-0.103813	36.9671	-0.218161	-259.565	0.000400	NaN
64	1.000000	0.866925	7.36567e+06	-41839.1	955.818	-29785.5	0.000000	0.000000	6.867104	-0.042469	NaN	0.000000	0.001596	0.001608	28.09	0.108448	0.002070	52.3952	151.63	-168.636	-0.016615	0.865603	-0.212240	-0.213562	-0.042469	52.3952	-0.211632	-203.81	0.000208	NaN
64	1.000000	0.874883	7.36567e+06	-41839.1	955.818	-29785.5	0.000000	0.000000	6.875059	-0.110727	NaN	0.000000	0.001567	0.001612	28.0899	0.037102	0.001983	18.707	-73.5327	-163.869	-0.081105	0.873586	-0.204283	-0.205580	-0.110727	18.707	-0.199843	-130.956	0.000846	NaN
64	1.000000	0.882942	7.36567e+06	-41839.1	955.819	-29785.5	0.000000	0.000000	6.883119	-0.099561	NaN	0.000000	0.001554	0.001614	28.0898	0.103226	0.001891	54.5911	-161.89	-167.008	-0.060947	0.881606	-0.196223	-0.197559	-0.099561	54.5911	-0.194856	-108.345	0.000919	NaN
64	1.000000	0.890922	7.36567e+06	-41839.1	955.818	-29785.5	0.000000	0.000000	6.891099	-0.096569	NaN	0.000000	0.001551	0.001616	28.0892	0.060005	0.001954	30.7153	-139.861	-163.095	-0.084556	0.889626	-0.188244	-0.189540	-0.096569	30.7153	-0.185886	-76.7456	0.001258	NaN
64	1.000000	0.898959	7.36567e+06	-41839.1	955.818	-29785.5	0.000000	0.000000	6.899138	-0.043260	NaN	0.000000	0.001583	0.001621	28.0905	0.024298	0.002040	11.9109	132.616	-166.446	-0.098130	0.897628	-0.180207	-0.181537	-0.043260	11.9109	-0.177483	-55.276	0.000783	NaN
64	1.000000	0.906917	7.36567e+06	-41839.1	955.818	-29785.5	0.000000	0.000000	6.907094	-0.072676	NaN	0.000000	0.001541	0.001674	28.0893	0.058618	0.002115	27.7154	84.8398	-165.207	-0.108222	0.905621	-0.172249	-0.173545	-0.072676	27.7154	-0.170282	-41.5447	0.001749	NaN
64	1.000000	0.914943	7.36567e+06	-41839.1	955.819	-29785.5	0.000000	0.000000	6.915122	-0.047587	NaN	0.000000	0.001536	0.001691	28.0895	0.104051	0.002035	51.1243	-87.6774	-165.987	-0.010745	0.913617	-0.164222	-0.165549	-0.047587	51.1243	-0.163524	-31.648	0.001504	NaN
64	1.000000	0.922960	7.36567e+06	-41839.1	955.818	-29785.5	0.000000	0.000000	6.923137	-0.102435	NaN	0.000000	0.001541	0.001688	28.089	0.094224	0.001988	47.3955	-119.903	-165.602	-0.104937	0.921618	-0.156206	-0.157548	-0.102435	47.3955	-0.154585	-21.9334	0.004670	NaN
64	1.000000	0.930948	7.36567e+06	-41839.1	955.818	-29785.5	0.000000	0.000000	6.931128	-0.029476	NaN	0.000000	0.001538	0.001664	28.0885	0.034640	0.001943	17.8324	8.980528	-163.985	0.001740	0.929631	-0.148218	-0.149535	-0.029476	17.8324	-0.146978	-15.9462	0.001848	NaN
64	1.000000	0.938922	7.36567e+06	-41839.1	955.818	-29785.5	0.000000	0.000000	6.939100	-0.075132	NaN	0.000000	0.001553	0.001670	28.0889	0.060782	0.001964	30.9448	-126.99	-163.744	-0.068910	0.937649	-0.140243	-0.141516	-0.075132	30.9448	-0.138422	-11.0473	0.006801	NaN
64	1.000000	0.946918	7.36567e+06	-41839.1	955.819	-29785.5	0.000000	0.000000	6.947095	-0.084961	NaN	0.000000	0.001594	0.001657	28.0903	0.066540	0.001834	36.2859	59.9261	-169.381	-0.025105	0.945660	-0.132248	-0.133506	-0.084961	36.2859	-0.130492	-7.790428	0.010906	NaN
64	1.000000	0.954941	7.36567e+06	-41839.1	955.818	-29785.5	0.000000	0.000000	6.955121	-0.026413	NaN	0.000000	0.001566	0.001629	28.0891	0.062728	0.001937	32.3921	-125.724	-161.905	-0.006059	0.953620	-0.124225	-0.125546	-0.026413	32.3921	-0.123613	-5.707926	0.004628	NaN
64	1.000000	0.962961	7.36567e+06	-41839.1	955.819	-29785.5	0.000000	0.000000	6.963139	-0.072302	NaN	0.000000	0.001583	0.001632	28.0893	0.052609	0.002059	25.5529	158.101	-168.83	-0.114236	0.961668	-0.116205	-0.117498	-0.072302	25.5529	-0.114083	-3.657292	0.019769	NaN
64	1.000000	0.970960	7.36567e+06	-41839.1	955.818	-29785.5	0.000000	0.000000	6.971139	-0.040333	NaN	0.000000	0.001601	0.001639	28.0888	0.110123	0.001994	55.2305	-12.235	-168.441	-0.076975	0.969607	-0.108206	-0.109559	-0.040333	55.2305	-0.107658	-2.680501	0.015047	NaN
64	1.000000	0.978961	7.36567e+06	-41839.1	955.818	-29785.5	0.000000	0.000000	6.979142	0.010233	NaN	0.000000	0.001593	0.001663	28.089	0.073912	0.001828	40.439	-172.934	-168.712	0.009132	0.977693	-0.100205	-0.101473	0.010233	40.439	-0.100395	-1.864314	-0.005489	NaN
64	1.000000	0.986959	7.36567e+06	-41839.1	955.818	-29785.5	0.000000	0.000000	6.987138	-0.059919	NaN	0.000000	0.001627	0.001667	28.088	0.050804	0.002135	23.7907	115.147	-165.482	-0.130849	0.985628	-0.092207	-0.093537	-0.059919	23.7907	-0.090318	-1.099669	0.054489	NaN
64	1.000000	0.994981	7.36567e+06	-41839.1	955.818	-29785.5	0.000000	0.000000	6.995159	-0.082049	NaN	0.000000	0.001590	0.001607	28.0879	0.022876	0.002038	11.2254	-164.839	-169.6	-0.115844	0.993636	-0.084185	-0.085530	-0.082049	11.2254	-0.078703	-0.574254	0.142878	NaN
64	1.000000	1.002978	7.36567e+06	-41839.1	955.818	-29785.5	0.000000	0.000000	7.003157	-0.034366	NaN	0.000000	0.001596	0.001625	28.0896	0.056809	0.002181	26.0418	162.692	-164.892	-0.101274	1.001647	-0.076188	-0.077519	-0.034366	26.0418	-0.075198	-0.467346	0.073535	NaN
64	1.000000	1.010960	7.36567e+06	-41839.1	955.817	-29785.5	0.000000	0.000000	7.011139	-0.047432	NaN	0.000000	0.001556	0.001642	28.0883	0.051486	0.002044	25.189	14.6691	-162.342	-0.172034	1.009700	-0.068206	-0.069466	-0.047432	25.189	-0.066793	-0.279267	0.169844	NaN
64	1.000000	1.019001	7.36567e+06	-41839.1	955.818	-29785.5	0.000000	0.000000	7.019180	-0.035650	NaN	0.000000	0.001603	0.001706	28.0879	0.122439	0.002120	57.7654	140.667	-164.552	-0.009771	1.017648	-0.060165	-0.061517	-0.035650	57.7654	-0.059702	-0.176577	0.201893	NaN
64	1.000000	1.026978	7.36567e+06	-41839.1	955.817	-29785.5	0.000000	0.000000	7.027154	-0.115968	NaN	0.000000	0.001579	0.001668	28.0902	0.036285	0.001871	19.3884	167.123	-172.339	-0.070827	1.025674	-0.052187	-0.053491	-0.115968	19.3884	-0.047701	-0.077708	1.492357	NaN
64	1.000000	1.034981	7.36567e+06	-41839.1	955.818	-29785.5	0.000000	0.000000	7.035160	-0.059551	NaN	0.000000	0.001556	0.001621	28.0897	0.052848	0.001946	27.1542	-95.0183	-167.9	-0.055616	1.033650	-0.044184	-0.045515	-0.059551	27.1542	-0.042540	-0.054045	1.101881	NaN
64	1.000000	1.042976	7.36567e+06	-41839.1	955.817	-29785.5	0.000000	0.000000	7.043153	-0.095762	NaN	0.000000	0.001547	0.001640	28.0896	0.096243	0.001941	49.5927	-88.1632	-168.313	-0.075844	1.041672	-0.036190	-0.037494	-0.095762	49.5927	-0.034742	-0.031469	3.043032	NaN
64	1.000000	1.050990	7.36567e+06	-41839.1	955.818	-29785.5	0.000000	0.000000	7.051170	-0.023765	NaN	0.000000	0.001605	0.001647	28.0895	0.102204	0.002005	50.9696	-76.3692	-163.37	-0.039261	1.049719	-0.028176	-0.029446	-0.023765	50.9696	-0.027826	-0.020057	1.184888	NaN
64	1.000000	1.058996	7.36567e+06	-41839.1	955.819	-29785.5	0.000000	0.000000	7.059174	-0.064949	NaN	0.000000	0.001616	0.001635	28.089	0.077825	0.001931	40.3104	-140.567	-165.112	-0.063284	1.057734	-0.020169	-0.021431	-0.064949	40.3104	-0.018961	-0.011817	5.496125	NaN
64	1.000000	1.067038	7.36567e+06	-41839.1	955.819	-29785.5	0.000000	0.000000	7.067218	-0.035004	NaN	0.000000	0.001601	0.001667	28.0892	0.035316	0.001953	18.0794	177.458	-169.559	-0.058608	1.065670	-0.012128	-0.013495	-0.035004	18.0794	-0.010675	-0.006773	5.168201	NaN
64	1.000000	1.074992	7.36567e+06	-41839.1	955.819	-29785.5	0.000000	0.000000	7.075167	-0.143844	NaN	0.000000	0.001606	0.001660	28.0879	0.009557	0.001907	5.010625	-177.675	-167.742	-0.035790	1.073708	-0.004173	-0.005458	-0.143844	5.010625	0.017357	0.018559	-7.750815	33.6042
64	1.000000	1.082943	7.36567e+06	-41839.1	955.818	-29785.5	0.000000	0.000000	7.083267	3.502664	NaN	0.000000	0.001614	0.001631	28.088	4.491843	0.001767	2542.6	9.243323	-169.117	2.007227	1.081685	0.003777	0.002519	3.502664	2542.6	0.002744	0.002165	1617.57	49921.1
64	2.000000	1.087652	7.36567e+06	-41839.1	955.818	-29785.5	0.000000	0.000000	7.088179	8.440531	NaN	0.000000	0.001632	0.001643	28.0895	8.805961	0.001725	5106.29	7.149485	-170.714	8.324812	1.087311	0.008486	0.008146	8.440531	5106.29	0.007246	0.006278	1344.36	58877.9
64	2.000000	1.089644	7.36567e+06	-41839.1	955.818	-29785.5	0.000000	0.000000	7.090239	10.0795	NaN	0.000000	0.001635	0.001604	28.0898	10.7209	0.001761	6088.88	7.140674	-171.991	10.6015	1.089269	0.010478	0.010103	10.0795	6088.88	0.009236	0.008345	1207.81	60896.2
64	2.000000	1.091651	7.36567e+06	-41839.1	955.817	-29785.5	0.000000	0.000000	7.092416	14.2003	NaN	0.000000	0.001655	0.001635	28.0909	13.0051	0.001675	7763.88	7.768583	-174.299	13.6428	1.091296	0.012486	0.012130	14.2003	7763.88	0.011114	0.010446	1359.4	69402.8
64	2.000000	1.093604	7.36567e+06	-41839.1	955.818	-29785.5	0.000000	0.000000	7.094446	16.086	NaN	0.000000	0.001624	0.001612	28.0901	14.2419	0.001766	8065.45	6.998698	-174.378	16.6115	1.093333	0.014438	0.014167	16.086	8065.45	0.012943	0.012639	1272.74	65546.2
64	2.000000	1.095565	7.36567e+06	-41839.1	955.818	-29785.5	0.000000	0.000000	7.096463	17.4591	NaN	0.000000	0.001628	0.001688	28.0907	16.2471	0.001700	9558.33	5.965963	-176.173	16.7249	1.095264	0.016399	0.016099	17.4591	9558.33	0.015029	0.015324	1139.32	70545.1
64	2.000000	1.097552	7.36567e+06	-41839.1	955.819	-29785.5	0.000000	0.000000	7.098569	20.3358	NaN	0.000000	0.001640	0.001661	28.0907	17.6057	0.001759	10011.5	2.642156	-173.013	19.7059	1.097283	0.018386	0.018117	20.3358	10011.5	0.016863	0.017850	1139.23	68461.4
64	2.000000	1.099535	7.36567e+06	-41839.1	955.819	-29785.5	0.000000	0.000000	7.100750	25.1668	NaN	0.000000	0.001646	0.001688	28.0914	20.1552	0.001808	11149.3	3.459137	-173.611	23.964	1.099197	0.020369	0.020031	25.1668	11149.3	0.018676	0.020504	1227.39	71137.2
64	2.000000	1.101592	7.36567e+06	-41839.1	955.817	-29785.5	0.000000	0.000000	7.103021	30.3683	NaN	0.000000	0.001624	0.001655	28.0895	22.6521	0.001859	12185.8	8.968354	-179.987	30.318	1.101204	0.022426	0.022038	30.3683	12185.8	0.020557	0.023425	1296.4	72742.1
64	2.000000	1.103573	7.36567e+06	-41839.1	955.818	-29785.5	0.000000	0.000000	7.105211	35.4638	NaN	0.000000	0.001675	0.001637	28.0888	24.2372	0.001759	13775.8	5.949665	-179.522	34.7108	1.103232	0.024407	0.024066	35.4638	13775.8	0.022476	0.026583	1334.06	77194.1
64	2.000000	1.105530	7.36567e+06	-41839.1	955.818	-29785.5	0.000000	0.000000	7.107359	40.0965	NaN	0.000000	0.001648	0.001651	28.0908	26.3392	0.001818	14490.7	6.419626	-179.268	39.6793	1.105303	0.026365	0.026137	40.0965	14490.7	0.024289	0.029736	1348.43	76775.5
64	2.000000	1.107547	7.36567e+06	-41839.1	955.818	-29785.5	0.000000	0.000000	7.109675	47.3574	NaN	0.000000	0.001646	0.001691	28.0904	27.5343	0.001748	15754.1	5.558944	-179.001	47.3423	1.107228	0.028382	0.028062	47.3574	15754.1	0.026127	0.033098	1430.82	79116
64	2.000000	1.109549	7.36567e+06	-41839.1	955.818	-29785.5	0.000000	0.000000	7.111849	51.5698	NaN	0.000000	0.001639	0.001662	28.0891	29.7814	0.001726	17259.4	5.265859	179.269	52.1848	1.109247	0.030383	0.030081	51.5698	17259.4	0.028143	0.036982	1394.47	81998.6
64	2.000000	1.111570	7.36567e+06	-41839.1	955.818	-29785.5	0.000000	0.000000	7.114097	57.0739	NaN	0.000000	0.001640	0.001647	28.0915	31.3631	0.001844	17011.6	3.615413	-177.092	57.129	1.111164	0.032404	0.031998	57.0739	17011.6	0.029888	0.040512	1408.81	77219.2
64	2.000000	1.113536	7.36567e+06	-41839.1	955.818	-29785.5	0.000000	0.000000	7.116215	60.7837	NaN	0.000000	0.001666	0.001648	28.0913	33.3175	0.001753	19009.1	3.220233	-179.781	58.7972	1.113267	0.034371	0.034102	60.7837	19009.1	0.031972	0.044931	1352.83	81933.5
64	2.000000	1.115522	7.36567e+06	-41839.1	955.818	-29785.5	0.000000	0.000000	7.118467	67.2374	NaN	0.000000	0.001640	0.001654	28.0908	36.5949	0.001902	19242.8	6.193666	178.107	66.2512	1.115192	0.036357	0.036027	67.2374	19242.8	0.033736	0.048844	1376.58	79549.4
64	2.000000	1.117504	7.36567e+06	-41839.1	955.818	-29785.5	0.000000	0.000000	7.120840	76.7705	NaN	0.000000	0.001629	0.001624	28.091	37.1048	0.001790	20732.2	1.815956	-177.945	74.7755	1.117155	0.038338	0.037989	76.7705	20732.2	0.035561	0.053061	1446.84	82230.1
64	2.000000	1.119528	7.36567e+06	-41839.1	955.818	-29785.5	0.000000	0.000000	7.123021	80.604	NaN	0.000000	0.001632	0.001642	28.0911	39.262	0.001851	21211.5	5.563473	178.555	80.0236	1.119226	0.040362	0.040060	80.604	21211.5	0.037512	0.057757	1395.57	80638.7
64	2.000000	1.121501	7.36567e+06	-41839.1	955.818	-29785.5	0.000000	0.000000	7.125495	92.7833	NaN	0.000000	0.001602	0.001616	28.0889	41.253	0.001830	22547	6.006480	178.552	92.0743	1.121158	0.042336	0.041993	92.7833	22547	0.039249	0.062103	1494.03	82662.2
64	2.000000	1.123534	7.36567e+06	-41839.1	955.818	-29785.5	0.000000	0.000000	7.127594	94.3751	NaN	0.000000	0.001607	0.001666	28.0895	41.5011	0.001725	24065.3	-1.067694	-176.612	93.6026	1.123284	0.044369	0.044118	94.3751	24065.3	0.041427	0.067769	1392.59	84459.2
64	2.000000	1.125455	7.36567e+06	-41839.1	955.818	-29785.5	0.000000	0.000000	7.129818	101.762	NaN	0.000000	0.001625	0.001615	28.089	45.092	0.001875	24055.2	2.923756	179.679	97.8708	1.125133	0.046289	0.045967	101.762	24055.2	0.043117	0.072330	1406.9	81718.8
64	2.000000	1.127442	7.36567e+06	-41839.1	955.818	-29785.5	0.000000	0.000000	7.132308	113.995	NaN	0.000000	0.001602	0.001607	28.0894	46.2661	0.001854	24948.2	6.696110	174.619	110.512	1.127075	0.048277	0.047910	113.995	24948.2	0.044850	0.077161	1477.36	82056.5
64	2.000000	1.129430	7.36567e+06	-41839.1	955.818	-29785.5	0.000000	0.000000	7.134441	117.55	NaN	0.000000	0.001598	0.001623	28.0891	48.8276	0.001873	26074.5	2.827079	178.89	114.87	1.129183	0.050264	0.050017	117.55	26074.5	0.046883	0.083022	1415.89	82678.8
64	2.000000	1.131464	7.36567e+06	-41839.1	955.818	-29785.5	0.000000	0.000000	7.136682	122.566	NaN	0.000000	0.001592	0.001655	28.0894	49.9146	0.001778	28080	2.782923	178.034	119.606	1.131235	0.052298	0.052070	122.566	28080	0.049025	0.089422	1370.65	85792.2
64	2.000000	1.133448	7.36567e+06	-41839.1	955.818	-29785.5	0.000000	0.000000	7.139271	137.281	NaN	0.000000	0.001581	0.001645	28.0908	51.3757	0.001805	28461	3.752478	177.136	134.665	1.133148	0.054282	0.053982	137.281	28461	0.050665	0.094479	1453.03	84597.3
64	2.000000	1.135535	7.36567e+06	-41839.1	955.819	-29785.5	0.000000	0.000000	7.141651	144.414	NaN	0.000000	0.001621	0.001632	28.0897	54.8397	0.001870	29323	3.643977	176.614	145.126	1.135232	0.056369	0.056066	144.414	29323	0.052675	0.100862	1431.8	84356.3
64	2.000000	1.137566	7.36567e+06	-41839.1	955.818	-29785.5	0.000000	0.000000	7.144032	152.927	NaN	0.000000	0.001534	0.001680	28.0905	56.7677	0.001821	31169.9	8.425461	171.971	155.959	1.137103	0.058400	0.057938	152.927	31169.9	0.054720	0.107560	1421.78	86832.5
64	2.000000	1.139434	7.36567e+06	-41839.1	955.819	-29785.5	0.000000	0.000000	7.146395	164.988	NaN	0.000000	0.001554	0.001644	28.0901	58.3363	0.001796	32479	4.656802	174.847	160.722	1.139099	0.060268	0.059934	164.988	32479	0.056458	0.113415	1454.73	88113.1
64	2.000000	1.141563	7.36567e+06	-41839.1	955.819	-29785.5	0.000000	0.000000	7.148886	173.775	NaN	0.000000	0.001567	0.001639	28.0892	60.4157	0.001914	31569.4	9.581755	172.169	176.916	1.141160	0.062398	0.061994	173.775	31569.4	0.058269	0.119676	1452.05	83375.1
64	2.000000	1.143421	7.36567e+06	-41839.1	955.819	-29785.5	0.000000	0.000000	7.151255	186.22	NaN	0.000000	0.001536	0.001661	28.0891	60.2263	0.001774	33952.7	0.319715	179.895	182.528	1.143105	0.064255	0.063939	186.22	33952.7	0.060142	0.126317	1474.22	87280.3
64	2.000000	1.145468	7.36567e+06	-41839.1	955.819	-29785.5	0.000000	0.000000	7.153667	195.09	NaN	0.000000	0.001567	0.001625	28.0892	64.0679	0.001869	34288.2	4.327020	175.228	194.411	1.145122	0.066302	0.065956	195.09	34288.2	0.062035	0.133207	1464.56	85832.9
64	2.000000	1.147428	7.36567e+06	-41839.1	955.819	-29785.5	0.000000	0.000000	7.156107	206.781	NaN	0.000000	0.001534	0.001690	28.0888	64.6281	0.001760	36718.6	4.410945	174.571	203.668	1.147060	0.068262	0.067895	206.781	36718.6	0.064038	0.140686	1469.81	89440.4
64	2.000000	1.149417	7.36567e+06	-41839.1	955.819	-29785.5	0.000000	0.000000	7.158604	219.136	NaN	0.000000	0.001532	0.001663	28.0885	67.5473	0.001824	37038.1	4.211817	174.921	216.176	1.149159	0.070251	0.069993	219.136	37038.1	0.065814	0.147478	1485.89	88116.8
64	2.000000	1.151527	7.36567e+06	-41839.1	955.818	-29785.5	0.000000	0.000000	7.160941	224.643	NaN	0.000000	0.001548	0.001695	28.0903	68.9347	0.001783	38665.6	4.453616	174.208	223.736	1.151244	0.072362	0.072079	224.643	38665.6	0.068004	0.156064	1439.43	89422.4
64	2.000000	1.153427	7.36567e+06	-41839.1	955.819	-29785.5	0.000000	0.000000	7.163563	242.21	NaN	0.000000	0.001576	0.001679	28.0895	69.3971	0.001667	41625.6	4.329089	174.591	239.108	1.153109	0.074262	0.073943	242.21	41625.6	0.069897	0.163671	1479.86	94004.3
64	2.000000	1.155412	7.36567e+06	-41839.1	955.819	-29785.5	0.000000	0.000000	7.165889	250.529	NaN	0.000000	0.001519	0.001649	28.0915	73.2343	0.001775	41257.7	3.406497	174.86	246.835	1.155106	0.076246	0.075940	250.529	41257.7	0.071692	0.171039	1464.75	91144.5
64	2.000000	1.157365	7.36567e+06	-41839.1	955.819	-29785.5	0.000000	0.000000	7.168381	263.639	NaN	0.000000	0.001513	0.001670	28.0926	73.8159	0.001759	41962.1	3.495602	174.749	256.097	1.157051	0.078200	0.077885	263.639	41962.1	0.073487	0.178563	1476.44	90726.5
64	2.000000	1.159422	7.36567e+06	-41839.1	955.819	-29785.5	0.000000	0.000000	7.171082	279.3	NaN	0.000000	0.001525	0.001663	28.0921	77.5456	0.001926	40264.5	8.176541	170.446	275.93	1.159073	0.080256	0.079907	279.3	40264.5	0.075054	0.185252	1507.67	85470.2
64	2.000000	1.161525	7.36567e+06	-41839.1	955.819	-29785.5	0.000000	0.000000	7.173423	285.113	NaN	0.000000	0.001548	0.001651	28.0909	78.3184	0.001770	44250.8	3.353444	174.276	285.601	1.161145	0.082359	0.081979	285.113	44250.8	0.077527	0.196045	1454.32	91309.4
64	2.000000	1.163437	7.36567e+06	-41839.1	955.819	-29785.5	0.000000	0.000000	7.175971	300.589	NaN	0.000000	0.001568	0.001654	28.0912	80.9371	0.001830	44229.3	8.030233	169.309	297.833	1.163156	0.084271	0.083990	300.589	44229.3	0.079174	0.203395	1477.86	89601.2
64	2.000000	1.165463	7.36567e+06	-41839.1	955.818	-29785.5	0.000000	0.000000	7.178552	314.061	NaN	0.000000	0.001544	0.001696	28.0906	81.1971	0.001871	43387	6.314871	171.538	313.465	1.165162	0.086298	0.085997	314.061	43387	0.080869	0.211089	1487.81	86278
64	2.000000	1.167470	7.36567e+06	-41839.1	955.819	-29785.5	0.000000	0.000000	7.181221	330.186	NaN	0.000000	0.001549	0.001665	28.0912	81.0718	0.001738	46633.6	4.728333	173.187	328.897	1.167140	0.088304	0.087974	330.186	46633.6	0.082994	0.220924	1494.57	90646.3
64	2.000000	1.169458	7.36567e+06	-41839.1	955.819	-29785.5	0.000000	0.000000	7.183480	336.759	NaN	0.000000	0.001553	0.001646	28.0908	83.6008	0.001759	47532.7	3.457480	174.432	335.361	1.169164	0.090293	0.089998	336.759	47532.7	0.084979	0.230302	1462.25	90493.4
64	2.000000	1.171514	7.36567e+06	-41839.1	955.819	-29785.5	0.000000	0.000000	7.186174	352.308	NaN	0.000000	0.001577	0.001670	28.0923	87.0187	0.001817	47887.4	6.502182	170.831	352.243	1.171091	0.092348	0.091925	352.308	47887.4	0.086831	0.239211	1472.79	89454.7
64	2.000000	1.173426	7.36567e+06	-41839.1	955.818	-29785.5	0.000000	0.000000	7.188744	368.33	NaN	0.000000	0.001575	0.001670	28.092	87.389	0.001649	52983.2	2.437906	174.12	367.258	1.173200	0.094260	0.094035	368.33	52983.2	0.089046	0.250080	1472.85	96799.2
64	2.000000	1.175410	7.36567e+06	-41839.1	955.819	-29785.5	0.000000	0.000000	7.191450	385.884	NaN	0.000000	0.001558	0.001647	28.0919	89.863	0.001741	51611.9	0.778840	175.742	382.93	1.175126	0.096245	0.095960	385.884	51611.9	0.090637	0.258025	1495.53	92830.7
64	2.000000	1.177354	7.36567e+06	-41839.1	955.819	-29785.5	0.000000	0.000000	7.193727	393.996	NaN	0.000000	0.001574	0.001663	28.0929	90.032	0.001708	52708.8	0.845896	176.186	387.2	1.176982	0.098188	0.097816	393.996	52708.8	0.092582	0.267891	1470.73	93041.5
64	2.000000	1.179461	7.36567e+06	-41839.1	955.82	-29785.5	0.000000	0.000000	7.196431	408.511	NaN	0.000000	0.001559	0.001665	28.0928	93.4662	0.001763	53007.4	5.138364	171.216	406.042	1.179169	0.100295	0.100003	408.511	53007.4	0.094515	0.277874	1470.13	91872.5
64	2.000000	1.181484	7.36567e+06	-41839.1	955.819	-29785.5	0.000000	0.000000	7.199344	430.155	NaN	0.000000	0.001576	0.001666	28.0911	95.9917	0.001704	56346.6	7.016146	169.716	429.543	1.181050	0.102319	0.101884	430.155	56346.6	0.096593	0.288793	1489.49	95796.1
64	2.000000	1.183485	7.36567e+06	-41839.1	955.819	-29785.5	0.000000	0.000000	7.202018	446.55	NaN	0.000000	0.001563	0.001682	28.0913	96.6444	0.001794	53860.1	3.755245	173.483	448.761	1.183072	0.104319	0.103907	446.55	53860.1	0.098101	0.296838	1504.36	90319.3
64	2.000000	1.185004	7.36567e+06	-41839.1	955.818	-29785.5	0.000000	0.000000	7.203622	448.62	NaN	0.000000	0.001539	0.001703	28.1288	99.6294	0.001761	56576.7	4.792990	-8.006796	448.855	1.184645	0.105838	0.105480	448.62	56576.7	0.099891	0.306525	1463.57	93363.7