File: remote_trans/data/nanoindenter/0828-1/data/Data_2025-08-06,11h17m57s/2025-07-22_16-23-58_1_179.txt
2025-07-22, 16:23:58, 1
Index	Phase	Displacement	Time	Pos X	Pos Y	Pos Z	Rot A	Rot B	Piezo Z	Force A	Force B	Gripper	Voltage A	Voltage B	Temperature	Amplitude force	Amplitude pos	Stiffness	Phase shift	Phase excitation	Force A raw	Displacement raw	HMax	HMax raw	Real Force	Real Stiffness	Contact Depth	Area	Hardness	Reduced Mod.
[#]	[#]	[um]	[s]	[um]	[um]	[um]	[m°]	[m°]	[um]	[uN]	[uN]	[V]	[V]	[V]	[°C]	[uN]	[um]	[N/m]	[°]	[°]	[uN]	[um]	[um]	[um]	[uN]	[N/m]	[um]	[um^2]	[MPa]	[MPa]
179	1.000000	0.002821	7.36679e+06	-47589.1	955.818	-29765.8	0.000000	0.000000	6.002827	0.094982	NaN	0.000000	0.001557	0.001748	28.1005	0.073623	0.001115	66.0381	8.663456	-168.715	0.090502	0.001543	-1.142119	-1.143396	0.094982	66.0381	-1.143197	-1.903757E+15	-4.989168E-17	NaN
179	1.000000	0.012847	7.36679e+06	-47589.1	955.819	-29765.8	0.000000	0.000000	6.012850	0.023316	NaN	0.000000	0.001568	0.001744	28.08	0.084348	0.001330	63.4107	-175.595	15.4965	-0.099143	0.011413	-1.132092	-1.133526	0.023316	63.4107	-1.132368	-1.362643E+15	-1.711065E-17	NaN
179	1.000000	0.022726	7.36679e+06	-47589.1	955.819	-29765.8	0.000000	0.000000	6.022731	0.071570	NaN	0.000000	0.001599	0.001735	28.0952	0.060988	0.001759	34.6719	90.9231	-170.843	0.055905	0.021451	-1.122213	-1.123488	0.071570	34.6719	-1.123762	-1.044570E+15	-6.851592E-17	NaN
179	1.000000	0.032729	7.36679e+06	-47589.1	955.818	-29765.8	0.000000	0.000000	6.032731	0.003291	NaN	0.000000	0.001580	0.001729	28.131	0.057158	0.001895	30.167	100.115	13.7312	0.005445	0.031368	-1.112211	-1.113571	0.003291	30.167	-1.112292	-7.329111E+14	-4.490392E-18	NaN
179	1.000000	0.042769	7.36679e+06	-47589.1	955.819	-29765.8	0.000000	0.000000	6.042771	-0.008402	NaN	0.000000	0.001554	0.001735	28.1008	0.072062	0.001937	37.1979	133.91	-165.164	0.026378	0.041469	-1.102170	-1.103471	-0.008402	37.1979	-1.102001	-5.332396E+14	1.575684E-17	NaN
179	1.000000	0.052723	7.36679e+06	-47589.1	955.818	-29765.8	0.000000	0.000000	6.052726	-0.001068	NaN	0.000000	0.001592	0.001755	28.0811	0.121904	0.002008	60.6997	46.3345	12.459	-0.026146	0.051396	-1.092216	-1.093544	-0.001068	60.6997	-1.092202	-3.938988E+14	2.712112E-18	NaN
179	1.000000	0.062785	7.36679e+06	-47589.1	955.818	-29765.8	0.000000	0.000000	6.062792	0.102921	NaN	0.000000	0.001591	0.001710	28.0966	0.036413	0.002012	18.1001	146.25	-167.601	0.094620	0.061465	-1.082154	-1.083474	0.102921	18.1001	-1.086419	-3.294004E+14	-3.124484E-16	NaN
179	1.000000	0.072758	7.36679e+06	-47589.1	955.818	-29765.8	0.000000	0.000000	6.072761	0.018968	NaN	0.000000	0.001576	0.001745	28.1322	0.087599	0.002023	43.291	161.216	10.7351	0.032281	0.071416	-1.072181	-1.073523	0.018968	43.291	-1.072510	-2.142429E+14	-8.853314E-17	NaN
179	1.000000	0.082756	7.36679e+06	-47589.1	955.819	-29765.8	0.000000	0.000000	6.082762	0.078826	NaN	0.000000	0.001558	0.001754	28.1004	0.113019	0.001998	56.5706	119.592	-166.509	0.028890	0.081423	-1.062183	-1.063516	0.078826	56.5706	-1.063228	-1.607670E+14	-4.903103E-16	NaN
179	1.000000	0.092761	7.36679e+06	-47589.1	955.818	-29765.8	0.000000	0.000000	6.092766	0.062711	NaN	0.000000	0.001604	0.001722	28.0796	0.068762	0.002020	34.0359	37.0706	13.2633	0.072346	0.091392	-1.052178	-1.053547	0.062711	34.0359	-1.053560	-1.191972E+14	-5.261087E-16	NaN
179	1.000000	0.102779	7.36679e+06	-47589.1	955.818	-29765.8	0.000000	0.000000	6.102781	-0.003711	NaN	0.000000	0.001590	0.001722	28.095	0.104896	0.002014	52.0783	-81.686	-163.506	-0.064245	0.101419	-1.042160	-1.043520	-0.003711	52.0783	-1.042107	-8.361671E+13	4.438128E-17	NaN
179	1.000000	0.112771	7.36679e+06	-47589.1	955.818	-29765.8	0.000000	0.000000	6.112777	0.084187	NaN	0.000000	0.001606	0.001735	28.1291	0.026808	0.002139	12.5319	37.7132	12.5292	0.066673	0.111376	-1.032168	-1.033563	0.084187	12.5319	-1.037207	-7.184633E+13	-1.171767E-15	NaN
179	1.000000	0.122795	7.36679e+06	-47589.1	955.818	-29765.8	0.000000	0.000000	6.122796	-0.024579	NaN	0.000000	0.001617	0.001743	28.1004	0.083013	0.002039	40.7067	92.4717	-166.987	0.003344	0.121499	-1.022145	-1.023441	-0.024579	40.7067	-1.021692	-4.443392E+13	5.531587E-16	NaN
179	1.000000	0.132782	7.36679e+06	-47589.1	955.819	-29765.8	0.000000	0.000000	6.132785	0.006077	NaN	0.000000	0.001653	0.001720	28.0804	0.091084	0.001886	48.2843	163.309	12.1729	-0.032435	0.131468	-1.012157	-1.013471	0.006077	48.2843	-1.012252	-3.316538E+13	-1.832297E-16	NaN
179	1.000000	0.142775	7.36679e+06	-47589.1	955.819	-29765.8	0.000000	0.000000	6.142779	0.038797	NaN	0.000000	0.001620	0.001749	28.0947	0.055493	0.002020	27.4691	29.9996	-167.669	0.084412	0.141466	-1.002164	-1.003474	0.038797	27.4691	-1.003223	-2.507068E+13	-1.547501E-15	NaN
179	1.000000	0.152794	7.36679e+06	-47589.1	955.818	-29765.8	0.000000	0.000000	6.152799	0.072509	NaN	0.000000	0.001606	0.001756	28.1304	0.089420	0.002013	44.4187	-83.7145	12.5723	0.044339	0.151429	-0.992145	-0.993510	0.072509	44.4187	-0.993370	-1.847110E+13	-3.925554E-15	NaN
179	1.000000	0.162809	7.36679e+06	-47589.1	955.819	-29765.8	0.000000	0.000000	6.162813	0.034439	NaN	0.000000	0.001581	0.001739	28.0993	0.098279	0.001922	51.1376	-31.0434	-165.935	0.027810	0.161463	-0.982130	-0.983476	0.034439	51.1376	-0.982635	-1.324070E+13	-2.600990E-15	NaN
179	1.000000	0.172795	7.36679e+06	-47589.1	955.819	-29765.8	0.000000	0.000000	6.172799	0.052948	NaN	0.000000	0.001599	0.001747	28.079	0.092453	0.002078	44.4975	-159.651	15.7285	0.084769	0.171440	-0.972144	-0.973500	0.052948	44.4975	-0.973037	-9.830804E+12	-5.385917E-15	NaN
179	1.000000	0.182785	7.36679e+06	-47589.1	955.819	-29765.8	0.000000	0.000000	6.182790	0.078205	NaN	0.000000	0.001610	0.001743	28.0932	0.056830	0.002089	27.2012	174.512	-171.485	0.032418	0.181509	-0.962154	-0.963430	0.078205	27.2012	-0.964311	-7.498611E+12	-1.042932E-14	NaN
179	1.000000	0.192814	7.36679e+06	-47589.1	955.819	-29765.8	0.000000	0.000000	6.192818	0.036808	NaN	0.000000	0.001690	0.001775	28.1296	0.059847	0.002086	28.6865	106.76	11.4312	0.095454	0.191479	-0.952125	-0.953460	0.036808	28.6865	-0.953087	-5.292538E+12	-6.954770E-15	NaN
179	1.000000	0.202815	7.36679e+06	-47589.1	955.818	-29765.8	0.000000	0.000000	6.202819	0.047060	NaN	0.000000	0.001670	0.001786	28.1003	0.055255	0.002009	27.5092	158.912	-166.593	0.022296	0.201473	-0.942124	-0.943466	0.047060	27.5092	-0.943407	-3.918325E+12	-1.201011E-14	NaN
179	1.000000	0.212810	7.36679e+06	-47589.1	955.818	-29765.8	0.000000	0.000000	6.212815	0.046748	NaN	0.000000	0.001646	0.001774	28.0798	0.086226	0.001830	47.1111	15.0222	13.6306	-0.020189	0.211409	-0.932129	-0.933531	0.046748	47.1111	-0.932873	-2.824694E+12	-1.654972E-14	NaN
179	1.000000	0.222810	7.36679e+06	-47589.1	955.818	-29765.8	0.000000	0.000000	6.222814	0.037188	NaN	0.000000	0.001649	0.001777	28.0952	0.093069	0.001950	47.7395	-41.0265	-169.069	-0.018892	0.221513	-0.922129	-0.923426	0.037188	47.7395	-0.922714	-2.059887E+12	-1.805341E-14	NaN
179	1.000000	0.232814	7.36679e+06	-47589.1	955.818	-29765.8	0.000000	0.000000	6.232817	-0.001350	NaN	0.000000	0.001602	0.001752	28.1311	0.092856	0.001955	47.5038	166.928	18.261	0.068278	0.231479	-0.912125	-0.913460	-0.001350	47.5038	-0.912104	-1.481064E+12	9.116737E-16	NaN
179	1.000000	0.242833	7.36679e+06	-47589.1	955.819	-29765.8	0.000000	0.000000	6.242835	-0.009667	NaN	0.000000	0.001588	0.001755	28.1012	0.144878	0.001879	77.1221	-138.896	-163.845	0.117159	0.241519	-0.902106	-0.903420	-0.009667	77.1221	-0.902012	-1.082058E+12	8.934294E-15	NaN
179	1.000000	0.252829	7.36679e+06	-47589.1	955.818	-29765.8	0.000000	0.000000	6.252831	0.005388	NaN	0.000000	0.001625	0.001732	28.0794	0.134015	0.002044	65.5706	79.6158	9.905521	0.051183	0.251482	-0.892110	-0.893457	0.005388	65.5706	-0.892172	-7.966658E+11	-6.763260E-15	NaN
179	1.000000	0.262846	7.36679e+06	-47589.1	955.818	-29765.8	0.000000	0.000000	6.262847	-0.020985	NaN	0.000000	0.001595	0.001751	28.0937	0.036372	0.002023	17.981	-171.855	-167.783	-0.071490	0.261523	-0.882093	-0.883416	-0.020985	17.981	-0.881218	-5.664724E+11	3.704448E-14	NaN
179	1.000000	0.272852	7.36679e+06	-47589.1	955.819	-29765.8	0.000000	0.000000	6.272855	0.025774	NaN	0.000000	0.001577	0.001695	28.1303	0.118396	0.002082	56.8744	-23.2193	12.0774	0.026766	0.271464	-0.872087	-0.873475	0.025774	56.8744	-0.872427	-4.308053E+11	-5.982840E-14	NaN
179	1.000000	0.282853	7.36679e+06	-47589.1	955.818	-29765.8	0.000000	0.000000	6.282859	0.067355	NaN	0.000000	0.001609	0.001723	28.102	0.023079	0.002080	11.0983	8.473298	-167.027	0.034777	0.281540	-0.862086	-0.863399	0.067355	11.0983	-0.866638	-3.597069E+11	-1.872505E-13	NaN
179	1.000000	0.292820	7.36679e+06	-47589.1	955.818	-29765.8	0.000000	0.000000	6.292823	0.020719	NaN	0.000000	0.001588	0.001734	28.0805	0.078833	0.002072	38.0548	112.987	15.7225	0.076297	0.291488	-0.852119	-0.853451	0.020719	38.0548	-0.852528	-2.317193E+11	-8.941593E-14	NaN
179	1.000000	0.302873	7.36679e+06	-47589.1	955.818	-29765.8	0.000000	0.000000	6.302877	0.032874	NaN	0.000000	0.001630	0.001729	28.0942	0.028360	0.002000	14.1788	59.6985	-164.342	0.055269	0.301501	-0.842066	-0.843438	0.032874	14.1788	-0.843805	-1.765391E+11	-1.862119E-13	NaN
179	1.000000	0.312872	7.36679e+06	-47589.1	955.818	-29765.8	0.000000	0.000000	6.312874	-0.027993	NaN	0.000000	0.001625	0.001784	28.1313	0.024949	0.002124	11.749	138.98	12.7375	0.002366	0.311507	-0.832067	-0.833433	-0.027993	11.749	-0.830280	-1.157648E+11	2.418119E-13	NaN
179	1.000000	0.322849	7.36679e+06	-47589.1	955.818	-29765.8	0.000000	0.000000	6.322853	0.016691	NaN	0.000000	0.001631	0.001750	28.101	0.109316	0.001856	58.9038	128.631	-165.751	0.022281	0.321514	-0.822090	-0.823425	0.016691	58.9038	-0.822302	-9.024622E+10	-1.849444E-13	NaN
179	1.000000	0.332892	7.36679e+06	-47589.1	955.819	-29765.8	0.000000	0.000000	6.332898	0.062701	NaN	0.000000	0.001683	0.001747	28.0795	0.037607	0.002033	18.5011	136.628	12.062	-0.009219	0.331539	-0.812047	-0.813401	0.062701	18.5011	-0.814588	-7.092789E+10	-8.840036E-13	NaN
179	1.000000	0.342876	7.36679e+06	-47589.1	955.818	-29765.8	0.000000	0.000000	6.342879	0.019299	NaN	0.000000	0.001662	0.001766	28.0929	0.063596	0.001992	31.9263	60.8593	-165.206	0.031110	0.341594	-0.802064	-0.803346	0.019299	31.9263	-0.802517	-4.864360E+10	-3.967379E-13	NaN
179	1.000000	0.352865	7.36679e+06	-47589.1	955.819	-29765.8	0.000000	0.000000	6.352870	0.060810	NaN	0.000000	0.001655	0.001776	28.1303	0.147789	0.001936	76.3223	-10.8025	13.4897	0.035398	0.351508	-0.792074	-0.793432	0.060810	76.3223	-0.792672	-3.575766E+10	-1.700606E-12	NaN
179	1.000000	0.362867	7.36679e+06	-47589.1	955.818	-29765.8	0.000000	0.000000	6.362870	0.030279	NaN	0.000000	0.001658	0.001739	28.1009	0.138404	0.001987	69.6536	135.601	-167.62	0.004604	0.361565	-0.782073	-0.783374	0.030279	69.6536	-0.782399	-2.593131E+10	-1.167663E-12	NaN
179	1.000000	0.372892	7.36679e+06	-47589.1	955.818	-29765.8	0.000000	0.000000	6.372898	0.076154	NaN	0.000000	0.001660	0.001731	28.0792	0.047455	0.002053	23.1131	46.0791	11.9404	0.069383	0.371566	-0.772047	-0.773373	0.076154	23.1131	-0.774518	-2.026425E+10	-3.758023E-12	NaN
179	1.000000	0.382890	7.36679e+06	-47589.1	955.818	-29765.8	0.000000	0.000000	6.382894	0.054676	NaN	0.000000	0.001720	0.001757	28.0926	0.046865	0.002092	22.4021	-98.5037	-163.897	0.088268	0.381530	-0.762049	-0.763409	0.054676	22.4021	-0.763880	-1.452375E+10	-3.764576E-12	NaN
179	1.000000	0.392881	7.36679e+06	-47589.1	955.818	-29765.8	0.000000	0.000000	6.392883	-0.007686	NaN	0.000000	0.001642	0.001777	28.1295	0.058002	0.001989	29.1667	118.915	13.2195	0.022495	0.391577	-0.752058	-0.753362	-0.007686	29.1667	-0.751860	-9.966429E+9	7.712242E-13	NaN
179	1.000000	0.402872	7.36679e+06	-47589.1	955.819	-29765.8	0.000000	0.000000	6.402876	0.034458	NaN	0.000000	0.001590	0.001787	28.1003	0.019642	0.001982	9.908834	79.8149	-168.441	0.026725	0.401579	-0.742067	-0.743360	0.034458	9.908834	-0.744675	-7.956523E+9	-4.330844E-12	NaN
179	1.000000	0.412908	7.36679e+06	-47589.1	955.818	-29765.8	0.000000	0.000000	6.412911	0.016874	NaN	0.000000	0.001590	0.001806	28.0776	0.067172	0.001995	33.6741	93.9048	18.6159	0.061680	0.411500	-0.732031	-0.733439	0.016874	33.6741	-0.732407	-5.415133E+9	-3.116011E-12	NaN
179	1.000000	0.422894	7.36679e+06	-47589.1	955.819	-29765.8	0.000000	0.000000	6.422898	0.016554	NaN	0.000000	0.001610	0.001724	28.092	0.043245	0.002038	21.2145	-175.268	-168.596	0.084842	0.421638	-0.722045	-0.723301	0.016554	21.2145	-0.722630	-3.984165E+9	-4.155038E-12	NaN
179	1.000000	0.432877	7.36679e+06	-47589.1	955.818	-29765.8	0.000000	0.000000	6.432883	0.081339	NaN	0.000000	0.001625	0.001758	28.1283	0.141822	0.001854	76.4783	-162.689	9.312718	0.007619	0.431560	-0.712062	-0.713380	0.081339	76.4783	-0.712860	-2.931400E+9	-2.774763E-11	NaN
179	1.000000	0.442928	7.36679e+06	-47589.1	955.818	-29765.8	0.000000	0.000000	6.442933	0.048344	NaN	0.000000	0.001569	0.001767	28.1014	0.022371	0.001987	11.2564	-118.682	-168.963	-0.009099	0.441584	-0.702011	-0.703355	0.048344	11.2564	-0.705232	-2.306570E+9	-2.095918E-11	NaN
179	1.000000	0.452905	7.36679e+06	-47589.1	955.819	-29765.8	0.000000	0.000000	6.452910	0.052548	NaN	0.000000	0.001598	0.001788	28.0787	0.018544	0.002033	9.122950	125.453	7.678489	0.100426	0.451494	-0.692034	-0.693445	0.052548	9.122950	-0.696354	-1.744750E+9	-3.011801E-11	NaN
179	1.000000	0.462926	7.36679e+06	-47589.1	955.819	-29765.8	0.000000	0.000000	6.462927	-0.053931	NaN	0.000000	0.001583	0.001762	28.0936	0.067711	0.002027	33.4124	-162.538	-168.398	0.005433	0.461584	-0.682013	-0.683355	-0.053931	33.4124	-0.680802	-1.069492E+9	5.042681E-11	NaN
179	1.000000	0.472922	7.36679e+06	-47589.1	955.818	-29765.8	0.000000	0.000000	6.472927	0.070460	NaN	0.000000	0.001609	0.001750	28.1294	0.078944	0.001944	40.6169	-44.932	14.555	-0.053235	0.471540	-0.672017	-0.673399	0.070460	40.6169	-0.673318	-8.448867E+8	-8.339524E-11	NaN
179	1.000000	0.482938	7.36679e+06	-47589.1	955.819	-29765.8	0.000000	0.000000	6.482942	0.038923	NaN	0.000000	0.001593	0.001758	28.0999	0.066723	0.002050	32.5495	61.9175	-164.942	0.030206	0.481554	-0.662001	-0.663385	0.038923	32.5495	-0.662898	-6.083643E+8	-6.397930E-11	NaN
179	1.000000	0.492932	7.36679e+06	-47589.1	955.818	-29765.8	0.000000	0.000000	6.492935	0.022631	NaN	0.000000	0.001592	0.001822	28.0784	0.034332	0.002136	16.0741	-105.57	14.7117	-0.040636	0.491578	-0.652007	-0.653362	0.022631	16.0741	-0.653063	-4.460949E+8	-5.073107E-11	NaN
179	1.000000	0.502935	7.36679e+06	-47589.1	955.819	-29765.8	0.000000	0.000000	6.502937	-0.017846	NaN	0.000000	0.001582	0.001827	28.0934	0.048839	0.002005	24.3553	96.3843	-167.567	-0.020963	0.501651	-0.642004	-0.643289	-0.017846	24.3553	-0.641455	-3.092039E+8	5.771470E-11	NaN
179	1.000000	0.512949	7.36679e+06	-47589.1	955.819	-29765.8	0.000000	0.000000	6.512951	-0.007434	NaN	0.000000	0.001613	0.001758	28.1298	0.053450	0.001925	27.7723	69.7999	12.9229	-0.006220	0.511599	-0.631990	-0.633340	-0.007434	27.7723	-0.631789	-2.278220E+8	3.262995E-11	NaN
179	1.000000	0.522936	7.36679e+06	-47589.1	955.819	-29765.8	0.000000	0.000000	6.522936	-0.062305	NaN	0.000000	0.001581	0.001758	28.1028	0.049660	0.001996	24.8744	-11.2055	-165.427	-0.033722	0.521657	-0.622003	-0.623282	-0.062305	24.8744	-0.620125	-1.575240E+8	3.955284E-10	NaN
179	1.000000	0.532922	7.36679e+06	-47589.1	955.819	-29765.8	0.000000	0.000000	6.532926	0.057046	NaN	0.000000	0.001607	0.001777	28.0815	0.128232	0.001975	64.9287	55.8479	11.1724	0.022835	0.531614	-0.612018	-0.613325	0.057046	64.9287	-0.612677	-1.244329E+8	-4.584462E-10	NaN
179	1.000000	0.542955	7.36679e+06	-47589.1	955.819	-29765.8	0.000000	0.000000	6.542958	0.020022	NaN	0.000000	0.001605	0.001738	28.0936	0.040532	0.001958	20.6972	-146.564	-168.714	-0.004295	0.541614	-0.601984	-0.603325	0.020022	20.6972	-0.602710	-9.073559E+7	-2.206678E-10	NaN
179	1.000000	0.552966	7.36679e+06	-47589.1	955.818	-29765.8	0.000000	0.000000	6.552971	0.073700	NaN	0.000000	0.001579	0.001759	28.1311	0.050706	0.001976	25.6582	27.5634	10.9595	0.041514	0.551585	-0.591974	-0.593354	0.073700	25.6582	-0.594128	-6.911344E+7	-1.066356E-9	NaN
179	1.000000	0.562956	7.36679e+06	-47589.1	955.818	-29765.8	0.000000	0.000000	6.562961	0.051735	NaN	0.000000	0.001608	0.001753	28.1013	0.065379	0.002051	31.8763	-24.2106	-167.039	0.008910	0.561695	-0.581983	-0.583244	0.051735	31.8763	-0.583200	-4.885209E+7	-1.059005E-9	NaN
179	1.000000	0.572962	7.36679e+06	-47589.1	955.818	-29765.8	0.000000	0.000000	6.572964	0.001814	NaN	0.000000	0.001602	0.001760	28.0794	0.120890	0.001951	61.948	-0.085220	17.8041	-0.118241	0.571627	-0.571977	-0.573313	0.001814	61.948	-0.571999	-3.421810E+7	-5.302111E-11	NaN
179	1.000000	0.582974	7.36679e+06	-47589.1	955.819	-29765.8	0.000000	0.000000	6.582974	-0.065134	NaN	0.000000	0.001572	0.001760	28.0919	0.073375	0.002043	35.9198	43.0313	-163.463	-0.025138	0.581679	-0.561965	-0.563260	-0.065134	35.9198	-0.560605	-2.380914E+7	2.735679E-9	NaN
179	1.000000	0.592953	7.36679e+06	-47589.1	955.818	-29765.8	0.000000	0.000000	6.592957	0.032050	NaN	0.000000	0.001584	0.001754	28.1297	0.052452	0.002031	25.8304	-24.9003	13.2445	0.019247	0.591631	-0.551986	-0.553308	0.032050	25.8304	-0.552916	-1.863562E+7	-1.719801E-9	NaN
179	1.000000	0.602963	7.36679e+06	-47589.1	955.818	-29765.8	0.000000	0.000000	6.602966	0.003541	NaN	0.000000	0.001590	0.001781	28.1032	0.119693	0.001971	60.718	46.6888	-167.548	0.014976	0.601667	-0.541976	-0.543272	0.003541	60.718	-0.542020	-1.316338E+7	-2.690316E-10	NaN
179	1.000000	0.612988	7.36679e+06	-47589.1	955.818	-29765.8	0.000000	0.000000	6.612993	0.050427	NaN	0.000000	0.001579	0.001759	28.0809	0.096038	0.002048	46.8961	-129.24	10.1972	0.046677	0.611647	-0.531951	-0.533292	0.050427	46.8961	-0.532757	-9.79181e+06	-5.149930E-9	NaN
179	1.000000	0.622992	7.36679e+06	-47589.1	955.818	-29765.8	0.000000	0.000000	6.622998	0.079724	NaN	0.000000	0.001620	0.001801	28.0923	0.106445	0.001967	54.1241	66.8743	-169.983	0.054541	0.621674	-0.521947	-0.523265	0.079724	54.1241	-0.523052	-7.17853e+06	-1.110585E-8	NaN
179	1.000000	0.632999	7.36679e+06	-47589.1	955.818	-29765.8	0.000000	0.000000	6.633003	0.032225	NaN	0.000000	0.001599	0.001784	28.1304	0.135108	0.001857	72.7569	36.096	9.659535	-0.023120	0.631668	-0.511940	-0.513271	0.032225	72.7569	-0.512272	-5.08232e+06	-6.340620E-9	NaN
179	1.000000	0.642980	7.36679e+06	-47589.1	955.818	-29765.8	0.000000	0.000000	6.642982	-0.021950	NaN	0.000000	0.001597	0.001778	28.1015	0.063671	0.001993	31.9451	-144.87	-168.284	0.055521	0.641672	-0.501959	-0.503267	-0.021950	31.9451	-0.501444	-3.59052e+06	6.113389E-9	NaN
179	1.000000	0.653011	7.36679e+06	-47589.1	955.819	-29765.8	0.000000	0.000000	6.653012	-0.025710	NaN	0.000000	0.001590	0.001771	28.0779	0.115251	0.002009	57.3529	49.4572	12.9127	-0.075201	0.651605	-0.491928	-0.493334	-0.025710	57.3529	-0.491592	-2.616e+06	9.827814E-9	NaN
179	1.000000	0.663009	7.36679e+06	-47589.1	955.818	-29765.8	0.000000	0.000000	6.663012	0.002985	NaN	0.000000	0.001598	0.001773	28.0905	0.098996	0.002044	48.4418	-18.1294	-164.298	0.047578	0.661704	-0.481930	-0.483235	0.002985	48.4418	-0.481976	-1.91951e+06	-1.555211E-9	NaN
179	1.000000	0.673016	7.36679e+06	-47589.1	955.818	-29765.8	0.000000	0.000000	6.673016	-0.058803	NaN	0.000000	0.001586	0.001806	28.1289	0.092029	0.002049	44.9214	-145.27	14.7842	-0.013070	0.671712	-0.471924	-0.473227	-0.058803	44.9214	-0.470942	-1.34467e+06	4.373052E-8	NaN
179	1.000000	0.683013	7.36679e+06	-47589.1	955.819	-29765.8	0.000000	0.000000	6.683019	0.096890	NaN	0.000000	0.001587	0.001847	28.1024	0.052201	0.001971	26.4887	-87.6324	-167.13	0.011563	0.681714	-0.461926	-0.463225	0.096890	26.4887	-0.464670	-1.09801e+06	-8.824113E-8	NaN
179	1.000000	0.693015	7.36679e+06	-47589.1	955.818	-29765.8	0.000000	0.000000	6.693021	0.095727	NaN	0.000000	0.001627	0.001792	28.0798	0.029795	0.001990	14.9703	15.136	15.7885	0.059828	0.691607	-0.451924	-0.453332	0.095727	14.9703	-0.456720	-849009	-1.127516E-7	NaN
179	1.000000	0.703013	7.36679e+06	-47589.1	955.818	-29765.8	0.000000	0.000000	6.703014	-0.022682	NaN	0.000000	0.001624	0.001745	28.0926	0.140634	0.002008	70.0289	157.429	-163.672	0.083486	0.701763	-0.441927	-0.443176	-0.022682	70.0289	-0.441684	-521341	4.350618E-8	NaN
179	1.000000	0.713019	7.36679e+06	-47589.1	955.818	-29765.8	0.000000	0.000000	6.713019	-0.054328	NaN	0.000000	0.001578	0.001793	28.1301	0.082608	0.001981	41.6989	-61.8778	13.6584	-0.031511	0.711670	-0.431920	-0.433269	-0.054328	41.6989	-0.430943	-367621	1.477821E-7	NaN
179	1.000000	0.723010	7.36679e+06	-47589.1	955.819	-29765.8	0.000000	0.000000	6.723012	0.008573	NaN	0.000000	0.001593	0.001806	28.1018	0.065055	0.001957	33.2422	117.748	-165.481	-0.056401	0.721734	-0.421930	-0.423205	0.008573	33.2422	-0.422123	-275751	-3.109116E-8	NaN
179	1.000000	0.733023	7.36679e+06	-47589.1	955.818	-29765.8	0.000000	0.000000	6.733024	-0.022433	NaN	0.000000	0.001587	0.001777	28.0798	0.012736	0.001945	6.549809	-146.726	12.5259	0.084874	0.731683	-0.411916	-0.413256	-0.022433	6.549809	-0.409348	-181602	1.235305E-7	NaN
179	1.000000	0.743036	7.36679e+06	-47589.1	955.818	-29765.8	0.000000	0.000000	6.743040	0.023347	NaN	0.000000	0.001616	0.001764	28.091	0.047265	0.001956	24.1687	-168.679	-168.969	-0.034097	0.741701	-0.401903	-0.403239	0.023347	24.1687	-0.402627	-145696	-1.602444E-7	NaN
179	1.000000	0.753040	7.36679e+06	-47589.1	955.819	-29765.8	0.000000	0.000000	6.753045	0.062585	NaN	0.000000	0.001633	0.001815	28.1283	0.139668	0.002073	67.3744	-146.695	11.7084	-0.047286	0.751708	-0.391899	-0.393231	0.062585	67.3744	-0.392596	-104780	-5.972972E-7	NaN
179	1.000000	0.763015	7.36679e+06	-47589.1	955.818	-29765.8	0.000000	0.000000	6.763018	0.012297	NaN	0.000000	0.001679	0.001787	28.1037	0.055950	0.001992	28.0837	137.809	-167.182	0.059447	0.761742	-0.381924	-0.383197	0.012297	28.0837	-0.382252	-74507.2	-1.650497E-7	NaN
179	1.000000	0.773055	7.36679e+06	-47589.1	955.818	-29765.8	0.000000	0.000000	6.773059	0.041400	NaN	0.000000	0.001658	0.001777	28.0817	0.073244	0.001961	37.3555	-115.999	12.9632	0.091062	0.771728	-0.371885	-0.373211	0.041400	37.3555	-0.372716	-54352.5	-7.616885E-7	NaN
179	1.000000	0.783035	7.36679e+06	-47589.1	955.819	-29765.8	0.000000	0.000000	6.783038	0.002766	NaN	0.000000	0.001670	0.001826	28.0928	0.069395	0.002020	34.3461	151.965	-165.551	0.034996	0.781724	-0.361904	-0.363216	0.002766	34.3461	-0.361964	-38039.2	-7.270389E-8	NaN
179	1.000000	0.793035	7.36679e+06	-47589.1	955.819	-29765.8	0.000000	0.000000	6.793037	0.000852	NaN	0.000000	0.001686	0.001777	28.1309	0.181513	0.001963	92.4889	118.662	14.8575	0.052042	0.791666	-0.351904	-0.353273	0.000852	92.4889	-0.351911	-27210.2	-3.130263E-8	NaN
179	1.000000	0.803060	7.36679e+06	-47589.1	955.818	-29765.8	0.000000	0.000000	6.803065	0.048702	NaN	0.000000	0.001682	0.001807	28.1037	0.109560	0.001873	58.4839	33.9746	-168.134	0.019889	0.801709	-0.341879	-0.343230	0.048702	58.4839	-0.342503	-19862.1	-2.451982E-6	NaN
179	1.000000	0.813059	7.36679e+06	-47589.1	955.818	-29765.8	0.000000	0.000000	6.813062	0.009345	NaN	0.000000	0.001655	0.001747	28.0801	0.092751	0.001885	49.1963	-80.7848	9.341943	0.054771	0.811722	-0.331880	-0.333217	0.009345	49.1963	-0.332023	-13965.6	-6.691601E-7	NaN
179	1.000000	0.823071	7.36679e+06	-47589.1	955.819	-29765.8	0.000000	0.000000	6.823074	0.007334	NaN	0.000000	0.001686	0.001776	28.091	0.071125	0.002018	35.2387	148.966	-167.654	-0.010125	0.821758	-0.321868	-0.323181	0.007334	35.2387	-0.322024	-9963.49	-7.360408E-7	NaN
179	1.000000	0.833067	7.36679e+06	-47589.1	955.818	-29765.8	0.000000	0.000000	6.833072	0.070552	NaN	0.000000	0.001690	0.001774	28.1294	0.048360	0.001963	24.6408	170.272	12.7969	0.040286	0.831711	-0.311872	-0.313229	0.070552	24.6408	-0.314020	-7594.06	-9.290453E-6	NaN
179	1.000000	0.843046	7.36679e+06	-47589.1	955.819	-29765.8	0.000000	0.000000	6.843049	0.036421	NaN	0.000000	0.001661	0.001757	28.1046	0.132607	0.001956	67.785	68.4633	-168.136	0.077408	0.841776	-0.301894	-0.303163	0.036421	67.785	-0.302297	-5090.96	-7.154006E-6	NaN
179	1.000000	0.853104	7.36679e+06	-47589.1	955.819	-29765.8	0.000000	0.000000	6.853108	0.024788	NaN	0.000000	0.001663	0.001752	28.0805	0.055457	0.002056	26.9727	-147.461	11.4914	0.006466	0.851709	-0.291835	-0.293230	0.024788	26.9727	-0.292524	-3639.9	-6.809970E-6	NaN
179	1.000000	0.863100	7.36679e+06	-47589.1	955.819	-29765.8	0.000000	0.000000	6.863101	-0.025711	NaN	0.000000	0.001652	0.001793	28.0919	0.128744	0.002125	60.5972	-117.718	-165.259	0.067012	0.861821	-0.281839	-0.283118	-0.025711	60.5972	-0.281521	-2488.3	1.033265E-5	NaN
179	1.000000	0.873077	7.36679e+06	-47589.1	955.819	-29765.8	0.000000	0.000000	6.873083	0.078310	NaN	0.000000	0.001637	0.001754	28.1304	0.042783	0.002001	21.3833	118.607	17.5253	0.087251	0.871739	-0.271862	-0.273200	0.078310	21.3833	-0.274609	-1956.48	-4.002613E-5	NaN
179	1.000000	0.883104	7.36679e+06	-47589.1	955.818	-29765.8	0.000000	0.000000	6.883107	0.002155	NaN	0.000000	0.001686	0.001740	28.1041	0.014690	0.002099	6.998034	51.6164	-169.751	-0.023384	0.881802	-0.261835	-0.263137	0.002155	6.998034	-0.262066	-1260.53	-1.709467E-6	NaN
179	1.000000	0.893123	7.36679e+06	-47589.1	955.819	-29765.8	0.000000	0.000000	6.893126	-0.009375	NaN	0.000000	0.001686	0.001772	28.08	0.099052	0.002004	49.4303	130.877	12.7519	0.075427	0.891766	-0.251816	-0.253174	-0.009375	49.4303	-0.251673	-872.624	1.074290E-5	NaN
179	1.000000	0.903119	7.36679e+06	-47589.1	955.819	-29765.8	0.000000	0.000000	6.903120	-0.016279	NaN	0.000000	0.001692	0.001779	28.0925	0.081169	0.001934	41.9719	59.9331	-168.388	-0.023072	0.901801	-0.241820	-0.243138	-0.016279	41.9719	-0.241530	-607.331	2.680385E-5	NaN
179	1.000000	0.913136	7.36679e+06	-47589.1	955.819	-29765.8	0.000000	0.000000	6.913135	-0.080587	NaN	0.000000	0.001671	0.001756	28.1282	0.042258	0.001915	22.0671	-124.819	12.51	-0.096196	0.911762	-0.231803	-0.233177	-0.080587	22.0671	-0.229064	-387.022	0.000208	NaN
179	1.000000	0.923125	7.36679e+06	-47589.1	955.819	-29765.8	0.000000	0.000000	6.923128	0.012765	NaN	0.000000	0.001677	0.001763	28.1039	0.081011	0.001948	41.5966	-24.3111	-165.079	0.003353	0.921826	-0.221814	-0.223114	0.012765	41.5966	-0.222044	-299.437	-4.263003E-5	NaN
179	1.000000	0.933105	7.36679e+06	-47589.1	955.818	-29765.8	0.000000	0.000000	6.933108	-0.001741	NaN	0.000000	0.001689	0.001757	28.08	0.096655	0.001998	48.3801	-137.207	15.0252	0.028441	0.931753	-0.211834	-0.213187	-0.001741	48.3801	-0.211807	-205.137	8.486173E-6	NaN
179	1.000000	0.943134	7.36679e+06	-47589.1	955.818	-29765.8	0.000000	0.000000	6.943137	0.024010	NaN	0.000000	0.001668	0.001769	28.09	0.045837	0.002032	22.5628	-42.3748	-170.516	0.015089	0.941807	-0.201805	-0.203132	0.024010	22.5628	-0.202604	-145.345	-0.000165	NaN
179	1.000000	0.953122	7.36679e+06	-47589.1	955.819	-29765.8	0.000000	0.000000	6.953125	0.004135	NaN	0.000000	0.001672	0.001772	28.1291	0.101241	0.001869	54.1629	-36.4888	13.2356	-0.042996	0.951779	-0.191817	-0.193160	0.004135	54.1629	-0.191874	-96.6686	-4.277227E-5	NaN
179	1.000000	0.963127	7.36679e+06	-47589.1	955.818	-29765.8	0.000000	0.000000	6.963130	0.015468	NaN	0.000000	0.001661	0.001768	28.1037	0.030060	0.001949	15.4219	-141.489	-168.078	0.033040	0.961875	-0.181812	-0.183064	0.015468	15.4219	-0.182564	-67.4502	-0.000229	NaN
179	1.000000	0.973151	7.36679e+06	-47589.1	955.818	-29765.8	0.000000	0.000000	6.973154	0.021442	NaN	0.000000	0.001701	0.001750	28.0791	0.049551	0.002157	22.9677	-2.508610	14.6657	0.078521	0.971813	-0.171788	-0.173126	0.021442	22.9677	-0.172489	-45.3641	-0.000473	NaN
179	1.000000	0.983148	7.36679e+06	-47589.1	955.818	-29765.8	0.000000	0.000000	6.983149	-0.049560	NaN	0.000000	0.001700	0.001718	28.09	0.035831	0.002023	17.7077	-127.613	-166.897	-0.022969	0.981830	-0.161791	-0.163109	-0.049560	17.7077	-0.159692	-27.0712	0.001831	NaN
179	1.000000	0.993116	7.36679e+06	-47589.1	955.819	-29765.8	0.000000	0.000000	6.993120	0.030761	NaN	0.000000	0.001670	0.001772	28.1281	0.085804	0.002038	42.1085	39.5138	16.4732	0.098194	0.991724	-0.151823	-0.153215	0.030761	42.1085	-0.152371	-20.0035	-0.001538	NaN
179	1.000000	1.003164	7.36679e+06	-47589.1	955.818	-29765.8	0.000000	0.000000	7.003170	0.077336	NaN	0.000000	0.001661	0.001780	28.1047	0.081610	0.001980	41.2074	25.9896	-165.613	0.057583	1.001814	-0.141775	-0.143125	0.077336	41.2074	-0.143183	-13.5661	-0.005701	NaN
179	1.000000	1.013134	7.36679e+06	-47589.1	955.818	-29765.8	0.000000	0.000000	7.013138	0.039304	NaN	0.000000	0.001673	0.001776	28.08	0.040438	0.002007	20.1495	-35.295	12.7659	0.014914	1.011758	-0.131805	-0.133181	0.039304	20.1495	-0.133268	-8.813129	-0.004460	NaN
179	1.000000	1.023142	7.36679e+06	-47589.1	955.818	-29765.8	0.000000	0.000000	7.023144	-0.009718	NaN	0.000000	0.001636	0.001772	28.0892	0.059162	0.002031	29.1358	-104.782	-166.194	0.011043	1.021843	-0.121797	-0.123096	-0.009718	29.1358	-0.121547	-5.190529	0.001872	NaN
179	1.000000	1.033149	7.36679e+06	-47589.1	955.818	-29765.8	0.000000	0.000000	7.033153	0.015828	NaN	0.000000	0.001696	0.001784	28.1291	0.076142	0.002139	35.5953	137.367	11.2802	0.027068	1.031812	-0.111790	-0.113128	0.015828	35.5953	-0.112123	-3.329832	-0.004753	NaN
179	1.000000	1.043212	7.36679e+06	-47589.1	955.818	-29765.8	0.000000	0.000000	7.043215	0.023400	NaN	0.000000	0.001663	0.001796	28.1048	0.051306	0.002097	24.4646	-138.742	-166.636	0.052310	1.041853	-0.101727	-0.103086	0.023400	24.4646	-0.102445	-2.068319	-0.011313	NaN
179	1.000000	1.053182	7.36679e+06	-47589.1	955.817	-29765.8	0.000000	0.000000	7.053186	0.020054	NaN	0.000000	0.001669	0.001818	28.0807	0.053979	0.002091	25.8193	-55.8343	12.9911	0.074700	1.051812	-0.091757	-0.093127	0.020054	25.8193	-0.092339	-1.225522	-0.016364	NaN
179	1.000000	1.063178	7.36679e+06	-47589.1	955.818	-29765.8	0.000000	0.000000	7.063184	0.078505	NaN	0.000000	0.001694	0.001778	28.0903	0.042638	0.002074	20.5541	169.39	-165.039	0.071245	1.061830	-0.081761	-0.083109	0.078505	20.5541	-0.084626	-0.804651	-0.097565	NaN
179	1.000000	1.073157	7.36679e+06	-47589.1	955.818	-29765.8	0.000000	0.000000	7.073161	0.050342	NaN	0.000000	0.001695	0.001797	28.1292	0.103474	0.001828	56.6084	-35.4108	13.9681	0.024986	1.071838	-0.071783	-0.073101	0.050342	56.6084	-0.072450	-0.396235	-0.127050	NaN
179	1.000000	1.083182	7.36679e+06	-47589.1	955.818	-29765.8	0.000000	0.000000	7.083185	0.018147	NaN	0.000000	0.001585	0.001802	28.1057	0.093601	0.002028	46.1452	93.0055	-171.163	0.053725	1.081910	-0.061757	-0.063030	0.018147	46.1452	-0.062052	-0.206048	-0.088074	NaN
179	1.000000	1.093175	7.36679e+06	-47589.1	955.819	-29765.8	0.000000	0.000000	7.093180	0.051688	NaN	0.000000	0.001586	0.001809	28.082	0.096072	0.002074	46.3329	-34.2435	14.3126	0.044159	1.091846	-0.051764	-0.053094	0.051688	46.3329	-0.052601	-0.109267	-0.473045	NaN
179	1.000000	1.103176	7.36679e+06	-47589.1	955.818	-29765.8	0.000000	0.000000	7.103177	-0.018698	NaN	0.000000	0.001573	0.001831	28.0921	0.053049	0.001958	27.096	-145.452	-166.897	-0.037677	1.101913	-0.041764	-0.043026	-0.018698	27.096	-0.041246	-0.049348	0.378909	NaN
179	1.000000	1.113205	7.36679e+06	-47589.1	955.818	-29765.8	0.000000	0.000000	7.113209	0.033924	NaN	0.000000	0.001647	0.001809	28.1303	0.074054	0.001961	37.7568	178.139	13.2681	0.018579	1.111859	-0.031734	-0.033080	0.033924	37.7568	-0.032408	-0.026920	-1.260166	NaN
179	1.000000	1.123175	7.36679e+06	-47589.1	955.818	-29765.8	0.000000	0.000000	7.123179	0.037236	NaN	0.000000	0.001588	0.001817	28.1059	0.060977	0.002018	30.2167	-121.099	-162.186	0.054787	1.121880	-0.021764	-0.023059	0.037236	30.2167	-0.022688	-0.014704	-2.532462	NaN
179	1.000000	1.133197	7.3668e+06	-47589.1	955.819	-29765.8	0.000000	0.000000	7.133202	0.073720	NaN	0.000000	0.001590	0.001809	28.0787	0.058887	0.001959	30.0579	113.537	12.0101	0.144912	1.131845	-0.011742	-0.013094	0.073720	30.0579	-0.013582	-0.008439	-8.735409	NaN
179	1.000000	1.143174	7.3668e+06	-47589.1	955.818	-29765.8	0.000000	0.000000	7.143178	0.046756	NaN	0.000000	0.001598	0.001782	28.0908	0.084048	0.001991	42.2061	30.5349	-167.403	0.051874	1.141849	-0.001765	-0.003090	0.046756	42.2061	-0.002596	-0.001848	-25.2988	NaN
179	2.000000	1.152911	7.3668e+06	-47589.1	955.818	-29765.8	0.000000	0.000000	7.153227	7.626762	NaN	0.000000	0.001584	0.001844	28.129	8.149165	0.001750	4656.8	15.1787	2.730749	5.862118	1.151790	0.007972	0.006851	7.626762	4656.8	0.006743	0.005781	1319.18	55955.4
179	2.000000	1.155875	7.3668e+06	-47589.1	955.819	-29765.8	0.000000	0.000000	7.156332	11.0636	NaN	0.000000	0.001584	0.001806	28.1065	11.0978	0.001755	6323.07	5.799877	-172.14	10.1994	1.155575	0.010936	0.010636	11.0636	6323.07	0.009623	0.008766	1262.13	61702.7
179	2.000000	1.158387	7.3668e+06	-47589.1	955.818	-29765.8	0.000000	0.000000	7.159035	15.7011	NaN	0.000000	0.001602	0.001814	28.0811	13.2979	0.001680	7915.33	5.858064	7.791778	15.9274	1.158039	0.013448	0.013100	15.7011	7915.33	0.011960	0.011443	1372.16	67605.2
179	2.000000	1.160831	7.3668e+06	-47589.1	955.818	-29765.8	0.000000	0.000000	7.161639	19.6047	NaN	0.000000	0.001589	0.001789	28.0913	15.8684	0.001653	9599.9	2.726982	-173.105	18.7732	1.160453	0.015892	0.015514	19.6047	9599.9	0.014360	0.014441	1357.53	72985.3
179	2.000000	1.163343	7.3668e+06	-47589.1	955.818	-29765.8	0.000000	0.000000	7.164265	22.3473	NaN	0.000000	0.001588	0.001771	28.1288	18.7687	0.001828	10265.5	8.142694	1.625599	21.6867	1.162996	0.018404	0.018057	22.3473	10265.5	0.016772	0.017721	1261.07	70454.8
179	2.000000	1.165822	7.3668e+06	-47589.1	955.819	-29765.8	0.000000	0.000000	7.167033	29.4174	NaN	0.000000	0.001675	0.001761	28.1046	21.0024	0.001740	12071	3.818065	-176.109	29.5951	1.165496	0.020882	0.020557	29.4174	12071	0.019055	0.021079	1395.61	75962.3
179	2.000000	1.168288	7.3668e+06	-47589.1	955.82	-29765.8	0.000000	0.000000	7.169716	34.6769	NaN	0.000000	0.001657	0.001780	28.0784	23.5551	0.001868	12610	10.7187	-2.927489	32.6676	1.167957	0.023349	0.023017	34.6769	12610	0.021286	0.024604	1409.42	73449.5
179	2.000000	1.170790	7.3668e+06	-47589.1	955.819	-29765.8	0.000000	0.000000	7.172511	41.804	NaN	0.000000	0.001650	0.001772	28.0884	25.5139	0.001827	13963.2	5.793326	-178.391	40.9357	1.170499	0.025851	0.025560	41.804	13963.2	0.023605	0.028527	1465.41	75531.7
179	2.000000	1.173283	7.3668e+06	-47589.1	955.818	-29765.8	0.000000	0.000000	7.175152	45.3968	NaN	0.000000	0.001634	0.001733	28.1275	27.9137	0.001803	15478.3	5.776122	0.227906	45.2957	1.172858	0.028344	0.027919	45.3968	15478.3	0.026144	0.033130	1370.27	77694.1
179	2.000000	1.175778	7.3668e+06	-47589.1	955.819	-29765.8	0.000000	0.000000	7.177909	51.7805	NaN	0.000000	0.001665	0.001761	28.1059	30.7485	0.001775	17324.5	5.366414	178.082	50.4714	1.175549	0.030839	0.030610	51.7805	17324.5	0.028597	0.037886	1366.74	81319.4
179	2.000000	1.178346	7.3668e+06	-47589.1	955.819	-29765.8	0.000000	0.000000	7.180726	57.8368	NaN	0.000000	0.001659	0.001751	28.0796	32.6054	0.001848	17642.5	7.290026	-2.270544	58.326	1.177906	0.033406	0.032966	57.8368	17642.5	0.030948	0.042731	1353.51	77976.3
179	2.000000	1.180759	7.3668e+06	-47589.1	955.819	-29765.8	0.000000	0.000000	7.183569	68.2811	NaN	0.000000	0.001627	0.001763	28.0899	34.2631	0.001774	19309	2.002843	-178.455	66.4638	1.180440	0.035820	0.035500	68.2811	19309	0.033168	0.047566	1435.51	80888.1
179	2.000000	1.183237	7.3668e+06	-47589.1	955.818	-29765.8	0.000000	0.000000	7.186438	77.7955	NaN	0.000000	0.001581	0.001764	28.1284	37.2271	0.001871	19896.5	6.329849	-2.716741	75.4274	1.182899	0.038298	0.037960	77.7955	19896.5	0.035365	0.052600	1479.01	79260.6
179	2.000000	1.185751	7.3668e+06	-47589.1	955.819	-29765.8	0.000000	0.000000	7.189321	86.7718	NaN	0.000000	0.001605	0.001787	28.1053	39.2759	0.001701	23091	5.186693	176.428	85.0061	1.185478	0.040812	0.040539	86.7718	23091	0.037994	0.058947	1472.03	86893
179	2.000000	1.188310	7.3668e+06	-47589.1	955.819	-29765.8	0.000000	0.000000	7.192354	98.3029	NaN	0.000000	0.001578	0.001777	28.0784	40.9012	0.001669	24501.3	4.407807	-2.671668	97.4011	1.187874	0.043370	0.042935	98.3029	24501.3	0.040361	0.064966	1513.15	87825.4
179	2.000000	1.190775	7.3668e+06	-47589.1	955.819	-29765.8	0.000000	0.000000	7.195119	105.609	NaN	0.000000	0.001611	0.001813	28.0885	44.117	0.001702	25926	8.360725	171.952	106.792	1.190479	0.045836	0.045540	105.609	25926	0.042780	0.071411	1478.89	88639.3
179	2.000000	1.193282	7.3668e+06	-47589.1	955.819	-29765.8	0.000000	0.000000	7.198034	115.518	NaN	0.000000	0.001606	0.001827	28.1275	46.9889	0.001813	25920.4	5.512938	-5.036445	115.029	1.192932	0.048343	0.047993	115.518	25920.4	0.045001	0.077589	1488.84	85018.5
179	2.000000	1.195769	7.3668e+06	-47589.1	955.819	-29765.8	0.000000	0.000000	7.200981	126.707	NaN	0.000000	0.001597	0.001767	28.1076	49.7468	0.001765	28181.4	5.721220	174.212	126.914	1.195475	0.050830	0.050536	126.707	28181.4	0.047458	0.084717	1495.65	88460.6
179	2.000000	1.198303	7.3668e+06	-47589.1	955.819	-29765.8	0.000000	0.000000	7.204040	139.48	NaN	0.000000	0.001599	0.001744	28.0809	51.6611	0.001752	29494.1	5.529924	-5.270512	138.864	1.197833	0.053363	0.052894	139.48	29494.1	0.049817	0.091847	1518.61	88915.1
179	2.000000	1.200694	7.3668e+06	-47589.1	955.819	-29765.8	0.000000	0.000000	7.206853	149.748	NaN	0.000000	0.001606	0.001766	28.091	53.9902	0.001874	28806.2	4.746837	175.038	145.933	1.200425	0.055755	0.055486	149.748	28806.2	0.051856	0.098238	1524.35	83969.2
179	2.000000	1.203203	7.3668e+06	-47589.1	955.818	-29765.8	0.000000	0.000000	7.210078	167.145	NaN	0.000000	0.001579	0.001771	28.1307	56.5291	0.001754	32230.3	4.671825	-5.739873	163.975	1.202813	0.058264	0.057874	167.145	32230.3	0.054375	0.106413	1570.72	90269.3
179	2.000000	1.205707	7.3668e+06	-47589.1	955.818	-29765.8	0.000000	0.000000	7.212917	175.295	NaN	0.000000	0.001605	0.001774	28.1086	59.4086	0.001783	33321.1	6.566991	171.557	172.857	1.205429	0.060768	0.060490	175.295	33321.1	0.056823	0.114662	1528.8	89904.9
179	2.000000	1.208268	7.3668e+06	-47589.1	955.818	-29765.8	0.000000	0.000000	7.215987	187.682	NaN	0.000000	0.001610	0.001797	28.08	60.5129	0.001814	33358.2	3.073018	-4.301885	185.488	1.207993	0.063329	0.063054	187.682	33358.2	0.059109	0.122633	1530.43	87030.6
179	2.000000	1.210706	7.3668e+06	-47589.1	955.818	-29765.8	0.000000	0.000000	7.219027	202.331	NaN	0.000000	0.001597	0.001780	28.0899	63.66	0.001868	34085.9	3.994242	174.291	198.774	1.210359	0.065767	0.065420	202.331	34085.9	0.061315	0.130566	1549.65	86185.2
179	2.000000	1.213228	7.3668e+06	-47589.1	955.819	-29765.8	0.000000	0.000000	7.222036	214.185	NaN	0.000000	0.001600	0.001794	28.1293	66.0287	0.001879	35137.5	5.141665	-7.492399	213.226	1.212987	0.068288	0.068048	214.185	35137.5	0.063717	0.139472	1535.68	85960.9
179	2.000000	1.215775	7.3668e+06	-47589.1	955.819	-29765.8	0.000000	0.000000	7.225299	231.589	NaN	0.000000	0.001598	0.001797	28.1093	68.2177	0.001839	37092.4	4.797966	172.69	232.476	1.215458	0.070836	0.070519	231.589	37092.4	0.066154	0.148794	1556.44	87854.7
179	2.000000	1.218204	7.3668e+06	-47589.1	955.819	-29765.8	0.000000	0.000000	7.228477	249.822	NaN	0.000000	0.001595	0.001817	28.0826	69.3841	0.001847	37563.2	4.371299	-6.451720	246.98	1.217776	0.073265	0.072837	249.822	37563.2	0.068277	0.157149	1589.72	86572.7
179	2.000000	1.220750	7.3668e+06	-47589.1	955.819	-29765.8	0.000000	0.000000	7.231563	262.963	NaN	0.000000	0.001613	0.001767	28.0915	71.125	0.001679	42350.5	6.203434	170.078	262.624	1.220456	0.075810	0.075516	262.963	42350.5	0.071154	0.168812	1557.73	94173.8
179	2.000000	1.223165	7.3668e+06	-47589.1	955.819	-29765.8	0.000000	0.000000	7.234638	278.996	NaN	0.000000	0.001559	0.001801	28.1301	73.2362	0.001758	41649.6	0.787048	-4.047928	273.631	1.222856	0.078226	0.077917	278.996	41649.6	0.073202	0.177355	1573.09	90357
179	2.000000	1.225657	7.3668e+06	-47589.1	955.818	-29765.8	0.000000	0.000000	7.237908	297.924	NaN	0.000000	0.001582	0.001818	28.1085	77.308	0.001823	42410.2	4.838414	171.691	293.305	1.225435	0.080718	0.080496	297.924	42410.2	0.075450	0.186960	1593.52	89612.7
179	2.000000	1.228151	7.3668e+06	-47589.1	955.819	-29765.8	0.000000	0.000000	7.241171	316.642	NaN	0.000000	0.001585	0.001811	28.0808	77.0514	0.001700	45322.5	2.733606	-5.510079	309.831	1.227790	0.083211	0.082851	316.642	45322.5	0.077972	0.198018	1599.05	93053.8
179	2.000000	1.230645	7.3668e+06	-47589.1	955.818	-29765.8	0.000000	0.000000	7.244243	330.681	NaN	0.000000	0.001602	0.001793	28.0887	79.4417	0.001790	44389.5	3.276886	173.746	326.91	1.230464	0.085706	0.085524	330.681	44389.5	0.080119	0.207668	1592.35	88995.5
179	2.000000	1.233158	7.3668e+06	-47589.1	955.819	-29765.8	0.000000	0.000000	7.247458	347.757	NaN	0.000000	0.001605	0.001823	28.1275	83.6157	0.001868	44767	5.263715	-8.752653	342.332	1.232851	0.088219	0.087912	347.757	44767	0.082393	0.218122	1594.32	87575.4
179	2.000000	1.235630	7.3668e+06	-47589.1	955.819	-29765.8	0.000000	0.000000	7.250828	369.592	NaN	0.000000	0.001578	0.001824	28.108	85.9299	0.001796	47834	5.058846	171.064	364.964	1.235311	0.090691	0.090372	369.592	47834	0.084896	0.229907	1607.57	91145.3
179	2.000000	1.238120	7.3668e+06	-47589.1	955.819	-29765.8	0.000000	0.000000	7.254295	393.368	NaN	0.000000	0.001632	0.001836	28.0817	87.2594	0.001806	48319.7	3.910830	-7.745349	386.217	1.237799	0.093181	0.092860	393.368	48319.7	0.087076	0.240402	1636.29	90038.5
179	2.000000	1.240818	7.3668e+06	-47589.1	955.819	-29765.8	0.000000	0.000000	7.257362	402.351	NaN	0.000000	0.001585	0.001765	28.0888	89.6522	0.001845	48579.1	3.507340	172.525	408.866	1.240467	0.095879	0.095528	402.351	48579.1	0.089667	0.253167	1589.27	88210.3
179	2.000000	1.243181	7.3668e+06	-47589.1	955.818	-29765.8	0.000000	0.000000	7.260658	425.031	NaN	0.000000	0.001585	0.001793	28.1289	91.9594	0.001748	52594.8	4.049652	-8.608123	421.455	1.242786	0.098242	0.097846	425.031	52594.8	0.092181	0.265845	1598.79	93197
179	2.000000	1.245776	7.3668e+06	-47589.1	955.819	-29765.8	0.000000	0.000000	7.264023	443.763	NaN	0.000000	0.001600	0.001749	28.107	95.7055	0.001843	51937	3.251211	171.883	446.009	1.245491	0.100837	0.100552	443.763	51937	0.094428	0.277423	1599.59	90090.5
179	2.000000	1.248220	7.3668e+06	-47589.1	955.819	-29765.8	0.000000	0.000000	7.267506	469.054	NaN	0.000000	0.001582	0.001763	28.0797	96.9997	0.001763	55014.1	4.016410	-8.709978	466.758	1.247785	0.103281	0.102846	469.054	55014.1	0.096886	0.290347	1615.49	93279.9
179	2.000000	1.250713	7.3668e+06	-47589.1	955.819	-29765.8	0.000000	0.000000	7.270942	491.98	NaN	0.000000	0.001577	0.001789	28.0881	99.3277	0.001802	55130.7	5.280643	169.652	493.13	1.250402	0.105773	0.105462	491.98	55130.7	0.099081	0.302121	1628.42	91638.2
179	2.000000	1.251705	7.3668e+06	-47589.1	955.82	-29765.8	0.000000	0.000000	7.272363	502.401	NaN	0.000000	0.001609	0.001769	28.1079	101.603	0.001846	55029.8	6.333306	169.137	501.898	1.251351	0.106766	0.106412	502.401	55029.8	0.099919	0.306675	1638.22	90788.7