File: remote_trans/data/nanoindenter/0828-1/data/Data_2025-08-06,11h17m57s/2025-07-22_16-23-58_1_1207.txt
2025-07-22, 16:23:58, 1
Index	Phase	Displacement	Time	Pos X	Pos Y	Pos Z	Rot A	Rot B	Piezo Z	Force A	Force B	Gripper	Voltage A	Voltage B	Temperature	Amplitude force	Amplitude pos	Stiffness	Phase shift	Phase excitation	Force A raw	Displacement raw	HMax	HMax raw	Real Force	Real Stiffness	Contact Depth	Area	Hardness	Reduced Mod.
[#]	[#]	[um]	[s]	[um]	[um]	[um]	[m°]	[m°]	[um]	[uN]	[uN]	[V]	[V]	[V]	[°C]	[uN]	[um]	[N/m]	[°]	[°]	[uN]	[um]	[um]	[um]	[uN]	[N/m]	[um]	[um^2]	[MPa]	[MPa]
1207	1.000000	0.002456	7.37684e+06	-55239.1	1105.82	-29739.4	0.000000	0.000000	6.002761	0.016482	NaN	0.000000	0.001548	0.001709	28.0812	0.033366	0.000945	35.3183	-5.478271	-160.757	0.083295	0.001230	-1.022268	-1.023494	0.016482	35.3183	-1.022618	-4.572769E+13	-3.604336E-16	NaN
1207	1.000000	0.012567	7.37684e+06	-55239.1	1105.82	-29739.4	0.000000	0.000000	6.012874	0.087680	NaN	0.000000	0.001534	0.001734	28.0813	0.055268	0.001141	48.4563	17.2077	19.1919	0.139699	0.011124	-1.012158	-1.013601	0.087680	48.4563	-1.013515	-3.448985E+13	-2.542197E-15	NaN
1207	1.000000	0.022448	7.37684e+06	-55239.1	1105.82	-29739.4	0.000000	0.000000	6.022754	0.060035	NaN	0.000000	0.001550	0.001710	28.0812	0.129850	0.001819	71.3837	-160.72	-163.394	0.026737	0.021105	-1.002276	-1.003620	0.060035	71.3837	-1.002907	-2.482613E+13	-2.418236E-15	NaN
1207	1.000000	0.032446	7.37684e+06	-55239.1	1105.82	-29739.4	0.000000	0.000000	6.032753	0.081384	NaN	0.000000	0.001584	0.001719	28.0814	0.053190	0.001945	27.3533	-108.66	16.3872	0.021345	0.031100	-0.992279	-0.993625	0.081384	27.3533	-0.994510	-1.913603E+13	-4.252903E-15	NaN
1207	1.000000	0.042435	7.37684e+06	-55239.1	1105.82	-29739.4	0.000000	0.000000	6.042737	-0.020407	NaN	0.000000	0.001545	0.001707	28.0812	0.054849	0.001965	27.9105	-155.771	-164.37	-0.002119	0.041177	-0.982290	-0.983547	-0.020407	27.9105	-0.981742	-1.287875E+13	1.584571E-15	NaN
1207	1.000000	0.052448	7.37684e+06	-55239.1	1105.82	-29739.4	0.000000	0.000000	6.052754	0.041634	NaN	0.000000	0.001546	0.001739	28.0828	0.038138	0.001987	19.1921	-44.9474	15.8263	0.102064	0.051060	-0.972276	-0.973665	0.041634	19.1921	-0.973903	-1.009869E+13	-4.122695E-15	NaN
1207	1.000000	0.062458	7.37684e+06	-55239.1	1105.82	-29739.4	0.000000	0.000000	6.062765	0.079383	NaN	0.000000	0.001566	0.001769	28.0829	0.043032	0.001928	22.3253	-15.6883	-164.834	0.030484	0.061118	-0.962267	-0.963607	0.079383	22.3253	-0.964934	-7.645039E+12	-1.038361E-14	NaN
1207	1.000000	0.072466	7.37684e+06	-55239.1	1105.82	-29739.4	0.000000	0.000000	6.072769	-0.006045	NaN	0.000000	0.001571	0.001697	28.0829	0.064173	0.001958	32.7804	-17.6111	15.3351	-0.052135	0.071134	-0.952259	-0.953590	-0.006045	32.7804	-0.952120	-5.135956E+12	1.177051E-15	NaN
1207	1.000000	0.082490	7.37684e+06	-55239.1	1105.82	-29739.4	0.000000	0.000000	6.082796	0.064883	NaN	0.000000	0.001557	0.001686	28.0828	0.064062	0.001941	32.9994	-120.655	-160.731	0.085287	0.081106	-0.942235	-0.943619	0.064883	32.9994	-0.943709	-3.955282E+12	-1.640424E-14	NaN
1207	1.000000	0.092437	7.37685e+06	-55239.1	1105.82	-29739.5	0.000000	0.000000	6.092744	0.094028	NaN	0.000000	0.001588	0.001707	28.0827	0.022006	0.002036	10.8075	23.402	17.7887	0.023373	0.091103	-0.932288	-0.933622	0.094028	10.8075	-0.938813	-3.397252E+12	-2.767763E-14	NaN
1207	1.000000	0.102468	7.37685e+06	-55239.1	1105.82	-29739.5	0.000000	0.000000	6.102771	-0.013641	NaN	0.000000	0.001576	0.001686	28.0827	0.044306	0.002065	21.4533	162.977	-164.93	0.030275	0.101149	-0.922257	-0.923576	-0.013641	21.4533	-0.921780	-2.000970E+12	6.817256E-15	NaN
1207	1.000000	0.112482	7.37685e+06	-55239.1	1105.82	-29739.5	0.000000	0.000000	6.112788	0.054242	NaN	0.000000	0.001587	0.001710	28.0827	0.080549	0.002082	38.6822	151.317	13.3716	0.035401	0.111125	-0.912243	-0.913600	0.054242	38.6822	-0.913294	-1.536941E+12	-3.529250E-14	NaN
1207	1.000000	0.122466	7.37685e+06	-55239.1	1105.82	-29739.5	0.000000	0.000000	6.122774	0.091342	NaN	0.000000	0.001585	0.001724	28.0825	0.036317	0.001909	19.0202	168.05	-162.275	0.027804	0.121124	-0.902259	-0.903600	0.091342	19.0202	-0.905860	-1.219673E+12	-7.489056E-14	NaN
1207	1.000000	0.132477	7.37685e+06	-55239.1	1105.82	-29739.5	0.000000	0.000000	6.132783	0.067161	NaN	0.000000	0.001591	0.001750	28.0824	0.090130	0.002088	43.1704	-37.6157	12.9896	0.005579	0.131148	-0.892248	-0.893576	0.067161	43.1704	-0.893415	-8.280802E+11	-8.110415E-14	NaN
1207	1.000000	0.142487	7.37685e+06	-55239.1	1105.82	-29739.5	0.000000	0.000000	6.142793	0.074503	NaN	0.000000	0.001558	0.001714	28.0824	0.045186	0.002003	22.5534	-53.6722	-166.719	0.062976	0.141114	-0.882238	-0.883611	0.074503	22.5534	-0.884716	-6.316481E+11	-1.179503E-13	NaN
1207	1.000000	0.152491	7.37685e+06	-55239.1	1105.82	-29739.5	0.000000	0.000000	6.152792	-0.038336	NaN	0.000000	0.001597	0.001746	28.083	0.009855	0.002141	4.602010	174.766	13.4659	-0.027105	0.151120	-0.872234	-0.873605	-0.038336	4.602010	-0.865987	-3.524850E+11	1.087581E-13	NaN
1207	1.000000	0.162446	7.37685e+06	-55239.1	1105.82	-29739.5	0.000000	0.000000	6.162752	0.055544	NaN	0.000000	0.001580	0.001733	28.0824	0.125000	0.001931	64.7204	-77.833	-163.728	0.007203	0.161129	-0.862279	-0.863596	0.055544	64.7204	-0.862922	-3.203847E+11	-1.733678E-13	NaN
1207	1.000000	0.172486	7.37685e+06	-55239.1	1105.82	-29739.5	0.000000	0.000000	6.172792	0.075016	NaN	0.000000	0.001549	0.001745	28.0827	0.144976	0.001926	75.2869	19.2871	14.7803	0.075734	0.171146	-0.852239	-0.853579	0.075016	75.2869	-0.852986	-2.350572E+11	-3.191398E-13	NaN
1207	1.000000	0.182487	7.37685e+06	-55239.1	1105.82	-29739.5	0.000000	0.000000	6.182792	0.044162	NaN	0.000000	0.001579	0.001761	28.0822	0.070651	0.001938	36.4469	-15.2895	-165.215	0.044124	0.181152	-0.842238	-0.843572	0.044162	36.4469	-0.843147	-1.729501E+11	-2.553434E-13	NaN
1207	1.000000	0.192475	7.37685e+06	-55239.1	1105.82	-29739.5	0.000000	0.000000	6.192780	0.051274	NaN	0.000000	0.001575	0.001754	28.0815	0.098953	0.002004	49.3813	133.878	10.3762	-0.016370	0.191107	-0.832250	-0.833618	0.051274	49.3813	-0.833029	-1.261347E+11	-4.065049E-13	NaN
1207	1.000000	0.202490	7.37685e+06	-55239.1	1105.82	-29739.5	0.000000	0.000000	6.202796	0.043310	NaN	0.000000	0.001602	0.001756	28.0814	0.076715	0.002012	38.1342	131.152	-167.198	0.035614	0.201175	-0.822234	-0.823550	0.043310	38.1342	-0.823086	-9.248227E+10	-4.683111E-13	NaN
1207	1.000000	0.212511	7.37685e+06	-55239.1	1105.82	-29739.5	0.000000	0.000000	6.212815	0.028544	NaN	0.000000	0.001562	0.001695	28.0813	0.041879	0.001922	21.7936	142.582	15.6739	-0.049321	0.211140	-0.812214	-0.813584	0.028544	21.7936	-0.813196	-6.790994E+10	-4.203255E-13	NaN
1207	1.000000	0.222531	7.37685e+06	-55239.1	1105.82	-29739.5	0.000000	0.000000	6.222836	0.053836	NaN	0.000000	0.001576	0.001770	28.0812	0.038080	0.001937	19.6547	-156.217	-164.529	0.110913	0.221171	-0.802194	-0.803554	0.053836	19.6547	-0.804249	-5.134848E+10	-1.048437E-12	NaN
1207	1.000000	0.232527	7.37685e+06	-55239.1	1105.82	-29739.5	0.000000	0.000000	6.232835	0.098738	NaN	0.000000	0.001580	0.001731	28.0814	0.082437	0.002050	40.2119	4.852997	13.9491	0.046651	0.231210	-0.792198	-0.793515	0.098738	40.2119	-0.794039	-3.731946E+10	-2.645759E-12	NaN
1207	1.000000	0.242483	7.37685e+06	-55239.1	1105.82	-29739.5	0.000000	0.000000	6.242788	0.031633	NaN	0.000000	0.001582	0.001751	28.0811	0.064289	0.002034	31.6056	-81.6329	-163.89	0.007159	0.241231	-0.782242	-0.783494	0.031633	31.6056	-0.782992	-2.641738E+10	-1.197435E-12	NaN
1207	1.000000	0.252492	7.37685e+06	-55239.1	1105.82	-29739.5	0.000000	0.000000	6.252796	0.009191	NaN	0.000000	0.001625	0.001762	28.0809	0.060301	0.002025	29.7845	-159.958	17.203	-0.061411	0.251174	-0.772233	-0.773551	0.009191	29.7845	-0.772464	-1.900234E+10	-4.836856E-13	NaN
1207	1.000000	0.262503	7.37685e+06	-55239.1	1105.82	-29739.5	0.000000	0.000000	6.262808	0.037287	NaN	0.000000	0.001664	0.001750	28.0812	0.072816	0.002035	35.776	-116.812	-166.603	0.052565	0.261280	-0.762221	-0.763445	0.037287	35.776	-0.763003	-1.413038E+10	-2.638753E-12	NaN
1207	1.000000	0.272517	7.37685e+06	-55239.1	1105.82	-29739.5	0.000000	0.000000	6.272820	-0.011480	NaN	0.000000	0.001650	0.001754	28.0809	0.120032	0.001972	60.8788	143.809	17.9362	-0.050257	0.271156	-0.752207	-0.753568	-0.011480	60.8788	-0.752066	-1.003092E+10	1.144432E-12	NaN
1207	1.000000	0.282545	7.37685e+06	-55239.1	1105.82	-29739.5	0.000000	0.000000	6.282851	0.051130	NaN	0.000000	0.001625	0.001780	28.0813	0.102074	0.001949	52.3688	-127.943	-162.083	-0.061419	0.281253	-0.742179	-0.743472	0.051130	52.3688	-0.742912	-7.528538E+9	-6.791472E-12	NaN
1207	1.000000	0.292548	7.37685e+06	-55239.1	1105.82	-29739.5	0.000000	0.000000	6.292849	-0.051043	NaN	0.000000	0.001657	0.001774	28.0809	0.087367	0.001910	45.7312	-57.31	14.2944	-0.048019	0.291175	-0.732177	-0.733550	-0.051043	45.7312	-0.731340	-5.236811E+9	9.746876E-12	NaN
1207	1.000000	0.302563	7.37685e+06	-55239.1	1105.82	-29739.5	0.000000	0.000000	6.302866	-0.001015	NaN	0.000000	0.001633	0.001799	28.0811	0.031301	0.002028	15.4336	-88.0625	-163.644	0.013469	0.301248	-0.722162	-0.723477	-0.001015	15.4336	-0.722113	-3.919960E+9	2.588530E-13	NaN
1207	1.000000	0.312559	7.37685e+06	-55239.1	1105.82	-29739.5	0.000000	0.000000	6.312864	0.057217	NaN	0.000000	0.001624	0.001760	28.0808	0.105971	0.002023	52.389	102.07	16.5927	0.022262	0.311156	-0.712166	-0.713569	0.057217	52.389	-0.712985	-2.942967E+9	-1.944210E-11	NaN
1207	1.000000	0.322575	7.37685e+06	-55239.1	1105.82	-29739.5	0.000000	0.000000	6.322879	0.023302	NaN	0.000000	0.001622	0.001800	28.0822	0.108038	0.001955	55.2543	74.1746	-166.388	0.055478	0.321306	-0.702150	-0.703419	0.023302	55.2543	-0.702466	-2.114503E+9	-1.101992E-11	NaN
1207	1.000000	0.332556	7.37685e+06	-55239.1	1105.82	-29739.5	0.000000	0.000000	6.332859	-0.028134	NaN	0.000000	0.001664	0.001794	28.0821	0.059154	0.001932	30.6112	140.302	13.1744	0.018718	0.331177	-0.692168	-0.693548	-0.028134	30.6112	-0.691479	-1.496689E+9	1.879749E-11	NaN
1207	1.000000	0.342564	7.37685e+06	-55239.1	1105.82	-29739.5	0.000000	0.000000	6.342871	0.096335	NaN	0.000000	0.001599	0.001797	28.0822	0.050928	0.001928	26.4198	70.2669	-166.533	0.054845	0.341195	-0.682161	-0.683530	0.096335	26.4198	-0.684896	-1.216599E+9	-7.918380E-11	NaN
1207	1.000000	0.352537	7.37685e+06	-55239.1	1105.82	-29739.5	0.000000	0.000000	6.352842	0.038004	NaN	0.000000	0.001555	0.001757	28.0821	0.138134	0.002098	65.8457	-178.417	13.1095	0.046715	0.351216	-0.672187	-0.673509	0.038004	65.8457	-0.672620	-8.265145E+8	-4.598050E-11	NaN
1207	1.000000	0.362576	7.37685e+06	-55239.1	1105.82	-29739.5	0.000000	0.000000	6.362882	0.052499	NaN	0.000000	0.001582	0.001769	28.082	0.036309	0.001983	18.3125	-83.1269	-164.792	0.085570	0.361296	-0.662148	-0.663429	0.052499	18.3125	-0.664298	-6.358231E+8	-8.256801E-11	NaN
1207	1.000000	0.372589	7.37685e+06	-55239.1	1105.82	-29739.5	0.000000	0.000000	6.372897	0.108145	NaN	0.000000	0.001631	0.001788	28.0824	0.057202	0.001901	30.0832	108.325	12.7153	0.134032	0.371207	-0.652135	-0.653518	0.108145	30.0832	-0.654831	-4.716898E+8	-2.292715E-10	NaN
1207	1.000000	0.382597	7.37685e+06	-55239.1	1105.82	-29739.5	0.000000	0.000000	6.382902	0.024437	NaN	0.000000	0.001606	0.001705	28.0823	0.096229	0.002126	45.2682	-42.5035	-165.136	-0.041423	0.381303	-0.642128	-0.643422	0.024437	45.2682	-0.642532	-3.199127E+8	-7.638691E-11	NaN
1207	1.000000	0.392588	7.37685e+06	-55239.1	1105.82	-29739.5	0.000000	0.000000	6.392891	-0.013746	NaN	0.000000	0.001612	0.001718	28.0822	0.025731	0.002040	12.6159	-58.4633	10.606	0.010545	0.391212	-0.632137	-0.633513	-0.013746	12.6159	-0.631319	-2.244614E+8	6.123776E-11	NaN
1207	1.000000	0.402610	7.37685e+06	-55239.1	1105.82	-29739.5	0.000000	0.000000	6.402912	-0.032704	NaN	0.000000	0.001608	0.001738	28.0821	0.013635	0.001907	7.148810	143.156	-167.182	-0.041241	0.401317	-0.622115	-0.623408	-0.032704	7.148810	-0.618684	-1.505006E+8	2.173016E-10	NaN
1207	1.000000	0.412584	7.37685e+06	-55239.1	1105.82	-29739.5	0.000000	0.000000	6.412890	0.047740	NaN	0.000000	0.001609	0.001750	28.0823	0.077416	0.001905	40.6468	-141.829	11.5928	-0.011701	0.411190	-0.612140	-0.613535	0.047740	40.6468	-0.613021	-1.257990E+8	-3.794931E-10	NaN
1207	1.000000	0.422603	7.37685e+06	-55239.1	1105.82	-29739.5	0.000000	0.000000	6.422911	0.108106	NaN	0.000000	0.001602	0.001729	28.0821	0.120810	0.002056	58.7644	61.4092	-164.841	0.037020	0.421310	-0.602122	-0.603414	0.108106	58.7644	-0.603502	-9.304205E+7	-1.161905E-9	NaN
1207	1.000000	0.432564	7.37685e+06	-55239.1	1105.82	-29739.5	0.000000	0.000000	6.432872	0.120773	NaN	0.000000	0.001608	0.001722	28.0821	0.056131	0.001882	29.8194	112.958	17.452	0.061673	0.431222	-0.592161	-0.593502	0.120773	29.8194	-0.595199	-7.150201E+7	-1.689088E-9	NaN
1207	1.000000	0.442604	7.37685e+06	-55239.1	1105.82	-29739.5	0.000000	0.000000	6.442909	0.027668	NaN	0.000000	0.001580	0.001736	28.0824	0.089775	0.001966	45.6736	142.182	-167.897	0.042000	0.441294	-0.582120	-0.583431	0.027668	45.6736	-0.582575	-4.789118E+7	-5.777230E-10	NaN
1207	1.000000	0.452614	7.37685e+06	-55239.1	1105.82	-29739.5	0.000000	0.000000	6.452919	0.023720	NaN	0.000000	0.001604	0.001714	28.0823	0.121699	0.002047	59.4391	66.0671	16.4954	0.086638	0.451220	-0.572111	-0.573505	0.023720	59.4391	-0.572410	-3.466788E+7	-6.842012E-10	NaN
1207	1.000000	0.462619	7.37685e+06	-55239.1	1105.82	-29739.5	0.000000	0.000000	6.462921	-0.041061	NaN	0.000000	0.001604	0.001727	28.0812	0.124435	0.002100	59.2441	118.594	-167.061	0.042903	0.461370	-0.562106	-0.563355	-0.041061	59.2441	-0.561586	-2.456476E+7	1.671532E-9	NaN
1207	1.000000	0.472601	7.37685e+06	-55239.1	1105.82	-29739.5	0.000000	0.000000	6.472904	0.001779	NaN	0.000000	0.001577	0.001735	28.081	0.031243	0.001961	15.9316	-3.980431	16.5182	-0.015933	0.471313	-0.552124	-0.553412	0.001779	15.9316	-0.552208	-1.821934E+7	-9.766444E-11	NaN
1207	1.000000	0.482622	7.37685e+06	-55239.1	1105.82	-29739.5	0.000000	0.000000	6.482927	0.041410	NaN	0.000000	0.001601	0.001724	28.0812	0.026738	0.001973	13.5505	-69.1144	-165.23	0.063764	0.481333	-0.542103	-0.543391	0.041410	13.5505	-0.544395	-1.420028E+7	-2.916111E-9	NaN
1207	1.000000	0.492633	7.37685e+06	-55239.1	1105.82	-29739.5	0.000000	0.000000	6.492937	0.006744	NaN	0.000000	0.001594	0.001752	28.0813	0.037747	0.001953	19.3258	152.302	13.1432	0.061513	0.491281	-0.532092	-0.533443	0.006744	19.3258	-0.532354	-9.66624e+06	-6.976925E-10	NaN
1207	1.000000	0.502633	7.37685e+06	-55239.1	1105.82	-29739.5	0.000000	0.000000	6.502939	0.046383	NaN	0.000000	0.001565	0.001726	28.081	0.088785	0.002113	42.0205	-158.532	-169.546	-0.005670	0.501290	-0.522092	-0.523435	0.046383	42.0205	-0.522919	-7.14812e+06	-6.488803E-9	NaN
1207	1.000000	0.512648	7.37685e+06	-55239.1	1105.82	-29739.5	0.000000	0.000000	6.512951	-0.018812	NaN	0.000000	0.001560	0.001745	28.0811	0.012121	0.002082	5.821878	-139.717	12.3695	0.079220	0.511270	-0.512077	-0.513455	-0.018812	5.821878	-0.509653	-4.6729e+06	4.025762E-9	NaN
1207	1.000000	0.522631	7.37685e+06	-55239.1	1105.82	-29739.5	0.000000	0.000000	6.522937	0.072948	NaN	0.000000	0.001551	0.001771	28.0813	0.054585	0.002035	26.821	-178.723	-168	0.088951	0.521342	-0.502094	-0.503383	0.072948	26.821	-0.504134	-3.91447e+06	-1.863543E-8	NaN
1207	1.000000	0.532662	7.37685e+06	-55239.1	1105.82	-29739.5	0.000000	0.000000	6.532969	0.097772	NaN	0.000000	0.001573	0.001747	28.0812	0.070774	0.001854	38.1826	39.7074	16.9008	0.080207	0.531300	-0.492063	-0.493425	0.097772	38.1826	-0.493983	-2.82514e+06	-3.460780E-8	NaN
1207	1.000000	0.542670	7.37685e+06	-55239.1	1105.82	-29739.5	0.000000	0.000000	6.542974	0.020155	NaN	0.000000	0.001578	0.001767	28.0811	0.061509	0.002031	30.2836	1.590637	-163.976	0.095062	0.541347	-0.482055	-0.483378	0.020155	30.2836	-0.482554	-1.95555e+06	-1.030663E-8	NaN
1207	1.000000	0.552658	7.37685e+06	-55239.1	1105.82	-29739.5	0.000000	0.000000	6.552964	0.046906	NaN	0.000000	0.001575	0.001776	28.0814	0.093845	0.001853	50.6342	150.618	14.5189	0.075579	0.551273	-0.472067	-0.473451	0.046906	50.6342	-0.472761	-1.42603e+06	-3.289306E-8	NaN
1207	1.000000	0.562680	7.37685e+06	-55239.1	1105.82	-29739.5	0.000000	0.000000	6.562982	-0.024101	NaN	0.000000	0.001582	0.001784	28.0813	0.077672	0.002036	38.1433	-44.4202	-163.479	-0.003807	0.561401	-0.462045	-0.463324	-0.024101	38.1433	-0.461571	-993334	2.426260E-8	NaN
1207	1.000000	0.572627	7.37685e+06	-55239.1	1105.82	-29739.5	0.000000	0.000000	6.572935	0.100951	NaN	0.000000	0.001583	0.001775	28.0812	0.055667	0.002131	26.1203	-179.304	17.3081	0.080720	0.571330	-0.452098	-0.453395	0.100951	26.1203	-0.454996	-802903	-1.257323E-7	NaN
1207	1.000000	0.582644	7.37685e+06	-55239.1	1105.82	-29739.5	0.000000	0.000000	6.582948	0.031790	NaN	0.000000	0.001554	0.001750	28.081	0.036318	0.002050	17.713	73.5952	-163.981	-0.080972	0.581363	-0.442081	-0.443361	0.031790	17.713	-0.443427	-551717	-5.761968E-8	NaN
1207	1.000000	0.592648	7.37685e+06	-55239.1	1105.82	-29739.5	0.000000	0.000000	6.592956	0.113870	NaN	0.000000	0.001547	0.001752	28.0814	0.106722	0.001902	56.1249	16.779	12.6223	0.097179	0.591292	-0.432077	-0.433433	0.113870	56.1249	-0.433599	-400822	-2.840902E-7	NaN
1207	1.000000	0.602668	7.37685e+06	-55239.1	1105.82	-29739.5	0.000000	0.000000	6.602974	0.058398	NaN	0.000000	0.001553	0.001750	28.0823	0.120740	0.002026	59.602	174.197	-165.892	0.091035	0.601380	-0.422057	-0.423345	0.058398	59.602	-0.422791	-281832	-2.072086E-7	NaN
1207	1.000000	0.612662	7.37685e+06	-55239.1	1105.82	-29739.5	0.000000	0.000000	6.612970	0.099244	NaN	0.000000	0.001573	0.001753	28.0823	0.161427	0.001911	84.4525	108.749	12.6905	0.051758	0.611316	-0.412062	-0.413409	0.099244	84.4525	-0.412944	-204289	-4.858017E-7	NaN
1207	1.000000	0.622681	7.37685e+06	-55239.1	1105.82	-29739.5	0.000000	0.000000	6.622986	0.049076	NaN	0.000000	0.001570	0.001747	28.0823	0.052215	0.002100	24.8591	-161.319	-162.905	0.096098	0.621391	-0.402044	-0.403334	0.049076	24.8591	-0.403525	-150050	-3.270628E-7	NaN
1207	1.000000	0.632688	7.37685e+06	-55239.1	1105.82	-29739.5	0.000000	0.000000	6.632993	0.037728	NaN	0.000000	0.001611	0.001756	28.0824	0.043746	0.002049	21.3488	17.1059	18.177	-0.024470	0.631308	-0.392037	-0.393417	0.037728	21.3488	-0.393362	-107457	-3.510998E-7	NaN
1207	1.000000	0.642684	7.37685e+06	-55239.1	1105.82	-29739.5	0.000000	0.000000	6.642992	0.110808	NaN	0.000000	0.001619	0.001754	28.0821	0.044189	0.001949	22.6781	-80.3096	-165.511	0.058979	0.641313	-0.382040	-0.383412	0.110808	22.6781	-0.385705	-83500.1	-1.327042E-6	NaN
1207	1.000000	0.652709	7.37685e+06	-55239.1	1105.82	-29739.5	0.000000	0.000000	6.653011	-0.020257	NaN	0.000000	0.001629	0.001758	28.0821	0.061947	0.001866	33.1942	-63.8746	15.2266	0.010781	0.651340	-0.372016	-0.373385	-0.020257	33.1942	-0.371559	-52307.8	3.872589E-7	NaN
1207	1.000000	0.662705	7.37685e+06	-55239.1	1105.82	-29739.5	0.000000	0.000000	6.663011	0.052184	NaN	0.000000	0.001598	0.001751	28.0822	0.117915	0.001975	59.7046	72.7509	-165.029	0.058837	0.661340	-0.362020	-0.363384	0.052184	59.7046	-0.362675	-38948.8	-1.339799E-6	NaN
1207	1.000000	0.672733	7.37685e+06	-55239.1	1105.82	-29739.5	0.000000	0.000000	6.673035	-0.015629	NaN	0.000000	0.001610	0.001767	28.0822	0.014233	0.001998	7.124384	-158.051	15.6652	-0.059061	0.671352	-0.351992	-0.353373	-0.015629	7.124384	-0.350347	-25824.8	6.051798E-7	NaN
1207	1.000000	0.682734	7.37685e+06	-55239.1	1105.82	-29739.5	0.000000	0.000000	6.683041	0.069038	NaN	0.000000	0.001552	0.001776	28.0821	0.066637	0.001944	34.2722	116.788	-162.235	0.033670	0.681429	-0.341990	-0.343296	0.069038	34.2722	-0.343501	-20537.7	-3.361514E-6	NaN
1207	1.000000	0.692713	7.37685e+06	-55239.1	1105.82	-29739.5	0.000000	0.000000	6.693016	-0.012660	NaN	0.000000	0.001592	0.001776	28.0822	0.097439	0.001927	50.554	-140.67	14.2447	0.095937	0.691387	-0.332012	-0.333338	-0.012660	50.554	-0.331824	-13872.3	9.125983E-7	NaN
1207	1.000000	0.702688	7.37685e+06	-55239.1	1105.82	-29739.5	0.000000	0.000000	6.702995	0.087308	NaN	0.000000	0.001581	0.001802	28.0821	0.036834	0.001974	18.6596	-91.0981	-166.618	0.120833	0.701389	-0.322036	-0.323335	0.087308	18.6596	-0.325546	-11224	-7.778669E-6	NaN
1207	1.000000	0.712700	7.37685e+06	-55239.1	1105.82	-29739.5	0.000000	0.000000	6.713007	0.069153	NaN	0.000000	0.001524	0.001771	28.0823	0.047813	0.001973	24.2295	-102.737	13.6697	0.112542	0.711423	-0.312024	-0.313302	0.069153	24.2295	-0.314165	-7631.72	-9.061309E-6	NaN
1207	1.000000	0.722724	7.37685e+06	-55239.1	1105.82	-29739.5	0.000000	0.000000	6.723033	0.113977	NaN	0.000000	0.001558	0.001759	28.0821	0.003820	0.001980	1.929786	-96.6536	-167.528	0.117494	0.721432	-0.302000	-0.303293	0.113977	1.929786	-0.346297	-22553.4	-5.053646E-6	NaN
1207	1.000000	0.732725	7.37685e+06	-55239.1	1105.82	-29739.5	0.000000	0.000000	6.733030	0.039759	NaN	0.000000	0.001559	0.001753	28.0809	0.078255	0.002049	38.1912	-126.952	16.8172	-0.019196	0.731391	-0.292000	-0.293334	0.039759	38.1912	-0.292781	-3672.19	-1.082718E-5	NaN
1207	1.000000	0.742728	7.37685e+06	-55239.1	1105.82	-29739.5	0.000000	0.000000	6.743034	0.058614	NaN	0.000000	0.001532	0.001796	28.0811	0.039903	0.002099	19.0085	-118.47	-164.937	0.050910	0.741403	-0.281997	-0.283322	0.058614	19.0085	-0.284310	-2740.87	-2.138522E-5	NaN
1207	1.000000	0.752732	7.37685e+06	-55239.1	1105.82	-29739.5	0.000000	0.000000	6.753038	0.046878	NaN	0.000000	0.001556	0.001737	28.081	0.109138	0.002049	53.2761	56.6442	15.5654	0.128258	0.751380	-0.271992	-0.273345	0.046878	53.2761	-0.272652	-1827.34	-2.565358E-5	NaN
1207	1.000000	0.762733	7.37685e+06	-55239.1	1105.82	-29739.5	0.000000	0.000000	6.763036	-0.032917	NaN	0.000000	0.001555	0.001791	28.0809	0.011104	0.001976	5.618492	142.408	-166.772	0.011639	0.761432	-0.261991	-0.263292	-0.032917	5.618492	-0.257597	-1076.6	3.057451E-5	NaN
1207	1.000000	0.772741	7.37685e+06	-55239.1	1105.82	-29739.5	0.000000	0.000000	6.773045	0.010109	NaN	0.000000	0.001546	0.001793	28.0811	0.139457	0.002015	69.2121	94.3731	16.3674	-0.059460	0.771363	-0.251984	-0.253362	0.010109	69.2121	-0.252093	-885.741	-1.141327E-5	NaN
1207	1.000000	0.782751	7.37685e+06	-55239.1	1105.82	-29739.5	0.000000	0.000000	6.783056	0.030579	NaN	0.000000	0.001580	0.001778	28.0811	0.044569	0.002043	21.8201	-77.2383	-164.613	-0.027228	0.781482	-0.241974	-0.243243	0.030579	21.8201	-0.243025	-640.801	-4.772026E-5	NaN
1207	1.000000	0.792772	7.37685e+06	-55239.1	1105.82	-29739.5	0.000000	0.000000	6.793079	0.068962	NaN	0.000000	0.001568	0.001768	28.0811	0.054355	0.001915	28.388	83.9691	11.9013	0.060903	0.791369	-0.231952	-0.233356	0.068962	28.388	-0.233774	-459.187	-0.000150	NaN
1207	1.000000	0.802736	7.37685e+06	-55239.1	1105.82	-29739.5	0.000000	0.000000	6.803042	0.063887	NaN	0.000000	0.001550	0.001748	28.081	0.072959	0.002012	36.262	-152.823	-163.777	0.046547	0.801419	-0.221989	-0.223306	0.063887	36.262	-0.223310	-313.664	-0.000204	NaN
1207	1.000000	0.812773	7.37685e+06	-55239.1	1105.82	-29739.5	0.000000	0.000000	6.813078	0.046933	NaN	0.000000	0.001563	0.001724	28.0811	0.108605	0.001913	56.7836	1.396502	18.1785	0.087373	0.811410	-0.211952	-0.213314	0.046933	56.7836	-0.212572	-211.054	-0.000222	NaN
1207	1.000000	0.822748	7.37685e+06	-55239.1	1105.82	-29739.5	0.000000	0.000000	6.823055	0.086114	NaN	0.000000	0.001575	0.001753	28.0809	0.016772	0.002081	8.061044	29.1649	-166.327	0.071868	0.821484	-0.201977	-0.203241	0.086114	8.061044	-0.209989	-191.708	-0.000449	NaN
1207	1.000000	0.832726	7.37685e+06	-55239.1	1105.82	-29739.5	0.000000	0.000000	6.833033	0.069668	NaN	0.000000	0.001544	0.001704	28.0809	0.026250	0.002000	13.1266	166.021	16.5677	0.123699	0.831454	-0.191998	-0.193270	0.069668	13.1266	-0.195979	-113.085	-0.000616	NaN
1207	1.000000	0.842765	7.37685e+06	-55239.1	1105.82	-29739.5	0.000000	0.000000	6.843073	0.097167	NaN	0.000000	0.001585	0.001778	28.081	0.017586	0.002031	8.660049	72.3125	-164.296	0.039376	0.841542	-0.181960	-0.183183	0.097167	8.660049	-0.190375	-91.261	-0.001065	NaN
1207	1.000000	0.852800	7.37685e+06	-55239.1	1105.82	-29739.5	0.000000	0.000000	6.853105	0.025981	NaN	0.000000	0.001531	0.001730	28.0811	0.070014	0.001874	37.3636	20.1445	12.6375	-0.017119	0.851451	-0.171924	-0.173273	0.025981	37.3636	-0.172446	-45.2874	-0.000574	NaN
1207	1.000000	0.862805	7.37685e+06	-55239.1	1105.82	-29739.5	0.000000	0.000000	6.863108	-0.022468	NaN	0.000000	0.001550	0.001733	28.0809	0.046830	0.001993	23.4963	51.1822	-164.431	-0.043818	0.861464	-0.161920	-0.163261	-0.022468	23.4963	-0.161202	-28.7954	0.000780	NaN
1207	1.000000	0.872777	7.37685e+06	-55239.1	1105.82	-29739.5	0.000000	0.000000	6.873083	0.068677	NaN	0.000000	0.001607	0.001732	28.0822	0.149166	0.001929	77.3299	23.4284	13.6382	0.070702	0.871422	-0.151948	-0.153303	0.068677	77.3299	-0.152614	-20.2071	-0.003399	NaN
1207	1.000000	0.882789	7.37685e+06	-55239.1	1105.82	-29739.5	0.000000	0.000000	6.883096	0.081290	NaN	0.000000	0.001564	0.001755	28.0822	0.098435	0.002068	47.5992	-4.883133	-162.924	-0.014032	0.881471	-0.141936	-0.143254	0.081290	47.5992	-0.143217	-13.586	-0.005983	NaN
1207	1.000000	0.892755	7.37685e+06	-55239.1	1105.82	-29739.5	0.000000	0.000000	6.893062	0.087145	NaN	0.000000	0.001530	0.001728	28.0823	0.100713	0.001961	51.353	148.574	12.345	0.067370	0.891388	-0.131970	-0.133336	0.087145	51.353	-0.133242	-8.803081	-0.009899	NaN
1207	1.000000	0.902818	7.37685e+06	-55239.1	1105.82	-29739.5	0.000000	0.000000	6.903124	0.051456	NaN	0.000000	0.001549	0.001769	28.0821	0.077108	0.001983	38.8907	-152.579	-166.028	0.037927	0.901522	-0.121907	-0.123203	0.051456	38.8907	-0.122899	-5.523939	-0.009315	NaN
1207	1.000000	0.912797	7.37685e+06	-55239.1	1105.82	-29739.5	0.000000	0.000000	6.913100	-0.023062	NaN	0.000000	0.001551	0.001770	28.0821	0.095472	0.001982	48.1755	-127.886	15.7658	-0.068690	0.911412	-0.111928	-0.113312	-0.023062	48.1755	-0.111569	-3.242116	0.007113	NaN
1207	1.000000	0.922791	7.37685e+06	-55239.1	1105.82	-29739.5	0.000000	0.000000	6.923098	0.098111	NaN	0.000000	0.001534	0.001719	28.0822	0.030853	0.002012	15.3327	74.7286	-164.363	0.017802	0.921474	-0.101934	-0.103251	0.098111	15.3327	-0.106733	-2.561236	-0.038306	NaN
1207	1.000000	0.932797	7.37685e+06	-55239.1	1105.82	-29739.5	0.000000	0.000000	6.933104	0.087665	NaN	0.000000	0.001531	0.001754	28.0822	0.110472	0.002033	54.3319	107.392	13.723	0.132797	0.931491	-0.091928	-0.093234	0.087665	54.3319	-0.093138	-1.278700	-0.068558	NaN
1207	1.000000	0.942826	7.37685e+06	-55239.1	1105.82	-29739.5	0.000000	0.000000	6.943129	-0.002022	NaN	0.000000	0.001557	0.001753	28.0822	0.034340	0.002025	16.9556	-120.506	-169.408	-0.093812	0.941544	-0.081899	-0.083181	-0.002022	16.9556	-0.081810	-0.686543	0.002945	NaN
1207	1.000000	0.952808	7.37685e+06	-55239.1	1105.82	-29739.5	0.000000	0.000000	6.953114	0.050588	NaN	0.000000	0.001548	0.001799	28.0823	0.071834	0.001985	36.186	40.9712	15.0598	0.104925	0.951436	-0.071917	-0.073288	0.050588	36.186	-0.072965	-0.408793	-0.123750	NaN
1207	1.000000	0.962809	7.37685e+06	-55239.1	1105.82	-29739.5	0.000000	0.000000	6.963113	0.002915	NaN	0.000000	0.001570	0.001811	28.0823	0.112111	0.002049	54.7224	-143.078	-162.494	0.097630	0.961545	-0.061916	-0.063180	0.002915	54.7224	-0.061956	-0.204756	-0.014235	NaN
1207	1.000000	0.972832	7.37685e+06	-55239.1	1105.82	-29739.5	0.000000	0.000000	6.973137	0.035786	NaN	0.000000	0.001556	0.001804	28.0821	0.170739	0.002035	83.8817	-33.4808	13.3885	0.029143	0.971445	-0.051892	-0.053280	0.035786	83.8817	-0.052212	-0.106379	-0.336402	NaN
1207	1.000000	0.982838	7.37685e+06	-55239.1	1105.82	-29739.5	0.000000	0.000000	6.983146	0.088105	NaN	0.000000	0.001565	0.001763	28.082	0.120226	0.002014	59.7004	-70.6375	-165.57	-0.008576	0.981516	-0.041886	-0.043208	0.088105	59.7004	-0.042993	-0.055798	-1.578996	NaN
1207	1.000000	0.992833	7.37685e+06	-55239.1	1105.82	-29739.5	0.000000	0.000000	6.993139	0.053335	NaN	0.000000	0.001573	0.001737	28.0822	0.074439	0.002062	36.0919	25.3979	10.6683	0.105406	0.991477	-0.031891	-0.033248	0.053335	36.0919	-0.033000	-0.027998	-1.904969	NaN
1207	1.000000	1.002863	7.37685e+06	-55239.1	1105.82	-29739.5	0.000000	0.000000	7.003167	0.033266	NaN	0.000000	0.001566	0.001714	28.0816	0.031909	0.002059	15.4987	-47.5017	-163.824	-0.027167	1.001555	-0.021862	-0.023169	0.033266	15.4987	-0.023472	-0.015400	-2.160092	NaN
1207	1.000000	1.012842	7.37685e+06	-55239.1	1105.82	-29739.5	0.000000	0.000000	7.013151	0.113255	NaN	0.000000	0.001537	0.001778	28.0808	0.097385	0.001881	51.786	-22.3687	14.065	0.078806	1.011496	-0.011882	-0.013229	0.113255	51.786	-0.013523	-0.008405	-13.475	NaN
1207	1.000000	1.022846	7.37685e+06	-55239.1	1105.82	-29739.5	0.000000	0.000000	7.023153	0.068650	NaN	0.000000	0.001572	0.001767	28.0809	0.047256	0.001903	24.8385	-113.714	-166.67	0.044286	1.021586	-0.001878	-0.003138	0.068650	24.8385	-0.003951	-0.002747	-24.9883	NaN
1207	1.000000	1.032850	7.37685e+06	-55239.1	1105.82	-29739.5	0.000000	0.000000	7.033156	0.069608	NaN	0.000000	0.001572	0.001744	28.0811	0.105527	0.002091	50.4562	-88.102	12.3128	0.069014	1.031511	0.008125	0.006786	0.069608	50.4562	0.007091	0.006124	11.3673	589.095
1207	1.000000	1.042882	7.37685e+06	-55239.1	1105.82	-29739.5	0.000000	0.000000	7.043189	0.072296	NaN	0.000000	0.001558	0.001754	28.0809	0.121516	0.001938	62.6859	9.302601	-163.939	0.061955	1.041541	0.018158	0.016816	0.072296	62.6859	0.017293	0.018465	3.915222	421.468
1207	1.000000	1.052867	7.37685e+06	-55239.1	1105.82	-29739.5	0.000000	0.000000	7.053171	0.022864	NaN	0.000000	0.001529	0.001708	28.0807	0.080762	0.002009	40.2087	51.4175	12.5573	0.041845	1.051506	0.028142	0.026781	0.022864	40.2087	0.027716	0.036142	0.632625	193.236
1207	1.000000	1.062867	7.37685e+06	-55239.1	1105.82	-29739.5	0.000000	0.000000	7.063175	0.108472	NaN	0.000000	0.001537	0.001755	28.0809	0.129518	0.001954	66.2915	-29.2901	-166.11	-0.012863	1.061527	0.038143	0.036802	0.108472	66.2915	0.036916	0.056300	1.926670	255.256
1207	1.000000	1.072879	7.37685e+06	-55239.1	1105.82	-29739.5	0.000000	0.000000	7.073184	0.027248	NaN	0.000000	0.001568	0.001779	28.0811	0.066275	0.002063	32.1254	172.604	15.7649	-0.003161	1.071442	0.048154	0.046717	0.027248	32.1254	0.047518	0.084897	0.320956	100.734
1207	1.000000	1.082884	7.37685e+06	-55239.1	1105.82	-29739.5	0.000000	0.000000	7.083191	0.100207	NaN	0.000000	0.001573	0.001766	28.081	0.091714	0.002052	44.7051	165.743	-162.458	0.130257	1.081548	0.058159	0.056823	0.100207	44.7051	0.056478	0.113481	0.883029	121.246
1207	1.000000	1.092877	7.37685e+06	-55239.1	1105.82	-29739.5	0.000000	0.000000	7.093183	0.046035	NaN	0.000000	0.001576	0.001745	28.081	0.157601	0.001905	82.7216	-49.3763	15.718	-0.011017	1.091466	0.068153	0.066741	0.046035	82.7216	0.067735	0.154998	0.297002	191.968
1207	1.000000	1.102848	7.37685e+06	-55239.1	1105.82	-29739.5	0.000000	0.000000	7.103155	0.095137	NaN	0.000000	0.001586	0.001765	28.081	0.080885	0.002063	39.213	-26.3653	-165.64	0.137089	1.101575	0.078123	0.076850	0.095137	39.213	0.076303	0.190671	0.498959	82.0467
1207	1.000000	1.112883	7.37685e+06	-55239.1	1105.82	-29739.5	0.000000	0.000000	7.113188	0.043237	NaN	0.000000	0.001619	0.001752	28.0811	0.134220	0.002118	63.3821	128.919	15.0453	0.116932	1.111532	0.088158	0.086807	0.043237	63.3821	0.087646	0.243188	0.177794	117.427
1207	1.000000	1.122898	7.37685e+06	-55239.1	1105.82	-29739.5	0.000000	0.000000	7.123206	0.111315	NaN	0.000000	0.001567	0.001745	28.081	0.080957	0.001982	40.8514	9.534087	-171.427	0.227301	1.121612	0.098173	0.096887	0.111315	40.8514	0.096129	0.286339	0.388754	69.7493
1207	1.000000	1.132869	7.37685e+06	-55239.1	1105.82	-29739.5	0.000000	0.000000	7.133174	0.042248	NaN	0.000000	0.001593	0.001714	28.0811	0.069305	0.001997	34.7071	-49.4044	11.7667	0.104688	1.131490	0.108144	0.106765	0.042248	34.7071	0.107231	0.347764	0.121486	53.7711
1207	1.000000	1.142883	7.37685e+06	-55239.1	1105.82	-29739.5	0.000000	0.000000	7.143191	0.104187	NaN	0.000000	0.001600	0.001725	28.0826	0.099296	0.001856	53.5068	46.1359	-164.041	0.098651	1.141603	0.118158	0.116878	0.104187	53.5068	0.116698	0.404563	0.257531	76.8581
1207	1.000000	1.152865	7.37685e+06	-55239.1	1105.82	-29739.5	0.000000	0.000000	7.153171	0.058437	NaN	0.000000	0.001599	0.001730	28.0823	0.073915	0.002084	35.4661	69.0053	16.2565	-0.074969	1.151536	0.128141	0.126811	0.058437	35.4661	0.126905	0.470357	0.124239	47.2469
1207	1.000000	1.162910	7.37685e+06	-55239.1	1105.82	-29739.5	0.000000	0.000000	7.163214	0.011447	NaN	0.000000	0.001611	0.001766	28.0823	0.179060	0.002005	89.3162	78.2495	-167.432	0.024103	1.161579	0.138185	0.136854	0.011447	89.3162	0.138089	0.547907	0.020891	110.243
1207	1.000000	1.172937	7.37685e+06	-55239.1	1105.82	-29739.5	0.000000	0.000000	7.173246	0.150513	NaN	0.000000	0.001652	0.001753	28.0823	0.207001	0.002035	101.719	14.4934	14.2397	0.219686	1.171570	0.148212	0.146845	0.150513	101.719	0.147102	0.614592	0.244898	118.545
1207	1.000000	1.182922	7.37685e+06	-55239.1	1105.82	-29739.5	0.000000	0.000000	7.183237	0.267992	NaN	0.000000	0.001604	0.001754	28.0824	0.231006	0.002011	114.859	10.0059	-167.909	0.264103	1.181553	0.158198	0.156828	0.267992	114.859	0.156448	0.687720	0.389682	126.542
1207	1.000000	1.192921	7.37685e+06	-55239.1	1105.82	-29739.5	0.000000	0.000000	7.193242	0.410122	NaN	0.000000	0.001614	0.001767	28.0821	0.305754	0.002015	151.752	26.4268	11.6886	0.344706	1.191480	0.168197	0.166755	0.410122	151.752	0.166170	0.768144	0.533913	158.193
1207	1.000000	1.202947	7.37685e+06	-55239.1	1105.82	-29739.5	0.000000	0.000000	7.203277	0.626252	NaN	0.000000	0.001613	0.001770	28.0823	0.364653	0.002038	178.904	19.4513	-165.802	0.539493	1.201609	0.178223	0.176885	0.626252	178.904	0.175597	0.850417	0.736406	177.246
1207	1.000000	1.212899	7.37685e+06	-55239.1	1105.82	-29739.5	0.000000	0.000000	7.213397	4.711855	NaN	0.000000	0.001608	0.001744	28.083	3.955264	0.001806	2189.75	13.7975	8.864946	3.266316	1.211497	0.188175	0.186773	4.711855	2189.75	0.186561	0.951461	4.952232	2051.04
1207	2.000000	1.218461	7.37685e+06	-55239.1	1105.82	-29739.5	0.000000	0.000000	7.219217	11.0001	NaN	0.000000	0.001604	0.001720	28.0823	5.912297	0.001848	3198.85	8.497333	-170.331	10.9458	1.218187	0.193736	0.193462	11.0001	3198.85	0.191157	0.995555	11.0492	2929.1
1207	2.000000	1.220946	7.37685e+06	-55239.1	1105.82	-29739.5	0.000000	0.000000	7.221818	13.8214	NaN	0.000000	0.001564	0.001707	28.0826	6.477420	0.001971	3287.12	5.107853	13.0344	13.4085	1.220583	0.196221	0.195858	13.8214	3287.12	0.193067	1.014184	13.6281	2982.15
1207	2.000000	1.223408	7.37685e+06	-55239.1	1105.82	-29739.5	0.000000	0.000000	7.224399	16.7068	NaN	0.000000	0.001550	0.001770	28.0819	7.015943	0.001889	3713.67	6.058582	-169.194	16.4534	1.223086	0.198683	0.198361	16.7068	3713.67	0.195309	1.036272	16.122	3333.04
1207	2.000000	1.225905	7.37685e+06	-55239.1	1105.82	-29739.5	0.000000	0.000000	7.227014	19.5687	NaN	0.000000	0.001534	0.001749	28.083	7.469493	0.001914	3902.21	7.146767	9.349206	19.2145	1.225594	0.201180	0.200869	19.5687	3902.21	0.197419	1.057289	18.5083	3467.26
1207	2.000000	1.228384	7.37685e+06	-55239.1	1105.82	-29739.5	0.000000	0.000000	7.229616	22.5689	NaN	0.000000	0.001548	0.001753	28.0821	8.126678	0.001966	4132.72	6.433847	-171.076	22.2373	1.228052	0.203659	0.203327	22.5689	4132.72	0.199563	1.078871	20.919	3635.17
1207	2.000000	1.230894	7.37685e+06	-55239.1	1105.82	-29739.5	0.000000	0.000000	7.232219	24.8418	NaN	0.000000	0.001550	0.001775	28.0823	8.451096	0.001945	4345.49	7.518888	8.975743	24.2766	1.230532	0.206169	0.205808	24.8418	4345.49	0.201882	1.102458	22.5331	3781.21
1207	2.000000	1.233392	7.37685e+06	-55239.1	1105.82	-29739.5	0.000000	0.000000	7.234856	28.2203	NaN	0.000000	0.001572	0.001698	28.0811	8.620440	0.001966	4385.65	3.718028	-169.302	27.9609	1.233050	0.208667	0.208325	28.2203	4385.65	0.203841	1.122601	25.1383	3781.76
1207	2.000000	1.235872	7.37685e+06	-55239.1	1105.82	-29739.5	0.000000	0.000000	7.237456	31.1173	NaN	0.000000	0.001580	0.001725	28.0814	9.216647	0.002019	4564.5	8.158604	8.259131	30.8427	1.235503	0.211148	0.210778	31.1173	4564.5	0.206035	1.145376	27.1677	3896.66
1207	2.000000	1.238357	7.37685e+06	-55239.1	1105.82	-29739.5	0.000000	0.000000	7.240091	34.7733	NaN	0.000000	0.001582	0.001775	28.081	9.500913	0.001969	4826.15	8.501347	-173.021	34.322	1.238018	0.213632	0.213293	34.7733	4826.15	0.208229	1.168392	29.7617	4079.24
1207	2.000000	1.240850	7.37685e+06	-55239.1	1105.82	-29739.5	0.000000	0.000000	7.242665	36.7414	NaN	0.000000	0.001597	0.001745	28.0815	9.962478	0.001893	5264.12	7.916991	5.830437	36.4908	1.240492	0.216125	0.215767	36.7414	5264.12	0.210890	1.196638	30.7038	4396.61
1207	2.000000	1.243334	7.37685e+06	-55239.1	1105.82	-29739.5	0.000000	0.000000	7.245296	40.3139	NaN	0.000000	0.001619	0.001745	28.0808	10.7067	0.002075	5159.66	8.831024	-173.31	39.5857	1.243042	0.218609	0.218317	40.3139	5159.66	0.212749	1.216574	33.1372	4273.91
1207	2.000000	1.245838	7.37685e+06	-55239.1	1105.82	-29739.5	0.000000	0.000000	7.247933	43.5524	NaN	0.000000	0.001619	0.001762	28.0823	10.7931	0.002035	5303.59	8.155891	6.747760	42.6703	1.245486	0.221113	0.220762	43.5524	5303.59	0.214955	1.240448	35.1102	4350.65
1207	2.000000	1.248363	7.37685e+06	-55239.1	1105.82	-29739.5	0.000000	0.000000	7.250593	46.8286	NaN	0.000000	0.001646	0.001754	28.0809	10.7634	0.001862	5782.02	6.095249	-173.603	46.3441	1.248048	0.223639	0.223324	46.8286	5782.02	0.217564	1.269015	36.9016	4689.43
1207	2.000000	1.250863	7.37685e+06	-55239.1	1105.82	-29739.5	0.000000	0.000000	7.253207	49.6022	NaN	0.000000	0.001678	0.001738	28.081	11.5512	0.001946	5934.51	5.872166	8.199483	49.4298	1.250531	0.226138	0.225806	49.6022	5934.51	0.219870	1.294532	38.3167	4765.43
1207	2.000000	1.253359	7.37685e+06	-55239.1	1105.82	-29739.5	0.000000	0.000000	7.255860	53.4257	NaN	0.000000	0.001664	0.001783	28.081	11.9183	0.002003	5950.11	5.698248	-170.843	53.0236	1.253078	0.228634	0.228353	53.4257	5950.11	0.221900	1.317226	40.5592	4736.61
1207	2.000000	1.255843	7.37685e+06	-55239.1	1105.82	-29739.5	0.000000	0.000000	7.258561	58.688	NaN	0.000000	0.001659	0.001718	28.0813	12.6246	0.002000	6312.51	8.197159	4.553826	58.1357	1.255492	0.231118	0.230767	58.688	6312.51	0.224145	1.342560	43.7135	4977.46
1207	2.000000	1.258327	7.37685e+06	-55239.1	1105.82	-29739.5	0.000000	0.000000	7.261202	62.5123	NaN	0.000000	0.001670	0.001731	28.0811	13.0662	0.001894	6897.66	9.682058	-177.579	62.1246	1.257991	0.233603	0.233267	62.5123	6897.66	0.226806	1.372909	45.5328	5378.42
1207	2.000000	1.260817	7.37685e+06	-55239.1	1105.82	-29739.5	0.000000	0.000000	7.263829	65.8318	NaN	0.000000	0.001658	0.001754	28.0811	12.6182	0.001905	6624.66	5.254108	7.288487	65.5147	1.260549	0.236092	0.235825	65.8318	6624.66	0.228639	1.394034	47.224	5126.26
1207	2.000000	1.263366	7.37685e+06	-55239.1	1105.82	-29739.5	0.000000	0.000000	7.266587	70.9416	NaN	0.000000	0.001650	0.001756	28.0811	13.7504	0.001987	6919.99	7.065752	-173.684	71.0766	1.263011	0.238641	0.238286	70.9416	6919.99	0.230952	1.420923	49.9264	5303.87
1207	2.000000	1.265845	7.37685e+06	-55239.1	1105.82	-29739.5	0.000000	0.000000	7.269239	75.1152	NaN	0.000000	0.001635	0.001735	28.0818	14.4946	0.001991	7280.43	8.670936	4.408711	74.6702	1.265473	0.241121	0.240748	75.1152	7280.43	0.233382	1.449470	51.8225	5524.92
1207	2.000000	1.268309	7.37685e+06	-55239.1	1105.82	-29739.5	0.000000	0.000000	7.271917	80.322	NaN	0.000000	0.001572	0.001754	28.0822	15.0374	0.001972	7623.97	8.792635	-176.539	79.9462	1.268025	0.243584	0.243301	80.322	7623.97	0.235683	1.476761	54.3907	5731.91
1207	2.000000	1.270867	7.37685e+06	-55239.1	1105.82	-29739.5	0.000000	0.000000	7.274613	83.6738	NaN	0.000000	0.001579	0.001731	28.082	15.5094	0.001953	7943.23	10.3978	1.483417	83.5983	1.270528	0.246142	0.245803	83.6738	7943.23	0.238242	1.507444	55.5071	5910.85
1207	2.000000	1.273327	7.37685e+06	-55239.1	1105.82	-29739.5	0.000000	0.000000	7.277306	89.3483	NaN	0.000000	0.001580	0.001725	28.0823	15.776	0.001993	7916.96	7.930057	-174.836	89.2813	1.273050	0.248602	0.248325	89.3483	7916.96	0.240138	1.530390	58.3827	5846.97
1207	2.000000	1.275835	7.37685e+06	-55239.1	1105.82	-29739.5	0.000000	0.000000	7.280026	94.4945	NaN	0.000000	0.001596	0.001782	28.0821	16.0645	0.001903	8443.41	4.744093	7.756974	93.9658	1.275464	0.251110	0.250739	94.4945	8443.41	0.242716	1.561884	60.5003	6172.58
1207	2.000000	1.278314	7.37685e+06	-55239.1	1105.82	-29739.5	0.000000	0.000000	7.282751	100.462	NaN	0.000000	0.001570	0.001733	28.082	16.9047	0.001859	9093.34	8.309327	-176.413	100.286	1.278067	0.253590	0.253342	100.462	9093.34	0.245304	1.593828	63.0319	6580.76
1207	2.000000	1.280819	7.37685e+06	-55239.1	1105.82	-29739.5	0.000000	0.000000	7.285489	106.156	NaN	0.000000	0.001558	0.001758	28.0821	17.5354	0.001867	9390.36	6.192951	4.151355	105.439	1.280445	0.256094	0.255721	106.156	9390.36	0.247615	1.622656	65.4215	6735.07
1207	2.000000	1.283305	7.37685e+06	-55239.1	1105.82	-29739.5	0.000000	0.000000	7.288180	111.112	NaN	0.000000	0.001572	0.001740	28.0823	18.9457	0.001998	9480.37	7.462151	-176.258	111.298	1.283019	0.258581	0.258294	111.112	9480.37	0.249790	1.650034	67.3395	6742.98
1207	2.000000	1.285841	7.37685e+06	-55239.1	1105.82	-29739.5	0.000000	0.000000	7.290930	116.324	NaN	0.000000	0.001562	0.001712	28.082	19.5724	0.002051	9543.83	9.573502	1.287947	116.171	1.285515	0.261117	0.260791	116.324	9543.83	0.251975	1.677776	69.3325	6731.77
1207	2.000000	1.288267	7.37685e+06	-55239.1	1105.82	-29739.5	0.000000	0.000000	7.293668	123.899	NaN	0.000000	0.001599	0.001730	28.082	20.0172	0.001968	10172.8	5.732716	-174.245	122.883	1.287987	0.263543	0.263262	123.899	10172.8	0.254408	1.708952	72.5	7109.66
1207	2.000000	1.290833	7.37685e+06	-55239.1	1105.82	-29739.5	0.000000	0.000000	7.296510	130.615	NaN	0.000000	0.001567	0.001741	28.0821	21.1818	0.002022	10476	8.311640	1.605457	129.682	1.290426	0.266108	0.265701	130.615	10476	0.256757	1.739347	75.0945	7257.3
1207	2.000000	1.293316	7.37685e+06	-55239.1	1105.82	-29739.5	0.000000	0.000000	7.299185	135.289	NaN	0.000000	0.001570	0.001755	28.0822	21.8618	0.001961	11145.4	9.786102	-179.204	135.277	1.293021	0.268591	0.268296	135.289	11145.4	0.259488	1.775026	76.218	7643.07
1207	2.000000	1.295818	7.37685e+06	-55239.1	1105.82	-29739.5	0.000000	0.000000	7.302013	143.219	NaN	0.000000	0.001571	0.001727	28.0821	22.2686	0.001934	11516.3	8.597656	0.432762	142.225	1.295401	0.271094	0.270677	143.219	11516.3	0.261766	1.805100	79.3412	7831.34
1207	2.000000	1.298274	7.37685e+06	-55239.1	1105.82	-29739.5	0.000000	0.000000	7.304782	150.83	NaN	0.000000	0.001573	0.001713	28.082	22.5161	0.001874	12018.1	6.180994	-176.818	149.313	1.297921	0.273549	0.273196	150.83	12018.1	0.264137	1.836661	82.1219	8102.04
1207	2.000000	1.300766	7.37685e+06	-55239.1	1105.82	-29739.5	0.000000	0.000000	7.307548	157.483	NaN	0.000000	0.001560	0.001723	28.081	23.0394	0.001930	11936.2	5.153878	3.711169	155.57	1.300419	0.276042	0.275695	157.483	11936.2	0.266146	1.863650	84.5026	7988.36
1207	2.000000	1.303265	7.37685e+06	-55239.1	1105.82	-29739.5	0.000000	0.000000	7.310323	164.18	NaN	0.000000	0.001578	0.001741	28.0808	24.3603	0.002012	12106.7	8.290411	-179.146	163.319	1.302966	0.278541	0.278241	164.18	12106.7	0.268370	1.893751	86.6958	8037.79
1207	2.000000	1.305762	7.37685e+06	-55239.1	1105.82	-29739.5	0.000000	0.000000	7.313190	173.182	NaN	0.000000	0.001606	0.001763	28.0808	24.9634	0.001848	13507.2	8.680424	-1.643535	171.927	1.305442	0.281037	0.280717	173.182	13507.2	0.271421	1.935472	89.4781	8870.46
1207	2.000000	1.308279	7.37685e+06	-55239.1	1105.82	-29739.5	0.000000	0.000000	7.315992	180.128	NaN	0.000000	0.001557	0.001751	28.0808	25.5178	0.001922	13278.9	9.168739	178.953	179.694	1.307951	0.283554	0.283226	180.128	13278.9	0.273380	1.962512	91.7842	8660.23
1207	2.000000	1.310755	7.37685e+06	-55239.1	1105.82	-29739.5	0.000000	0.000000	7.318685	185.383	NaN	0.000000	0.001542	0.001764	28.081	26.3785	0.002000	13188.3	6.424781	1.794799	184.089	1.310483	0.286031	0.285759	185.383	13188.3	0.275488	1.991831	93.0717	8537.62
1207	2.000000	1.313287	7.37685e+06	-55239.1	1105.82	-29739.5	0.000000	0.000000	7.321557	193.653	NaN	0.000000	0.001619	0.001751	28.0808	26.4021	0.001919	13755	6.395176	-178.481	193.661	1.313015	0.288562	0.288290	193.653	13755	0.278003	2.027110	95.5318	8826.64
1207	2.000000	1.315301	7.37685e+06	-55239.1	1105.82	-29739.5	0.000000	0.000000	7.323899	201.634	NaN	0.000000	0.001584	0.001814	28.0808	27.5059	0.001920	14324.7	9.742485	177.016	201.962	1.314943	0.290576	0.290218	201.634	14324.7	0.280019	2.055627	98.0889	9128.21