File: remote_trans/data/nanoindenter/0828-1/data/Data_2025-08-06,11h17m57s/2025-07-22_16-23-58_1_756.txt
2025-07-22, 16:23:58, 1
Index	Phase	Displacement	Time	Pos X	Pos Y	Pos Z	Rot A	Rot B	Piezo Z	Force A	Force B	Gripper	Voltage A	Voltage B	Temperature	Amplitude force	Amplitude pos	Stiffness	Phase shift	Phase excitation	Force A raw	Displacement raw	HMax	HMax raw	Real Force	Real Stiffness	Contact Depth	Area	Hardness	Reduced Mod.
[#]	[#]	[um]	[s]	[um]	[um]	[um]	[m°]	[m°]	[um]	[uN]	[uN]	[V]	[V]	[V]	[°C]	[uN]	[um]	[N/m]	[°]	[°]	[uN]	[um]	[um]	[um]	[uN]	[N/m]	[um]	[um^2]	[MPa]	[MPa]
756	1.000000	0.002748	7.37245e+06	-39289.1	1005.82	-29794.4	0.000000	0.000000	6.002818	0.008903	NaN	0.000000	0.001697	0.001683	28.0801	0.120639	0.000965	125.025	86.5409	-164.446	0.005558	0.001444	-1.112829	-1.114132	0.008903	125.025	-1.112882	-7.463851E+14	-1.192831E-17	NaN
756	1.000000	0.012781	7.37245e+06	-39289.1	1005.82	-29794.3	0.000000	0.000000	6.012849	-0.034466	NaN	0.000000	0.001651	0.001722	28.0798	0.026215	0.001340	19.5628	-160.162	17.154	-0.021221	0.011352	-1.102796	-1.104225	-0.034466	19.5628	-1.101474	-5.246344E+14	6.569445E-17	NaN
756	1.000000	0.022665	7.37245e+06	-39289.1	1005.82	-29794.4	0.000000	0.000000	6.022733	-0.027007	NaN	0.000000	0.001599	0.001735	28.08	0.133465	0.001753	76.1302	-111.307	-166.071	0.011011	0.021351	-1.092912	-1.094225	-0.027007	76.1302	-1.092646	-3.993341E+14	6.763037E-17	NaN
756	1.000000	0.032668	7.37245e+06	-39289.1	1005.82	-29794.4	0.000000	0.000000	6.032734	-0.089117	NaN	0.000000	0.001595	0.001769	28.0798	0.079138	0.001926	41.0976	55.3903	12.1529	-0.127862	0.031320	-1.082908	-1.084257	-0.089117	41.0976	-1.081282	-2.810215E+14	3.171171E-16	NaN
756	1.000000	0.042694	7.37245e+06	-39289.1	1005.82	-29794.4	0.000000	0.000000	6.042762	-0.021403	NaN	0.000000	0.001639	0.001766	28.0801	0.073536	0.002105	34.9309	-126.94	-166.973	-0.014562	0.041354	-1.072883	-1.074222	-0.021403	34.9309	-1.072423	-2.136692E+14	1.001667E-16	NaN
756	1.000000	0.052658	7.37245e+06	-39289.1	1005.82	-29794.4	0.000000	0.000000	6.052730	0.051629	NaN	0.000000	0.001603	0.001748	28.081	0.088650	0.001963	45.1589	80.3993	13.1298	-0.012048	0.051279	-1.062918	-1.064298	0.051629	45.1589	-1.063776	-1.635156E+14	-3.157459E-16	NaN
756	1.000000	0.062686	7.37245e+06	-39289.1	1005.82	-29794.4	0.000000	0.000000	6.062756	0.012290	NaN	0.000000	0.001606	0.001752	28.081	0.109266	0.001934	56.4981	72.3947	-165.733	0.033740	0.061394	-1.052891	-1.054182	0.012290	56.4981	-1.053054	-1.173453E+14	-1.047360E-16	NaN
756	1.000000	0.072693	7.37245e+06	-39289.1	1005.82	-29794.4	0.000000	0.000000	6.072762	-0.017327	NaN	0.000000	0.001605	0.001768	28.081	0.057369	0.002001	28.6692	-172.964	19.1082	0.065313	0.071373	-1.042883	-1.044203	-0.017327	28.6692	-1.042430	-8.445813E+13	2.051599E-16	NaN
756	1.000000	0.082717	7.37245e+06	-39289.1	1005.82	-29794.4	0.000000	0.000000	6.082785	-0.025676	NaN	0.000000	0.001564	0.001726	28.0812	0.071222	0.002082	34.2105	20.8314	-166.238	-0.093231	0.081374	-1.032860	-1.034203	-0.025676	34.2105	-1.032297	-6.171238E+13	4.160643E-16	NaN
756	1.000000	0.092702	7.37245e+06	-39289.1	1005.82	-29794.4	0.000000	0.000000	6.092771	-0.000292	NaN	0.000000	0.001589	0.001756	28.0811	0.039140	0.002043	19.1564	-121.405	15.6281	-0.042284	0.091360	-1.022875	-1.024217	-0.000292	19.1564	-1.022863	-4.607585E+13	6.347277E-18	NaN
756	1.000000	0.102687	7.37245e+06	-39289.1	1005.82	-29794.4	0.000000	0.000000	6.102757	0.006888	NaN	0.000000	0.001605	0.001771	28.0812	0.034944	0.002010	17.3874	103.758	-163.734	-0.002086	0.101395	-1.012889	-1.014181	0.006888	17.3874	-1.013187	-3.414034E+13	-2.017550E-16	NaN
756	1.000000	0.112724	7.37245e+06	-39289.1	1005.82	-29794.3	0.000000	0.000000	6.112795	0.032578	NaN	0.000000	0.001607	0.001758	28.0814	0.072243	0.001966	36.7501	39.4992	17.0731	0.034547	0.111344	-1.002852	-1.004233	0.032578	36.7501	-1.003517	-2.529997E+13	-1.287676E-15	NaN
756	1.000000	0.122722	7.37245e+06	-39289.1	1005.82	-29794.4	0.000000	0.000000	6.122790	-0.037481	NaN	0.000000	0.001585	0.001764	28.081	0.062880	0.001940	32.406	115.565	-166.276	-0.046822	0.121392	-0.992855	-0.994185	-0.037481	32.406	-0.991987	-1.769607E+13	2.118021E-15	NaN
756	1.000000	0.132708	7.37245e+06	-39289.1	1005.82	-29794.4	0.000000	0.000000	6.132778	0.021687	NaN	0.000000	0.001602	0.001756	28.081	0.054106	0.002064	26.2139	-34.4892	13.5332	-0.090288	0.131320	-0.982869	-0.984257	0.021687	26.2139	-0.983489	-1.359621E+13	-1.595112E-15	NaN
756	1.000000	0.142724	7.37245e+06	-39289.1	1005.82	-29794.3	0.000000	0.000000	6.142795	0.024872	NaN	0.000000	0.001610	0.001735	28.081	0.007470	0.002000	3.734835	119.834	-164.226	-0.030799	0.141464	-0.972852	-0.974113	0.024872	3.734835	-0.977847	-1.141303E+13	-2.179296E-15	NaN
756	1.000000	0.152757	7.37245e+06	-39289.1	1005.82	-29794.3	0.000000	0.000000	6.152830	0.074607	NaN	0.000000	0.001598	0.001758	28.0815	0.063299	0.002051	30.8689	-102.815	12.7631	0.007819	0.151360	-0.962819	-0.964217	0.074607	30.8689	-0.964632	-7.573703E+12	-9.850806E-15	NaN
756	1.000000	0.162746	7.37245e+06	-39289.1	1005.82	-29794.4	0.000000	0.000000	6.162816	-0.005473	NaN	0.000000	0.001617	0.001716	28.0812	0.114218	0.001961	58.2562	-5.376250	-162.693	-0.015985	0.161408	-0.952830	-0.954169	-0.005473	58.2562	-0.952760	-5.238941E+12	1.044584E-15	NaN
756	1.000000	0.172705	7.37245e+06	-39289.1	1005.82	-29794.3	0.000000	0.000000	6.172770	-0.093880	NaN	0.000000	0.001593	0.001761	28.0812	0.041826	0.001914	21.8526	130.826	14.9279	-0.063571	0.171390	-0.942872	-0.944186	-0.093880	21.8526	-0.939650	-3.486702E+12	2.692520E-14	NaN
756	1.000000	0.182742	7.37245e+06	-39289.1	1005.82	-29794.3	0.000000	0.000000	6.182810	-0.029693	NaN	0.000000	0.001621	0.001777	28.0813	0.053196	0.002031	26.1947	23.2249	-167.271	0.017300	0.181398	-0.932835	-0.934178	-0.029693	26.1947	-0.931984	-2.747761E+12	1.080613E-14	NaN
756	1.000000	0.192701	7.37245e+06	-39289.1	1005.82	-29794.4	0.000000	0.000000	6.192769	-0.020830	NaN	0.000000	0.001631	0.001769	28.0802	0.037692	0.002087	18.0592	98.6707	12.7621	-0.024170	0.191417	-0.922876	-0.924160	-0.020830	18.0592	-0.922011	-2.015371E+12	1.033541E-14	NaN
756	1.000000	0.202741	7.37245e+06	-39289.1	1005.82	-29794.4	0.000000	0.000000	6.202811	0.003221	NaN	0.000000	0.001620	0.001765	28.0801	0.035840	0.002059	17.4036	-154.763	-164.731	-0.024893	0.201386	-0.912835	-0.914191	0.003221	17.4036	-0.912974	-1.521712E+12	-2.116582E-15	NaN
756	1.000000	0.212763	7.37245e+06	-39289.1	1005.82	-29794.4	0.000000	0.000000	6.212833	0.031561	NaN	0.000000	0.001572	0.001812	28.0801	0.068966	0.001917	35.9774	113.485	13.7535	-0.015982	0.211338	-0.902814	-0.904238	0.031561	35.9774	-0.903472	-1.132330E+12	-2.787243E-14	NaN
756	1.000000	0.222754	7.37245e+06	-39289.1	1005.82	-29794.4	0.000000	0.000000	6.222826	0.056051	NaN	0.000000	0.001598	0.001782	28.0801	0.023124	0.002053	11.2642	105.104	-168.829	0.067246	0.221471	-0.892822	-0.894106	0.056051	11.2642	-0.896554	-9.130741E+11	-6.138699E-14	NaN
756	1.000000	0.232779	7.37245e+06	-39289.1	1005.82	-29794.3	0.000000	0.000000	6.232851	0.078197	NaN	0.000000	0.001609	0.001756	28.0799	0.087612	0.001946	45.0322	-79.0328	14.5258	0.125150	0.231372	-0.882798	-0.884204	0.078197	45.0322	-0.884100	-6.196593E+11	-1.261942E-13	NaN
756	1.000000	0.242726	7.37245e+06	-39289.1	1005.82	-29794.3	0.000000	0.000000	6.242793	-0.045900	NaN	0.000000	0.001613	0.001787	28.0798	0.101398	0.001977	51.2921	95.8924	-167.061	0.067758	0.241440	-0.872851	-0.874137	-0.045900	51.2921	-0.872180	-4.274948E+11	1.073700E-13	NaN
756	1.000000	0.252762	7.37245e+06	-39289.1	1005.82	-29794.4	0.000000	0.000000	6.252832	0.018928	NaN	0.000000	0.001621	0.001776	28.08	0.112477	0.001983	56.7132	-115.694	14.3759	0.015251	0.251399	-0.862815	-0.864177	0.018928	56.7132	-0.863065	-3.218162E+11	-5.881650E-14	NaN
756	1.000000	0.262730	7.37245e+06	-39289.1	1005.82	-29794.4	0.000000	0.000000	6.262800	6.068923E-5	NaN	0.000000	0.001600	0.001827	28.0802	0.072460	0.001995	36.3273	-114.676	-164.366	-0.097600	0.261433	-0.852846	-0.854144	6.068923E-5	36.3273	-0.852848	-2.340430E+11	-2.593081E-16	NaN
756	1.000000	0.272743	7.37245e+06	-39289.1	1005.82	-29794.4	0.000000	0.000000	6.272814	0.030022	NaN	0.000000	0.001587	0.001836	28.0801	0.121600	0.001955	62.188	-133.901	9.834453	0.035264	0.271376	-0.842833	-0.844201	0.030022	62.188	-0.843195	-1.732117E+11	-1.733250E-13	NaN
756	1.000000	0.282775	7.37245e+06	-39289.1	1005.82	-29794.3	0.000000	0.000000	6.282845	0.018171	NaN	0.000000	0.001603	0.001875	28.0801	0.127792	0.001926	66.3526	113.44	-164.038	0.032746	0.281497	-0.832802	-0.834079	0.018171	66.3526	-0.833007	-1.260505E+11	-1.441528E-13	NaN
756	1.000000	0.292782	7.37245e+06	-39289.1	1005.82	-29794.4	0.000000	0.000000	6.292851	0.004980	NaN	0.000000	0.001646	0.001856	28.0801	0.129949	0.001952	66.5743	-47.865	15.13	-0.010042	0.291404	-0.822795	-0.824173	0.004980	66.5743	-0.822851	-9.180536E+10	-5.424805E-14	NaN
756	1.000000	0.302790	7.37245e+06	-39289.1	1005.82	-29794.3	0.000000	0.000000	6.302859	-0.016907	NaN	0.000000	0.001654	0.001858	28.0799	0.084327	0.002033	41.473	-147.699	-165.757	-0.048937	0.301424	-0.812787	-0.814153	-0.016907	41.473	-0.812481	-6.640922E+10	2.545950E-13	NaN
756	1.000000	0.312785	7.37245e+06	-39289.1	1005.82	-29794.3	0.000000	0.000000	6.312855	0.013569	NaN	0.000000	0.001563	0.001816	28.08	0.018888	0.001930	9.785114	-174.659	17.0386	-0.045142	0.311397	-0.802791	-0.804180	0.013569	9.785114	-0.803831	-5.068317E+10	-2.677125E-13	NaN
756	1.000000	0.322779	7.37245e+06	-39289.1	1005.82	-29794.3	0.000000	0.000000	6.322849	0.019174	NaN	0.000000	0.001573	0.001857	28.0802	0.047845	0.001963	24.3716	-9.297502	-164.417	-0.067689	0.321476	-0.792797	-0.794101	0.019174	24.3716	-0.793387	-3.656677E+10	-5.243651E-13	NaN
756	1.000000	0.332805	7.37245e+06	-39289.1	1005.82	-29794.4	0.000000	0.000000	6.332877	0.059424	NaN	0.000000	0.001576	0.001855	28.0813	0.101281	0.002094	48.3622	173.524	14.0932	0.049576	0.331418	-0.782771	-0.784159	0.059424	48.3622	-0.783693	-2.700292E+10	-2.200633E-12	NaN
756	1.000000	0.342830	7.37245e+06	-39289.1	1005.82	-29794.4	0.000000	0.000000	6.342901	0.029405	NaN	0.000000	0.001595	0.001850	28.0809	0.061121	0.001933	31.6212	23.475	-165.744	0.100787	0.341507	-0.772747	-0.774069	0.029405	31.6212	-0.773444	-1.959416E+10	-1.500695E-12	NaN
756	1.000000	0.352822	7.37245e+06	-39289.1	1005.82	-29794.4	0.000000	0.000000	6.352891	-0.010207	NaN	0.000000	0.001600	0.001809	28.0813	0.112298	0.002025	55.4541	176.69	13.2239	0.029783	0.351447	-0.762755	-0.764130	-0.010207	55.4541	-0.762617	-1.396033E+10	7.311219E-13	NaN
756	1.000000	0.362810	7.37245e+06	-39289.1	1005.82	-29794.4	0.000000	0.000000	6.362878	-0.010199	NaN	0.000000	0.001627	0.001853	28.0813	0.064959	0.002093	31.0348	68.8135	-165.048	0.010453	0.361479	-0.752767	-0.754098	-0.010199	31.0348	-0.752521	-1.017485E+10	1.002330E-12	NaN
756	1.000000	0.372801	7.37245e+06	-39289.1	1005.82	-29794.3	0.000000	0.000000	6.372868	-0.069831	NaN	0.000000	0.001624	0.001844	28.0812	0.060423	0.002096	28.8267	139.239	14.1173	0.005990	0.371441	-0.742775	-0.744136	-0.069831	28.8267	-0.740958	-7.081240E+9	9.861471E-12	NaN
756	1.000000	0.382828	7.37245e+06	-39289.1	1005.82	-29794.4	0.000000	0.000000	6.382898	0.001742	NaN	0.000000	0.001631	0.001884	28.0812	0.086804	0.001938	44.7795	-58.1456	-166.008	0.035173	0.381525	-0.732748	-0.734051	0.001742	44.7795	-0.732777	-5.478438E+9	-3.180531E-13	NaN
756	1.000000	0.392819	7.37245e+06	-39289.1	1005.82	-29794.4	0.000000	0.000000	6.392886	-0.056723	NaN	0.000000	0.001613	0.001843	28.0812	0.055417	0.001885	29.3928	-169.417	17.4385	-0.033114	0.391425	-0.722758	-0.724152	-0.056723	29.3928	-0.721311	-3.822491E+9	1.483933E-11	NaN
756	1.000000	0.402832	7.37245e+06	-39289.1	1005.82	-29794.3	0.000000	0.000000	6.402901	-0.026406	NaN	0.000000	0.001595	0.001866	28.0814	0.067832	0.002024	33.5064	131.044	-162.505	-0.011001	0.401473	-0.712744	-0.714104	-0.026406	33.5064	-0.712153	-2.867016E+9	9.210105E-12	NaN
756	1.000000	0.412829	7.37245e+06	-39289.1	1005.82	-29794.4	0.000000	0.000000	6.412899	0.028372	NaN	0.000000	0.001646	0.001876	28.081	0.071630	0.001996	35.8794	-8.769472	16.2336	0.055317	0.411481	-0.702748	-0.704096	0.028372	35.8794	-0.703341	-2.173443E+9	-1.305378E-11	NaN
756	1.000000	0.422847	7.37245e+06	-39289.1	1005.82	-29794.4	0.000000	0.000000	6.422915	-0.025631	NaN	0.000000	0.001616	0.001854	28.081	0.035900	0.002006	17.8978	95.0764	-165.839	-0.021051	0.421513	-0.692730	-0.694064	-0.025631	17.8978	-0.691656	-1.505031E+9	1.702991E-11	NaN
756	1.000000	0.432848	7.37245e+06	-39289.1	1005.82	-29794.4	0.000000	0.000000	6.432918	0.022023	NaN	0.000000	0.001634	0.001861	28.0811	0.029239	0.001994	14.6621	-49.3691	18.0655	-0.010229	0.431484	-0.682729	-0.684093	0.022023	14.6621	-0.683855	-1.177398E+9	-1.870448E-11	NaN
756	1.000000	0.442844	7.37245e+06	-39289.1	1005.82	-29794.4	0.000000	0.000000	6.442912	-0.034119	NaN	0.000000	0.001629	0.001857	28.0814	0.115701	0.002019	57.2984	147.153	-165.888	-0.039718	0.441537	-0.672732	-0.674040	-0.034119	57.2984	-0.672286	-8.178483E+8	4.171776E-11	NaN
756	1.000000	0.452858	7.37245e+06	-39289.1	1005.82	-29794.4	0.000000	0.000000	6.452926	-0.024120	NaN	0.000000	0.001646	0.001873	28.081	0.062953	0.002081	30.2458	-148.761	16.603	-0.105006	0.451512	-0.662719	-0.664065	-0.024120	30.2458	-0.662121	-5.936317E+8	4.063103E-11	NaN
756	1.000000	0.462827	7.37245e+06	-39289.1	1005.82	-29794.4	0.000000	0.000000	6.462897	0.031119	NaN	0.000000	0.001631	0.001875	28.0799	0.013464	0.002005	6.714650	-14.2915	-169.694	0.059390	0.461502	-0.652750	-0.654075	0.031119	6.714650	-0.656226	-4.929021E+8	-6.313443E-11	NaN
756	1.000000	0.472873	7.37245e+06	-39289.1	1005.82	-29794.4	0.000000	0.000000	6.472942	0.007223	NaN	0.000000	0.001638	0.001861	28.0799	0.093450	0.002002	46.6699	-23.0349	15.7625	-0.031202	0.471532	-0.642704	-0.644044	0.007223	46.6699	-0.642820	-3.228307E+8	-2.237290E-11	NaN
756	1.000000	0.482848	7.37245e+06	-39289.1	1005.82	-29794.4	0.000000	0.000000	6.482921	0.097782	NaN	0.000000	0.001668	0.001875	28.0801	0.051819	0.001965	26.376	-67.309	-168.308	0.001803	0.481491	-0.632729	-0.634086	0.097782	26.376	-0.635509	-2.562478E+8	-3.815920E-10	NaN
756	1.000000	0.492857	7.37245e+06	-39289.1	1005.82	-29794.3	0.000000	0.000000	6.492927	0.004621	NaN	0.000000	0.001645	0.001834	28.0799	0.033572	0.001894	17.7225	-78.985	16.3934	-0.023713	0.491528	-0.622719	-0.624049	0.004621	17.7225	-0.622915	-1.720654E+8	-2.685805E-11	NaN
756	1.000000	0.502859	7.37245e+06	-39289.1	1005.82	-29794.3	0.000000	0.000000	6.502928	-0.015547	NaN	0.000000	0.001627	0.001869	28.0798	0.137455	0.001989	69.0961	157.081	-165.222	0.043983	0.501547	-0.612718	-0.614029	-0.015547	69.0961	-0.612549	-1.239306E+8	1.254453E-10	NaN
756	1.000000	0.512905	7.37245e+06	-39289.1	1005.82	-29794.4	0.000000	0.000000	6.512973	-0.035291	NaN	0.000000	0.001673	0.001880	28.0802	0.023512	0.001976	11.8989	-116.149	10.4639	-0.022582	0.511494	-0.602671	-0.604083	-0.035291	11.8989	-0.600447	-8.445354E+7	4.178716E-10	NaN
756	1.000000	0.522899	7.37245e+06	-39289.1	1005.82	-29794.3	0.000000	0.000000	6.522966	-0.051561	NaN	0.000000	0.001679	0.001828	28.0798	0.092519	0.001954	47.3481	-154.896	-164.599	-0.012591	0.521586	-0.592678	-0.593990	-0.051561	47.3481	-0.591861	-6.431613E+7	8.016772E-10	NaN
756	1.000000	0.532876	7.37245e+06	-39289.1	1005.82	-29794.4	0.000000	0.000000	6.532945	-0.017641	NaN	0.000000	0.001642	0.001852	28.0798	0.089640	0.002039	43.9606	78.2499	12.5818	0.024117	0.531529	-0.582700	-0.584047	-0.017641	43.9606	-0.582399	-4.762501E+7	3.704135E-10	NaN
756	1.000000	0.542884	7.37245e+06	-39289.1	1005.82	-29794.4	0.000000	0.000000	6.542955	0.052018	NaN	0.000000	0.001585	0.001874	28.08	0.058982	0.002005	29.4141	84.3936	-162.994	0.011179	0.541525	-0.572693	-0.574052	0.052018	29.4141	-0.574019	-3.648818E+7	-1.425618E-9	NaN
756	1.000000	0.552898	7.37245e+06	-39289.1	1005.82	-29794.4	0.000000	0.000000	6.552968	0.002058	NaN	0.000000	0.001647	0.001929	28.0801	0.108588	0.001968	55.1823	-2.290725	14.7696	-0.013171	0.551565	-0.562678	-0.564011	0.002058	55.1823	-0.562706	-2.545727E+7	-8.083002E-11	NaN
756	1.000000	0.562876	7.37245e+06	-39289.1	1005.82	-29794.3	0.000000	0.000000	6.562949	0.080195	NaN	0.000000	0.001634	0.001887	28.0799	0.031506	0.001951	16.1491	-8.856302	-164.87	0.105100	0.561580	-0.552700	-0.553997	0.080195	16.1491	-0.556425	-2.084047E+7	-3.848034E-9	NaN
756	1.000000	0.572885	7.37245e+06	-39289.1	1005.82	-29794.4	0.000000	0.000000	6.572958	0.092911	NaN	0.000000	0.001654	0.001858	28.0799	0.090500	0.002036	44.4445	-158.538	16.1016	-0.023762	0.571562	-0.542692	-0.544014	0.092911	44.4445	-0.544259	-1.413886E+7	-6.571313E-9	NaN
756	1.000000	0.582882	7.37245e+06	-39289.1	1005.82	-29794.4	0.000000	0.000000	6.582954	0.056610	NaN	0.000000	0.001590	0.001864	28.08	0.066996	0.001968	34.0432	119.843	-166.886	0.022254	0.581593	-0.532694	-0.533984	0.056610	34.0432	-0.533941	-1.016947E+7	-5.566679E-9	NaN
756	1.000000	0.592889	7.37245e+06	-39289.1	1005.82	-29794.3	0.000000	0.000000	6.592957	-0.025978	NaN	0.000000	0.001675	0.001884	28.0801	0.039488	0.002059	19.1818	-50.4118	15.9081	-0.051855	0.591545	-0.522688	-0.524032	-0.025978	19.1818	-0.521672	-6.86826e+06	3.782371E-9	NaN
756	1.000000	0.602901	7.37245e+06	-39289.1	1005.82	-29794.4	0.000000	0.000000	6.602973	0.062355	NaN	0.000000	0.001639	0.001877	28.0811	0.111067	0.001947	57.0453	-94.9514	-164.219	0.052658	0.601571	-0.512675	-0.514005	0.062355	57.0453	-0.513495	-5.28545e+06	-1.179742E-8	NaN
756	1.000000	0.612934	7.37245e+06	-39289.1	1005.82	-29794.4	0.000000	0.000000	6.613003	0.007628	NaN	0.000000	0.001672	0.001809	28.0811	0.093337	0.001935	48.2282	145.903	15.9362	0.028057	0.611552	-0.502643	-0.504025	0.007628	48.2282	-0.502761	-3.74571e+06	-2.036404E-9	NaN
756	1.000000	0.622920	7.37245e+06	-39289.1	1005.82	-29794.3	0.000000	0.000000	6.622988	-0.024311	NaN	0.000000	0.001631	0.001805	28.0818	0.066098	0.002059	32.0975	149.644	-165.805	-0.029520	0.621619	-0.492657	-0.493958	-0.024311	32.0975	-0.492089	-2.65814e+06	9.145964E-9	NaN
756	1.000000	0.632909	7.37245e+06	-39289.1	1005.82	-29794.4	0.000000	0.000000	6.632978	-0.007155	NaN	0.000000	0.001660	0.001804	28.0811	0.103168	0.001963	52.5686	11.3451	12.8341	-0.064203	0.631622	-0.482668	-0.483954	-0.007155	52.5686	-0.482566	-1.95631e+06	3.657398E-9	NaN
756	1.000000	0.642913	7.37245e+06	-39289.1	1005.82	-29794.4	0.000000	0.000000	6.642983	-0.003133	NaN	0.000000	0.001624	0.001846	28.0811	0.069201	0.001973	35.076	156.325	-162.588	0.004324	0.641609	-0.472663	-0.473967	-0.003133	35.076	-0.472596	-1.41844e+06	2.208595E-9	NaN
756	1.000000	0.652954	7.37245e+06	-39289.1	1005.82	-29794.3	0.000000	0.000000	6.653024	-0.003270	NaN	0.000000	0.001640	0.001797	28.081	0.052016	0.002036	25.5424	36.5447	16.5427	-0.004930	0.651585	-0.462622	-0.463991	-0.003270	25.5424	-0.462526	-1.02449e+06	3.192180E-9	NaN
756	1.000000	0.662902	7.37245e+06	-39289.1	1005.82	-29794.4	0.000000	0.000000	6.662973	0.026376	NaN	0.000000	0.001634	0.001800	28.0811	0.086793	0.002098	41.3674	-163.202	-166.003	0.010254	0.661615	-0.452674	-0.453962	0.026376	41.3674	-0.453152	-756347	-3.487339E-8	NaN
756	1.000000	0.672932	7.37245e+06	-39289.1	1005.82	-29794.4	0.000000	0.000000	6.673001	-0.024090	NaN	0.000000	0.001606	0.001775	28.0812	0.075936	0.002028	37.4428	159.969	13.4576	0.041233	0.671576	-0.442644	-0.444001	-0.024090	37.4428	-0.442162	-529500	4.549489E-8	NaN
756	1.000000	0.682929	7.37245e+06	-39289.1	1005.82	-29794.4	0.000000	0.000000	6.682997	-0.011623	NaN	0.000000	0.001623	0.001797	28.0811	0.025426	0.001973	12.885	-119.871	-164.643	-0.005894	0.681664	-0.432648	-0.433913	-0.011623	12.885	-0.431971	-380140	3.057580E-8	NaN
756	1.000000	0.692924	7.37245e+06	-39289.1	1005.82	-29794.4	0.000000	0.000000	6.692992	-0.036268	NaN	0.000000	0.001659	0.001773	28.0814	0.052383	0.001983	26.4135	-12.7063	15.4545	0.026013	0.691604	-0.422653	-0.423973	-0.036268	26.4135	-0.421623	-271285	1.336898E-7	NaN
756	1.000000	0.702951	7.37245e+06	-39289.1	1005.82	-29794.4	0.000000	0.000000	6.703018	-0.060449	NaN	0.000000	0.001644	0.001846	28.0808	0.070481	0.001969	35.7919	149.161	-166.874	-0.044883	0.701681	-0.412625	-0.413896	-0.060449	35.7919	-0.411358	-193961	3.116525E-7	NaN
756	1.000000	0.712941	7.37245e+06	-39289.1	1005.82	-29794.4	0.000000	0.000000	6.713011	-7.981700E-5	NaN	0.000000	0.001665	0.001809	28.081	0.089090	0.002128	41.8674	120.023	13.3998	0.032282	0.711629	-0.402635	-0.403948	-7.981700E-5	41.8674	-0.402634	-145727	5.477153E-10	NaN
756	1.000000	0.722931	7.37245e+06	-39289.1	1005.82	-29794.4	0.000000	0.000000	6.723001	0.009015	NaN	0.000000	0.001655	0.001845	28.0808	0.061514	0.001899	32.3916	132.698	-170.862	0.018121	0.721669	-0.392645	-0.393908	0.009015	32.3916	-0.392854	-105676	-8.531033E-8	NaN
756	1.000000	0.732989	7.37245e+06	-39289.1	1005.82	-29794.4	0.000000	0.000000	6.733059	0.007308	NaN	0.000000	0.001639	0.001821	28.0812	0.118449	0.001951	60.7255	95.01	13.2763	-0.038660	0.731610	-0.382587	-0.383967	0.007308	60.7255	-0.382677	-75560.6	-9.672111E-8	NaN
756	1.000000	0.742957	7.37245e+06	-39289.1	1005.82	-29794.4	0.000000	0.000000	6.743026	-0.015461	NaN	0.000000	0.001709	0.001828	28.0797	0.032796	0.002009	16.3267	162.489	-168.231	0.004227	0.741627	-0.372620	-0.373950	-0.015461	16.3267	-0.371909	-52919.4	2.921528E-7	NaN
756	1.000000	0.752983	7.37245e+06	-39289.1	1005.82	-29794.4	0.000000	0.000000	6.753053	0.004080	NaN	0.000000	0.001631	0.001766	28.0798	0.085045	0.001985	42.8375	56.9736	13.8942	0.020365	0.751669	-0.362594	-0.363907	0.004080	42.8375	-0.362665	-38935.8	-1.047788E-7	NaN
756	1.000000	0.762971	7.37245e+06	-39289.1	1005.82	-29794.4	0.000000	0.000000	6.763043	0.065602	NaN	0.000000	0.001640	0.001788	28.0798	0.110171	0.002110	52.2205	-46.1239	-162.604	0.091355	0.761688	-0.352605	-0.353889	0.065602	52.2205	-0.353547	-28737.7	-2.282773E-6	NaN
756	1.000000	0.772978	7.37245e+06	-39289.1	1005.82	-29794.4	0.000000	0.000000	6.773048	0.023571	NaN	0.000000	0.001649	0.001766	28.0798	0.109640	0.002163	50.6902	63.8452	14.3399	0.121415	0.771607	-0.342598	-0.343969	0.023571	50.6902	-0.342947	-20159.8	-1.169186E-6	NaN
756	1.000000	0.782983	7.37245e+06	-39289.1	1005.82	-29794.4	0.000000	0.000000	6.783052	-0.006001	NaN	0.000000	0.001624	0.001806	28.0798	0.017738	0.002001	8.866553	-6.590889	-165.119	0.088673	0.781635	-0.332594	-0.333942	-0.006001	8.866553	-0.332086	-13995.3	4.288207E-7	NaN
756	1.000000	0.793010	7.37245e+06	-39289.1	1005.82	-29794.4	0.000000	0.000000	6.793078	-0.034518	NaN	0.000000	0.001681	0.001796	28.0797	0.031236	0.002042	15.2958	-71.1635	14.0614	-0.037271	0.791633	-0.322567	-0.323943	-0.034518	15.2958	-0.320874	-9582.99	3.601981E-6	NaN
756	1.000000	0.803009	7.37245e+06	-39289.1	1005.82	-29794.4	0.000000	0.000000	6.803080	0.043604	NaN	0.000000	0.001637	0.001831	28.0801	0.075719	0.002022	37.4458	10.7629	-167.126	0.007962	0.801675	-0.312568	-0.313902	0.043604	37.4458	-0.313441	-7446.11	-5.855878E-6	NaN
756	1.000000	0.813009	7.37245e+06	-39289.1	1005.82	-29794.4	0.000000	0.000000	6.813080	0.035484	NaN	0.000000	0.001649	0.001796	28.0797	0.059370	0.001966	30.1913	109.972	13.838	0.043046	0.811594	-0.302567	-0.303982	0.035484	30.1913	-0.303449	-5295.7	-6.700472E-6	NaN
756	1.000000	0.823010	7.37245e+06	-39289.1	1005.82	-29794.4	0.000000	0.000000	6.823081	0.036039	NaN	0.000000	0.001663	0.001783	28.0797	0.099824	0.002035	49.0448	-179.119	-166.342	0.028166	0.821677	-0.292566	-0.293900	0.036039	49.0448	-0.293117	-3714.99	-9.700860E-6	NaN
756	1.000000	0.833024	7.37245e+06	-39289.1	1005.82	-29794.3	0.000000	0.000000	6.833095	0.039446	NaN	0.000000	0.001658	0.001822	28.0796	0.068028	0.002063	32.9775	-87.3228	14.6087	0.094844	0.831658	-0.282552	-0.283919	0.039446	32.9775	-0.283449	-2660.39	-1.482717E-5	NaN
756	1.000000	0.842999	7.37245e+06	-39289.1	1005.82	-29794.3	0.000000	0.000000	6.843069	0.003376	NaN	0.000000	0.001678	0.001811	28.0799	0.041937	0.001915	21.8941	-92.9283	-167.768	-0.017505	0.841735	-0.272577	-0.273841	0.003376	21.8941	-0.272693	-1829.95	-1.845107E-6	NaN
756	1.000000	0.853024	7.37245e+06	-39289.1	1005.82	-29794.4	0.000000	0.000000	6.853093	0.003282	NaN	0.000000	0.001704	0.001819	28.08	0.117114	0.001985	59.0081	-67.8417	13.4409	0.040061	0.851656	-0.262553	-0.263920	0.003282	59.0081	-0.262595	-1284.22	-2.555656E-6	NaN
756	1.000000	0.863017	7.37245e+06	-39289.1	1005.82	-29794.4	0.000000	0.000000	6.863086	0.000561	NaN	0.000000	0.001637	0.001785	28.0799	0.041967	0.001983	21.1606	-91.728	-165.184	-0.057654	0.861670	-0.252560	-0.253906	0.000561	21.1606	-0.252580	-901.186	-6.229773E-7	NaN
756	1.000000	0.873029	7.37245e+06	-39289.1	1005.82	-29794.3	0.000000	0.000000	6.873095	-0.071256	NaN	0.000000	0.001659	0.001787	28.0811	0.081178	0.001881	43.1581	129.864	18.6444	-0.016764	0.871691	-0.242548	-0.243886	-0.071256	43.1581	-0.241310	-602.551	0.000118	NaN
756	1.000000	0.883043	7.37245e+06	-39289.1	1005.82	-29794.3	0.000000	0.000000	6.883113	0.016324	NaN	0.000000	0.001638	0.001813	28.081	0.028821	0.002114	13.6319	105.756	-166.773	0.087431	0.881744	-0.232534	-0.233832	0.016324	13.6319	-0.233432	-453.529	-3.599393E-5	NaN
756	1.000000	0.893050	7.37245e+06	-39289.1	1005.82	-29794.3	0.000000	0.000000	6.893122	0.059996	NaN	0.000000	0.001681	0.001786	28.0809	0.057876	0.002047	28.2718	-31.0989	13.6023	0.086154	0.891641	-0.222527	-0.223935	0.059996	28.2718	-0.224118	-323.088	-0.000186	NaN
756	1.000000	0.903037	7.37245e+06	-39289.1	1005.82	-29794.4	0.000000	0.000000	6.903105	-0.040718	NaN	0.000000	0.001648	0.001822	28.0809	0.076117	0.001971	38.6167	-133.483	-166.492	-0.074696	0.901732	-0.212539	-0.213845	-0.040718	38.6167	-0.211748	-204.692	0.000199	NaN
756	1.000000	0.913036	7.37245e+06	-39289.1	1005.82	-29794.4	0.000000	0.000000	6.913102	-0.074394	NaN	0.000000	0.001646	0.001845	28.0812	0.051770	0.001992	25.993	-15.8187	10.3712	-0.004548	0.911643	-0.202541	-0.203934	-0.074394	25.993	-0.200394	-133.715	0.000556	NaN
756	1.000000	0.923049	7.37245e+06	-39289.1	1005.82	-29794.4	0.000000	0.000000	6.923118	0.006845	NaN	0.000000	0.001656	0.001801	28.0809	0.104802	0.002051	51.1023	164.532	-165.768	0.000938	0.921658	-0.192528	-0.193919	0.006845	51.1023	-0.192628	-99.5038	-6.878798E-5	NaN
756	1.000000	0.933023	7.37245e+06	-39289.1	1005.82	-29794.4	0.000000	0.000000	6.933092	-0.011647	NaN	0.000000	0.001671	0.001817	28.0809	0.063024	0.002125	29.6572	146.123	13.3083	-0.065760	0.931745	-0.182553	-0.183831	-0.011647	29.6572	-0.182259	-66.6521	0.000175	NaN
756	1.000000	0.943066	7.37245e+06	-39289.1	1005.82	-29794.4	0.000000	0.000000	6.943137	0.037881	NaN	0.000000	0.001655	0.001833	28.0812	0.058725	0.002051	28.6283	22.3294	-163.92	-0.028592	0.941732	-0.172510	-0.173845	0.037881	28.6283	-0.173503	-47.2291	-0.000802	NaN
756	1.000000	0.953069	7.37245e+06	-39289.1	1005.82	-29794.4	0.000000	0.000000	6.953142	0.094205	NaN	0.000000	0.001627	0.001811	28.0811	0.027185	0.002086	13.0319	151.823	11.566	0.048666	0.951642	-0.162508	-0.163935	0.094205	13.0319	-0.167930	-37.8077	-0.002492	NaN
756	1.000000	0.963048	7.37245e+06	-39289.1	1005.82	-29794.4	0.000000	0.000000	6.963117	-0.008954	NaN	0.000000	0.001622	0.001814	28.0811	0.032815	0.001947	16.8566	22.649	-165.162	-0.003513	0.961750	-0.152528	-0.153827	-0.008954	16.8566	-0.152130	-19.8032	0.000452	NaN
756	1.000000	0.973076	7.37245e+06	-39289.1	1005.82	-29794.4	0.000000	0.000000	6.973149	0.097982	NaN	0.000000	0.001651	0.001850	28.0811	0.098442	0.001955	50.3451	-80.3821	14.6936	0.072096	0.971661	-0.142500	-0.143915	0.097982	50.3451	-0.143960	-14.0249	-0.006986	NaN
756	1.000000	0.983049	7.37245e+06	-39289.1	1005.82	-29794.4	0.000000	0.000000	6.983119	0.007429	NaN	0.000000	0.001609	0.001826	28.0813	0.062603	0.002041	30.6756	-69.2588	-166.361	-0.041515	0.981734	-0.132528	-0.133843	0.007429	30.6756	-0.132709	-8.597750	-0.000864	NaN
756	1.000000	0.993079	7.37245e+06	-39289.1	1005.82	-29794.4	0.000000	0.000000	6.993149	0.007033	NaN	0.000000	0.001645	0.001798	28.081	0.038161	0.002027	18.8225	-125.117	15.2458	0.047718	0.991724	-0.122497	-0.123853	0.007033	18.8225	-0.122777	-5.493189	-0.001280	NaN
756	1.000000	1.003085	7.37245e+06	-39289.1	1005.82	-29794.4	0.000000	0.000000	7.003155	0.003624	NaN	0.000000	0.001598	0.001797	28.0813	0.055420	0.001977	28.0271	-76.9105	-164.401	0.037702	1.001766	-0.112491	-0.113810	0.003624	28.0271	-0.112588	-3.405017	-0.001064	NaN
756	1.000000	1.013080	7.37245e+06	-39289.1	1005.82	-29794.4	0.000000	0.000000	7.013149	-0.008462	NaN	0.000000	0.001610	0.001877	28.0798	0.049277	0.002017	24.4351	119.005	10.9208	0.030136	1.011721	-0.102496	-0.103856	-0.008462	24.4351	-0.102237	-2.046727	0.004134	NaN
756	1.000000	1.023089	7.37245e+06	-39289.1	1005.82	-29794.4	0.000000	0.000000	7.023159	-0.006946	NaN	0.000000	0.001583	0.001817	28.08	0.078617	0.001990	39.4982	67.3224	-167.957	0.025303	1.021732	-0.092487	-0.093845	-0.006946	39.4982	-0.092355	-1.226565	0.005663	NaN
756	1.000000	1.033088	7.37245e+06	-39289.1	1005.82	-29794.4	0.000000	0.000000	7.033156	-0.019399	NaN	0.000000	0.001587	0.001799	28.0798	0.055846	0.002132	26.1929	124.156	11.9184	-0.011999	1.031703	-0.082489	-0.083873	-0.019399	26.1929	-0.081933	-0.691385	0.028059	NaN
756	1.000000	1.043081	7.37245e+06	-39289.1	1005.82	-29794.4	0.000000	0.000000	7.043152	0.026409	NaN	0.000000	0.001601	0.001780	28.0798	0.039127	0.002034	19.2374	125.954	-164.691	0.036333	1.041762	-0.072495	-0.073815	0.026409	19.2374	-0.073525	-0.422824	-0.062458	NaN
756	1.000000	1.053078	7.37245e+06	-39289.1	1005.82	-29794.4	0.000000	0.000000	7.053146	-0.032097	NaN	0.000000	0.001622	0.001812	28.0797	0.080294	0.001975	40.6587	-154.129	15.2827	-0.026618	1.051693	-0.062498	-0.063883	-0.032097	40.6587	-0.061906	-0.204100	0.157262	NaN
756	1.000000	1.063104	7.37245e+06	-39289.1	1005.82	-29794.4	0.000000	0.000000	7.063175	0.028451	NaN	0.000000	0.001601	0.001837	28.08	0.014583	0.002027	7.194815	37.9565	-166.034	0.103070	1.061754	-0.052472	-0.053823	0.028451	7.194815	-0.055438	-0.132668	-0.214449	NaN
756	1.000000	1.073113	7.37245e+06	-39289.1	1005.82	-29794.4	0.000000	0.000000	7.073185	0.075857	NaN	0.000000	0.001618	0.001784	28.0799	0.069608	0.002012	34.5884	-145.013	13.5974	0.097501	1.071720	-0.042464	-0.043856	0.075857	34.5884	-0.044109	-0.060358	-1.256778	NaN
756	1.000000	1.083099	7.37245e+06	-39289.1	1005.82	-29794.4	0.000000	0.000000	7.083167	-0.034569	NaN	0.000000	0.001635	0.001813	28.0799	0.119422	0.001839	64.9361	-91.1347	-164.025	-0.020121	1.081801	-0.032477	-0.033775	-0.034569	64.9361	-0.032078	-0.026341	1.312349	NaN
756	1.000000	1.093092	7.37245e+06	-39289.1	1005.82	-29794.4	0.000000	0.000000	7.093164	0.072077	NaN	0.000000	0.001608	0.001807	28.0798	0.058152	0.002051	28.3526	98.7953	16.7898	-0.079961	1.091746	-0.022485	-0.023831	0.072077	28.3526	-0.024391	-0.016266	-4.431236	NaN
756	1.000000	1.103133	7.37245e+06	-39289.1	1005.82	-29794.4	0.000000	0.000000	7.103205	0.062563	NaN	0.000000	0.001640	0.001815	28.0799	0.243772	0.002036	119.753	16.9262	-166.008	0.065537	1.101820	-0.012443	-0.013756	0.062563	119.753	-0.012835	-0.008007	-7.813202	NaN
756	1.000000	1.113125	7.37245e+06	-39289.1	1005.82	-29794.4	0.000000	0.000000	7.113246	1.263101	NaN	0.000000	0.001585	0.001785	28.0802	1.942487	0.001877	1034.79	14.633	13.2893	0.612780	1.111719	-0.002451	-0.003858	1.263101	1034.79	-0.003367	-0.002365	-534.183	NaN
756	2.000000	1.120684	7.37245e+06	-39289.1	1005.82	-29794.4	0.000000	0.000000	7.121144	9.503439	NaN	0.000000	0.001626	0.001830	28.0799	8.963157	0.001776	5048.12	8.721907	-172.184	9.296044	1.120356	0.005107	0.004779	9.503439	5048.12	0.003695	0.002973	3196.14	84581.5
756	2.000000	1.123149	7.37245e+06	-39289.1	1005.82	-29794.4	0.000000	0.000000	7.123772	13.4849	NaN	0.000000	0.001616	0.001809	28.0801	10.9628	0.001664	6589.32	7.397929	5.381380	12.4248	1.122793	0.007572	0.007217	13.4849	6589.32	0.006037	0.005100	2644.09	84300
756	2.000000	1.125571	7.37245e+06	-39289.1	1005.82	-29794.4	0.000000	0.000000	7.126383	18.0737	NaN	0.000000	0.001610	0.001814	28.0805	13.5994	0.001795	7577.42	9.154196	-177.359	16.6883	1.125266	0.009994	0.009690	18.0737	7577.42	0.008205	0.007254	2491.52	81283.6
756	2.000000	1.128082	7.37245e+06	-39289.1	1005.82	-29794.4	0.000000	0.000000	7.129096	23.0078	NaN	0.000000	0.001638	0.001800	28.0812	15.9201	0.001797	8859.35	7.313199	2.999527	21.9057	1.127770	0.012505	0.012193	23.0078	8859.35	0.010557	0.009807	2345.97	81733.2
756	2.000000	1.130606	7.37245e+06	-39289.1	1005.82	-29794.4	0.000000	0.000000	7.131736	25.8053	NaN	0.000000	0.001606	0.001793	28.0814	18.2911	0.001908	9588.64	7.395284	-176.622	25.345	1.130353	0.015029	0.014777	25.8053	9588.64	0.013011	0.012724	2028.15	77665.2
756	2.000000	1.133084	7.37245e+06	-39289.1	1005.82	-29794.4	0.000000	0.000000	7.134487	32.4459	NaN	0.000000	0.001592	0.001817	28.0813	19.8451	0.001817	10920.4	8.179218	2.738660	31.1312	1.132695	0.017507	0.017118	32.4459	10920.4	0.015279	0.015659	2072	79730.8
756	2.000000	1.135579	7.37245e+06	-39289.1	1005.82	-29794.4	0.000000	0.000000	7.137185	37.3894	NaN	0.000000	0.001662	0.001819	28.0812	21.3742	0.001787	11964	6.422031	-177.732	36.1091	1.135176	0.020003	0.019600	37.3894	11964	0.017659	0.018996	1968.24	79307.3
756	2.000000	1.138070	7.37245e+06	-39289.1	1005.82	-29794.3	0.000000	0.000000	7.139992	45.0901	NaN	0.000000	0.001648	0.001820	28.0813	23.7615	0.001841	12908.9	8.751427	0.492424	44.3408	1.137701	0.022493	0.022125	45.0901	12908.9	0.019874	0.022344	2017.98	78900.9
756	2.000000	1.140630	7.37245e+06	-39289.1	1005.82	-29794.4	0.000000	0.000000	7.142717	49.114	NaN	0.000000	0.001655	0.001825	28.0816	25.4356	0.001774	14337.1	4.952384	-178.617	49.6757	1.140231	0.025053	0.024654	49.114	14337.1	0.022484	0.026597	1846.6	80319.1
756	2.000000	1.143052	7.37245e+06	-39289.1	1005.82	-29794.3	0.000000	0.000000	7.145495	57.7461	NaN	0.000000	0.001658	0.001804	28.0815	27.2746	0.001763	15472.3	5.123714	0.986655	55.5183	1.142757	0.027476	0.027181	57.7461	15472.3	0.024677	0.030430	1897.68	81036.1
756	2.000000	1.145533	7.37245e+06	-39289.1	1005.82	-29794.4	0.000000	0.000000	7.148301	65.6758	NaN	0.000000	0.001654	0.001827	28.0814	29.5886	0.001776	16659.9	3.551020	-178.144	63.6986	1.145178	0.029957	0.029601	65.6758	16659.9	0.027000	0.034755	1889.7	81646.7
756	2.000000	1.148041	7.37245e+06	-39289.1	1005.82	-29794.4	0.000000	0.000000	7.151160	74.2284	NaN	0.000000	0.001645	0.001801	28.0816	32.6551	0.001851	17643.6	4.572015	0.630913	74.1456	1.147756	0.032464	0.032179	74.2284	17643.6	0.029309	0.039324	1887.63	81289.1
756	2.000000	1.150531	7.37245e+06	-39289.1	1005.82	-29794.4	0.000000	0.000000	7.154003	82.8144	NaN	0.000000	0.001610	0.001806	28.0814	35.1926	0.001791	19652.6	4.295154	178.665	82.0228	1.150252	0.034954	0.034676	82.8144	19652.6	0.031794	0.044543	1859.19	85075.1
756	2.000000	1.153093	7.37245e+06	-39289.1	1005.82	-29794.4	0.000000	0.000000	7.156935	91.7927	NaN	0.000000	0.001637	0.001841	28.0815	36.3239	0.001814	20027.3	4.706146	-0.775093	91.3197	1.152744	0.037517	0.037167	91.7927	20027.3	0.034079	0.049624	1849.78	82139.5
756	2.000000	1.155515	7.37245e+06	-39289.1	1005.82	-29794.4	0.000000	0.000000	7.159709	100.373	NaN	0.000000	0.001618	0.001810	28.0811	38.2005	0.001819	21006.5	3.987189	179.374	99.5657	1.155205	0.039938	0.039629	100.373	21006.5	0.036355	0.054947	1826.72	81875.7
756	2.000000	1.158041	7.37245e+06	-39289.1	1005.82	-29794.4	0.000000	0.000000	7.162532	107.591	NaN	0.000000	0.001677	0.001826	28.0812	40.3725	0.001888	21381	1.894685	0.922423	107.287	1.157699	0.042464	0.042122	107.591	21381	0.038690	0.060688	1772.86	79296
756	2.000000	1.160549	7.37245e+06	-39289.1	1005.82	-29794.4	0.000000	0.000000	7.165241	112.474	NaN	0.000000	0.001661	0.001839	28.08	42.2735	0.001805	23421.9	4.052040	177.892	112.699	1.160244	0.044973	0.044667	112.474	23421.9	0.041371	0.067620	1663.31	82291.7
756	2.000000	1.163004	7.37245e+06	-39289.1	1005.82	-29794.4	0.000000	0.000000	7.168191	124.528	NaN	0.000000	0.001631	0.001798	28.0801	44.3498	0.001935	22922.3	5.371777	-2.838747	121.871	1.162703	0.047427	0.047126	124.528	22922.3	0.043353	0.072981	1706.31	77522.6
756	2.000000	1.165517	7.37245e+06	-39289.1	1005.82	-29794.4	0.000000	0.000000	7.171155	135.5	NaN	0.000000	0.001643	0.001787	28.08	45.7478	0.001662	27527.1	6.044036	175.539	136.916	1.165163	0.049941	0.049586	135.5	27527.1	0.046249	0.081172	1669.29	88273.6
756	2.000000	1.167993	7.37245e+06	-39289.1	1005.82	-29794.4	0.000000	0.000000	7.174042	145.533	NaN	0.000000	0.001588	0.001804	28.0802	49.3397	0.001771	27860.7	4.577165	-4.206841	141.532	1.167552	0.052416	0.051975	145.533	27860.7	0.048498	0.087828	1657.03	85891
756	2.000000	1.170527	7.37245e+06	-39289.1	1005.82	-29794.4	0.000000	0.000000	7.177083	157.84	NaN	0.000000	0.001656	0.001837	28.0798	51.1945	0.001685	30382.1	2.789903	176.811	156.313	1.170223	0.054951	0.054647	157.84	30382.1	0.051054	0.095700	1649.33	89729.7
756	2.000000	1.172948	7.37245e+06	-39289.1	1005.82	-29794.4	0.000000	0.000000	7.179909	167.722	NaN	0.000000	0.001617	0.001841	28.08	52.6838	0.001717	30687.7	1.285838	-1.082859	162.211	1.172618	0.057371	0.057041	167.722	30687.7	0.053272	0.102794	1631.62	87448.5
756	2.000000	1.175493	7.37245e+06	-39289.1	1005.82	-29794.4	0.000000	0.000000	7.182634	172.075	NaN	0.000000	0.001601	0.001803	28.0798	55.6811	0.001827	30479.1	5.528025	174.011	170.643	1.175334	0.059917	0.059757	172.075	30479.1	0.055683	0.110783	1553.26	83664
756	2.000000	1.177906	7.37245e+06	-39289.1	1005.82	-29794.4	0.000000	0.000000	7.185886	192.512	NaN	0.000000	0.001594	0.001822	28.0802	57.3457	0.001721	33312.3	3.065227	-4.215567	187.015	1.177610	0.062329	0.062033	192.512	33312.3	0.057995	0.118718	1621.6	88332.4
756	2.000000	1.180490	7.37245e+06	-39289.1	1005.82	-29794.4	0.000000	0.000000	7.188726	198.753	NaN	0.000000	0.001585	0.001773	28.0798	61.4101	0.001836	33441.4	4.412029	175.533	197.85	1.180181	0.064913	0.064604	198.753	33441.4	0.060456	0.127447	1559.49	85584
756	2.000000	1.183003	7.37246e+06	-39289.1	1005.82	-29794.4	0.000000	0.000000	7.191791	212.156	NaN	0.000000	0.001605	0.001795	28.0799	62.1451	0.001858	33451	0.966155	-0.885939	209.781	1.182632	0.067427	0.067056	212.156	33451	0.062670	0.135556	1565.08	83008.6
756	2.000000	1.185441	7.37246e+06	-39289.1	1005.82	-29794.4	0.000000	0.000000	7.194564	220.326	NaN	0.000000	0.001618	0.001786	28.0799	64.4992	0.001784	36163.9	6.220000	172.302	216.403	1.185184	0.069864	0.069607	220.326	36163.9	0.065295	0.145477	1514.51	86626.5
756	2.000000	1.187935	7.37246e+06	-39289.1	1005.82	-29794.4	0.000000	0.000000	7.197755	237.281	NaN	0.000000	0.001605	0.001781	28.0803	67.1649	0.001878	35761.2	6.457580	-7.071294	232.368	1.187555	0.072359	0.071978	237.281	35761.2	0.067382	0.153603	1544.77	83365.3
756	2.000000	1.190405	7.37246e+06	-39289.1	1005.82	-29794.4	0.000000	0.000000	7.200812	251.548	NaN	0.000000	0.001607	0.001773	28.08	69.5657	0.001745	39857.2	4.739865	173.004	246.288	1.190044	0.074829	0.074468	251.548	39857.2	0.070095	0.164476	1529.39	89790.2
756	2.000000	1.193004	7.37246e+06	-39289.1	1005.82	-29794.4	0.000000	0.000000	7.203813	261.342	NaN	0.000000	0.001611	0.001815	28.0803	70.7225	0.001761	40152.9	3.793343	-5.100754	259.606	1.192630	0.077428	0.077053	261.342	40152.9	0.072546	0.174600	1496.8	87794.6
756	2.000000	1.195412	7.37246e+06	-39289.1	1005.82	-29794.3	0.000000	0.000000	7.206642	271.609	NaN	0.000000	0.001619	0.001808	28.0814	73.0019	0.001701	42910.3	5.499908	171.915	266.816	1.195132	0.079835	0.079556	271.609	42910.3	0.075088	0.185399	1465	91050.4
756	2.000000	1.197916	7.37246e+06	-39289.1	1005.82	-29794.4	0.000000	0.000000	7.209927	290.593	NaN	0.000000	0.001653	0.001849	28.0816	76.023	0.001764	43091.2	4.924063	-7.010345	288.109	1.197578	0.082340	0.082001	290.593	43091.2	0.077282	0.194966	1490.48	89162.5
756	2.000000	1.200517	7.37246e+06	-39289.1	1005.82	-29794.4	0.000000	0.000000	7.213080	304.033	NaN	0.000000	0.001641	0.001846	28.0815	79.3036	0.001813	43749.4	6.330441	170.915	305.945	1.200189	0.084941	0.084613	304.033	43749.4	0.079728	0.205898	1476.62	88088.4
756	2.000000	1.202970	7.37246e+06	-39289.1	1005.82	-29794.4	0.000000	0.000000	7.216097	317.749	NaN	0.000000	0.001658	0.001819	28.0817	80.2615	0.001719	46678.5	4.956530	-7.750845	312.975	1.202608	0.087394	0.087032	317.749	46678.5	0.082288	0.217636	1460	91416.5
756	2.000000	1.205313	7.37246e+06	-39289.1	1005.82	-29794.3	0.000000	0.000000	7.219149	335.017	NaN	0.000000	0.001646	0.001848	28.0816	82.8028	0.001806	45848	5.930856	170.973	328.353	1.205186	0.089736	0.089609	335.017	45848	0.084256	0.226865	1476.72	87944.8
756	2.000000	1.207943	7.37246e+06	-39289.1	1005.82	-29794.4	0.000000	0.000000	7.222164	344.376	NaN	0.000000	0.001621	0.001815	28.0818	84.8089	0.001800	47105.7	-0.173922	-3.121077	341.642	1.207746	0.092366	0.092169	344.376	47105.7	0.086883	0.239467	1438.09	87947.5
756	2.000000	1.210423	7.37246e+06	-39289.1	1005.82	-29794.3	0.000000	0.000000	7.225515	365.578	NaN	0.000000	0.001634	0.001771	28.0814	88.6176	0.001799	49262.4	6.564366	170.179	362.987	1.210095	0.094846	0.094518	365.578	49262.4	0.089280	0.251243	1455.08	89792.9
756	2.000000	1.212940	7.37246e+06	-39289.1	1005.82	-29794.3	0.000000	0.000000	7.228898	386.662	NaN	0.000000	0.001602	0.001789	28.082	89.8427	0.001871	48010.8	4.816345	-7.206583	379.249	1.212515	0.097363	0.096938	386.662	48010.8	0.091323	0.261484	1478.72	85780.6
756	2.000000	1.215441	7.37246e+06	-39289.1	1005.82	-29794.4	0.000000	0.000000	7.232155	405.056	NaN	0.000000	0.001648	0.001789	28.0815	92.5458	0.001830	50571.1	5.480570	171.613	402.286	1.215043	0.099864	0.099467	405.056	50571.1	0.093857	0.274457	1475.85	88193.9
756	2.000000	1.217994	7.37246e+06	-39289.1	1005.82	-29794.4	0.000000	0.000000	7.235103	414.667	NaN	0.000000	0.001599	0.001741	28.0816	96.0956	0.001732	55483.8	7.091157	-10.9851	414.368	1.217678	0.102417	0.102102	414.667	55483.8	0.096812	0.289954	1430.11	94140.2
756	2.000000	1.218433	7.37246e+06	-39289.1	1005.82	-29794.3	0.000000	0.000000	7.235626	416.691	NaN	0.000000	0.001635	0.001729	28.0815	95.246	0.001663	57281.6	2.702219	172.572	415.674	1.218177	0.102857	0.102601	416.691	57281.6	0.097401	0.293089	1421.72	96669.2