File: remote_trans/data/nanoindenter/0828-1/data/Data_2025-08-06,11h17m57s/2025-07-22_16-23-58_1_718.txt
2025-07-22, 16:23:58, 1
Index	Phase	Displacement	Time	Pos X	Pos Y	Pos Z	Rot A	Rot B	Piezo Z	Force A	Force B	Gripper	Voltage A	Voltage B	Temperature	Amplitude force	Amplitude pos	Stiffness	Phase shift	Phase excitation	Force A raw	Displacement raw	HMax	HMax raw	Real Force	Real Stiffness	Contact Depth	Area	Hardness	Reduced Mod.
[#]	[#]	[um]	[s]	[um]	[um]	[um]	[m°]	[m°]	[um]	[uN]	[uN]	[V]	[V]	[V]	[°C]	[uN]	[um]	[N/m]	[°]	[°]	[uN]	[um]	[um]	[um]	[uN]	[N/m]	[um]	[um^2]	[MPa]	[MPa]
718	1.000000	0.002691	7.37208e+06	-41189.1	1005.82	-29787.1	0.000000	0.000000	6.002808	0.088163	NaN	0.000000	0.001601	0.001751	28.0827	0.058328	0.000849	68.6936	-100.78	-172.249	-0.015397	0.001396	-1.068036	-1.069330	0.088163	68.6936	-1.068998	-1.921893E+14	-4.587309E-16	NaN
718	1.000000	0.010640	7.37208e+06	-41189.1	1005.82	-29787.1	0.000000	0.000000	6.010754	0.015989	NaN	0.000000	0.001584	0.001803	28.0826	0.094214	0.001029	91.5858	-38.5554	-167.195	-0.017873	0.009301	-1.060086	-1.061425	0.015989	91.5858	-1.060217	-1.464676E+14	-1.091620E-16	NaN
718	1.000000	0.018661	7.37208e+06	-41189.1	1005.82	-29787.1	0.000000	0.000000	6.018776	0.040854	NaN	0.000000	0.001622	0.001777	28.0827	0.062656	0.001684	37.2074	122.25	-164.829	-0.001405	0.017313	-1.052065	-1.053413	0.040854	37.2074	-1.052889	-1.167470E+14	-3.499378E-16	NaN
718	1.000000	0.026663	7.37208e+06	-41189.1	1005.82	-29787.1	0.000000	0.000000	6.026777	0.016001	NaN	0.000000	0.001605	0.001799	28.0838	0.052147	0.001956	26.6585	-34.0114	-159.713	-0.019143	0.025357	-1.044063	-1.045369	0.016001	26.6585	-1.044513	-9.008533E+13	-1.776236E-16	NaN
718	1.000000	0.034680	7.37208e+06	-41189.1	1005.82	-29787.1	0.000000	0.000000	6.034795	0.037144	NaN	0.000000	0.001562	0.001749	28.0837	0.120403	0.001890	63.6927	-112.109	-166.02	0.118869	0.033344	-1.036046	-1.037382	0.037144	63.6927	-1.036483	-7.025530E+13	-5.287017E-16	NaN
718	1.000000	0.042638	7.37208e+06	-41189.1	1005.82	-29787.1	0.000000	0.000000	6.042752	0.017071	NaN	0.000000	0.001593	0.001794	28.0842	0.125569	0.001944	64.5854	-26.0127	-166.95	0.024752	0.041311	-1.028088	-1.029415	0.017071	64.5854	-1.028287	-5.450455E+13	-3.131955E-16	NaN
718	1.000000	0.050634	7.37208e+06	-41189.1	1005.82	-29787.1	0.000000	0.000000	6.050749	0.031186	NaN	0.000000	0.001596	0.001804	28.0839	0.103033	0.002004	51.4138	78.5404	-166.548	-0.035715	0.049310	-1.020092	-1.021416	0.031186	51.4138	-1.020547	-4.288574E+13	-7.271926E-16	NaN
718	1.000000	0.058670	7.37208e+06	-41189.1	1005.82	-29787.1	0.000000	0.000000	6.058784	0.007518	NaN	0.000000	0.001580	0.001797	28.0844	0.110030	0.001957	56.2274	-123.166	-169.721	0.001060	0.057343	-1.012056	-1.013383	0.007518	56.2274	-1.012157	-3.306804E+13	-2.273558E-16	NaN
718	1.000000	0.066636	7.37208e+06	-41189.1	1005.82	-29787.1	0.000000	0.000000	6.066751	0.023384	NaN	0.000000	0.001561	0.001789	28.0837	0.105922	0.001858	57.0181	128.647	-168.177	0.053885	0.065358	-1.004090	-1.005368	0.023384	57.0181	-1.004398	-2.599994E+13	-8.993766E-16	NaN
718	1.000000	0.074656	7.37208e+06	-41189.1	1005.82	-29787.1	0.000000	0.000000	6.074770	-0.019250	NaN	0.000000	0.001588	0.001789	28.0841	0.048661	0.002034	23.9271	-117.514	-164.01	0.062691	0.073336	-0.996070	-0.997390	-0.019250	23.9271	-0.995466	-1.971169E+13	9.765822E-16	NaN
718	1.000000	0.082650	7.37208e+06	-41189.1	1005.82	-29787.1	0.000000	0.000000	6.082764	0.021924	NaN	0.000000	0.001671	0.001828	28.0839	0.121222	0.002025	59.8701	-92.7266	-161.743	0.042266	0.081300	-0.988076	-0.989426	0.021924	59.8701	-0.988351	-1.580898E+13	-1.386809E-15	NaN
718	1.000000	0.090650	7.37208e+06	-41189.1	1005.82	-29787.1	0.000000	0.000000	6.090766	0.060211	NaN	0.000000	0.001688	0.001825	28.084	0.119480	0.002038	58.6119	-101.755	-160.599	0.071719	0.089315	-0.980076	-0.981411	0.060211	58.6119	-0.980847	-1.252607E+13	-4.806826E-15	NaN
718	1.000000	0.098647	7.37208e+06	-41189.1	1005.82	-29787.1	0.000000	0.000000	6.098765	0.098608	NaN	0.000000	0.001664	0.001817	28.0843	0.027365	0.001968	13.9043	-29.1049	-163.472	0.087936	0.097331	-0.972079	-0.973395	0.098608	13.9043	-0.977398	-1.125523E+13	-8.761062E-15	NaN
718	1.000000	0.106672	7.37208e+06	-41189.1	1005.82	-29787.1	0.000000	0.000000	6.106787	0.026556	NaN	0.000000	0.001701	0.001791	28.0842	0.121866	0.001965	62.0051	-31.8248	-165.726	0.092783	0.105323	-0.964054	-0.965403	0.026556	62.0051	-0.964375	-7.513606E+12	-3.534389E-15	NaN
718	1.000000	0.114653	7.37208e+06	-41189.1	1005.82	-29787.1	0.000000	0.000000	6.114769	0.050005	NaN	0.000000	0.001644	0.001799	28.0844	0.055690	0.001850	30.1	-66.4605	-164.091	0.036651	0.113397	-0.956073	-0.957329	0.050005	30.1	-0.957319	-6.035652E+12	-8.284958E-15	NaN
718	1.000000	0.122661	7.37208e+06	-41189.1	1005.82	-29787.1	0.000000	0.000000	6.122777	0.050207	NaN	0.000000	0.001674	0.001798	28.0841	0.119766	0.002044	58.5827	139.023	-167.018	-0.001856	0.121345	-0.948065	-0.949381	0.050207	58.5827	-0.948707	-4.619504E+12	-1.086857E-14	NaN
718	1.000000	0.130666	7.37208e+06	-41189.1	1005.82	-29787.1	0.000000	0.000000	6.130781	0.031319	NaN	0.000000	0.001668	0.001810	28.0844	0.143707	0.002068	69.507	-93.0012	-163.246	0.082742	0.129330	-0.940060	-0.941396	0.031319	69.507	-0.940398	-3.568706E+12	-8.775972E-15	NaN
718	1.000000	0.138671	7.37208e+06	-41189.1	1005.82	-29787.1	0.000000	0.000000	6.138788	0.074027	NaN	0.000000	0.001656	0.001789	28.084	0.034420	0.002010	17.1283	-33.4522	-167.519	0.088789	0.137291	-0.932055	-0.933435	0.074027	17.1283	-0.935296	-3.045572E+12	-2.430648E-14	NaN
718	1.000000	0.146655	7.37208e+06	-41189.1	1005.82	-29787.1	0.000000	0.000000	6.146768	-0.021454	NaN	0.000000	0.001651	0.001780	28.0841	0.067383	0.002006	33.5857	149.843	-163.704	-0.000518	0.145344	-0.924071	-0.925382	-0.021454	33.5857	-0.923592	-2.116898E+12	1.013469E-14	NaN
718	1.000000	0.154657	7.37208e+06	-41189.1	1005.82	-29787.1	0.000000	0.000000	6.154772	0.047897	NaN	0.000000	0.001657	0.001761	28.0843	0.065742	0.002096	31.362	150.277	-165.848	0.051773	0.153355	-0.916070	-0.917371	0.047897	31.362	-0.917215	-1.736205E+12	-2.758698E-14	NaN
718	1.000000	0.162675	7.37208e+06	-41189.1	1005.82	-29787.1	0.000000	0.000000	6.162791	0.048832	NaN	0.000000	0.001692	0.001798	28.0827	0.043806	0.002000	21.8994	157.717	-166.357	0.042974	0.161272	-0.908051	-0.909454	0.048832	21.8994	-0.909723	-1.375395E+12	-3.550412E-14	NaN
718	1.000000	0.170694	7.37208e+06	-41189.1	1005.82	-29787.1	0.000000	0.000000	6.170809	0.036639	NaN	0.000000	0.001668	0.001815	28.0829	0.107419	0.002086	51.4908	151.527	-163.092	0.051778	0.169401	-0.900032	-0.901325	0.036639	51.4908	-0.900566	-1.034455E+12	-3.541878E-14	NaN
718	1.000000	0.178692	7.37208e+06	-41189.1	1005.82	-29787.1	0.000000	0.000000	6.178808	0.049454	NaN	0.000000	0.001660	0.001784	28.0829	0.099392	0.002103	47.2673	-94.3183	-162.004	0.006200	0.177379	-0.892034	-0.893347	0.049454	47.2673	-0.892819	-8.128573E+11	-6.084007E-14	NaN
718	1.000000	0.186659	7.37208e+06	-41189.1	1005.82	-29787.1	0.000000	0.000000	6.186775	0.070603	NaN	0.000000	0.001636	0.001770	28.0828	0.078088	0.002032	38.4221	2.820098	-165.925	0.046461	0.185443	-0.884068	-0.885283	0.070603	38.4221	-0.885446	-6.461678E+11	-1.092640E-13	NaN
718	1.000000	0.194690	7.37208e+06	-41189.1	1005.82	-29787.1	0.000000	0.000000	6.194804	-0.001878	NaN	0.000000	0.001510	0.001773	28.0828	0.087723	0.002002	43.8104	152.225	-165.573	-0.068166	0.193427	-0.876036	-0.877299	-0.001878	43.8104	-0.876003	-4.815665E+11	3.900648E-15	NaN
718	1.000000	0.202708	7.37208e+06	-41189.1	1005.82	-29787.1	0.000000	0.000000	6.202823	0.044701	NaN	0.000000	0.001574	0.001758	28.0825	0.078203	0.001953	40.039	-157.579	-166.779	0.072972	0.201395	-0.868018	-0.869331	0.044701	40.039	-0.868856	-3.854445E+11	-1.159720E-13	NaN
718	1.000000	0.210690	7.37208e+06	-41189.1	1005.82	-29787.1	0.000000	0.000000	6.210809	0.107452	NaN	0.000000	0.001614	0.001805	28.0831	0.107537	0.001990	54.0271	161.86	-163.645	0.078337	0.209396	-0.860036	-0.861330	0.107452	54.0271	-0.861527	-3.067552E+11	-3.502847E-13	NaN
718	1.000000	0.218723	7.37208e+06	-41189.1	1005.82	-29787.1	0.000000	0.000000	6.218836	-0.020313	NaN	0.000000	0.001634	0.001781	28.0829	0.095744	0.001990	48.1216	-179.416	-163.433	0.017817	0.217431	-0.852003	-0.853295	-0.020313	48.1216	-0.851686	-2.257194E+11	8.999188E-14	NaN
718	1.000000	0.226733	7.37208e+06	-41189.1	1005.82	-29787.1	0.000000	0.000000	6.226847	-0.003309	NaN	0.000000	0.001607	0.001813	28.083	0.094342	0.001976	47.7354	-41.7357	-163.457	0.099148	0.225455	-0.843993	-0.845272	-0.003309	47.7354	-0.843941	-1.772861E+11	1.866386E-14	NaN
718	1.000000	0.234676	7.37208e+06	-41189.1	1005.82	-29787.1	0.000000	0.000000	6.234792	0.056018	NaN	0.000000	0.001615	0.001847	28.083	0.096048	0.001845	52.0561	179.72	-166.994	0.095129	0.233387	-0.836051	-0.837339	0.056018	52.0561	-0.836858	-1.421407E+11	-3.941060E-13	NaN
718	1.000000	0.242720	7.37208e+06	-41189.1	1005.82	-29787.1	0.000000	0.000000	6.242833	-0.018141	NaN	0.000000	0.001582	0.001816	28.0829	0.049680	0.002099	23.6698	-66.0282	-166.401	0.008708	0.241434	-0.828006	-0.829292	-0.018141	23.6698	-0.827432	-1.059182E+11	1.712728E-13	NaN
718	1.000000	0.250685	7.37208e+06	-41189.1	1005.82	-29787.1	0.000000	0.000000	6.250800	0.027297	NaN	0.000000	0.001597	0.001776	28.083	0.028575	0.001935	14.7699	26.4881	-162.883	0.026698	0.249457	-0.820041	-0.821269	0.027297	14.7699	-0.821427	-8.781301E+10	-3.108513E-13	NaN
718	1.000000	0.258724	7.37208e+06	-41189.1	1005.82	-29787.1	0.000000	0.000000	6.258839	0.030096	NaN	0.000000	0.001593	0.001812	28.0828	0.045788	0.002049	22.3456	-108.635	-164.767	0.100331	0.257418	-0.812002	-0.813308	0.030096	22.3456	-0.813012	-6.752047E+10	-4.457280E-13	NaN
718	1.000000	0.266680	7.37208e+06	-41189.1	1005.82	-29787.1	0.000000	0.000000	6.266795	0.035896	NaN	0.000000	0.001562	0.001773	28.083	0.096460	0.001998	48.2881	152.716	-166.776	0.045761	0.265456	-0.804046	-0.805270	0.035896	48.2881	-0.804604	-5.192196E+10	-6.913419E-13	NaN
718	1.000000	0.274730	7.37208e+06	-41189.1	1005.82	-29787.1	0.000000	0.000000	6.274846	0.056562	NaN	0.000000	0.001609	0.001780	28.0828	0.060975	0.001942	31.3907	-178.106	-163.517	0.102498	0.273435	-0.795996	-0.797291	0.056562	31.3907	-0.797348	-4.138625E+10	-1.366695E-12	NaN
718	1.000000	0.282732	7.37208e+06	-41189.1	1005.82	-29787.1	0.000000	0.000000	6.282847	0.032669	NaN	0.000000	0.001578	0.001761	28.0827	0.025843	0.002005	12.8886	-9.086860	-164.347	0.093697	0.281425	-0.787994	-0.789301	0.032669	12.8886	-0.789895	-3.278401E+10	-9.964769E-13	NaN
718	1.000000	0.290745	7.37208e+06	-41189.1	1005.82	-29787.1	0.000000	0.000000	6.290858	-0.008820	NaN	0.000000	0.001585	0.001727	28.0828	0.152901	0.002046	74.74	173.334	-164.679	-0.023973	0.289440	-0.779982	-0.781286	-0.008820	74.74	-0.779893	-2.397609E+10	3.678633E-13	NaN
718	1.000000	0.298740	7.37208e+06	-41189.1	1005.82	-29787.1	0.000000	0.000000	6.298856	0.057660	NaN	0.000000	0.001576	0.001724	28.0837	0.145942	0.001909	76.4634	-126.198	-163.97	0.042333	0.297401	-0.771986	-0.773325	0.057660	76.4634	-0.772552	-1.905437E+10	-3.026069E-12	NaN
718	1.000000	0.306730	7.37208e+06	-41189.1	1005.82	-29787.1	0.000000	0.000000	6.306845	0.037776	NaN	0.000000	0.001599	0.001751	28.0841	0.036505	0.001991	18.3378	-155.22	-165.344	-0.033821	0.305464	-0.763996	-0.765262	0.037776	18.3378	-0.765541	-1.529943E+10	-2.469137E-12	NaN
718	1.000000	0.314751	7.37208e+06	-41189.1	1005.82	-29787.1	0.000000	0.000000	6.314864	-0.037789	NaN	0.000000	0.001596	0.001791	28.0839	0.090845	0.002059	44.1148	-167.565	-163.909	-0.046389	0.313460	-0.755975	-0.757266	-0.037789	44.1148	-0.755332	-1.111208E+10	3.400691E-12	NaN
718	1.000000	0.322733	7.37208e+06	-41189.1	1005.82	-29787.1	0.000000	0.000000	6.322847	-0.009354	NaN	0.000000	0.001588	0.001778	28.0841	0.151731	0.001858	81.6492	-32.6806	-160.782	0.057592	0.321423	-0.747993	-0.749303	-0.009354	81.6492	-0.747907	-8.805014E+9	1.062295E-12	NaN
718	1.000000	0.330777	7.37208e+06	-41189.1	1005.82	-29787.1	0.000000	0.000000	6.330892	0.029007	NaN	0.000000	0.001591	0.001765	28.084	0.093920	0.001960	47.9118	-28.8362	-162.286	0.052762	0.329446	-0.739949	-0.741280	0.029007	47.9118	-0.740403	-6.959015E+9	-4.168272E-12	NaN
718	1.000000	0.338733	7.37208e+06	-41189.1	1005.82	-29787.1	0.000000	0.000000	6.338849	0.051144	NaN	0.000000	0.001573	0.001767	28.0839	0.040928	0.001977	20.6996	7.128679	-163.674	0.087701	0.337457	-0.731993	-0.733269	0.051144	20.6996	-0.733846	-5.665323E+9	-9.027513E-12	NaN
718	1.000000	0.346746	7.37208e+06	-41189.1	1005.82	-29787.1	0.000000	0.000000	6.346859	-0.000845	NaN	0.000000	0.001550	0.001779	28.084	0.116733	0.001975	59.1138	131.971	-164.071	0.074673	0.345422	-0.723981	-0.725304	-0.000845	59.1138	-0.723970	-4.155335E+9	2.033052E-13	NaN
718	1.000000	0.354772	7.37208e+06	-41189.1	1005.82	-29787.1	0.000000	0.000000	6.354890	0.085725	NaN	0.000000	0.001601	0.001747	28.084	0.076715	0.002005	38.2682	-111.245	-164.034	0.056321	0.353477	-0.715954	-0.717249	0.085725	38.2682	-0.717634	-3.405682E+9	-2.517104E-11	NaN
718	1.000000	0.362764	7.37208e+06	-41189.1	1005.82	-29787.1	0.000000	0.000000	6.362878	-0.003210	NaN	0.000000	0.001607	0.001742	28.0843	0.037996	0.001998	19.015	118.838	-165.168	0.032096	0.361425	-0.707962	-0.709301	-0.003210	19.015	-0.707835	-2.503251E+9	1.282164E-12	NaN
718	1.000000	0.370790	7.37208e+06	-41189.1	1005.82	-29787.1	0.000000	0.000000	6.370908	0.118766	NaN	0.000000	0.001586	0.001774	28.0843	0.081729	0.001903	42.958	115.145	-163.898	0.056880	0.369480	-0.699936	-0.701246	0.118766	42.958	-0.702010	-2.084388E+9	-5.697887E-11	NaN
718	1.000000	0.378782	7.37208e+06	-41189.1	1005.82	-29787.1	0.000000	0.000000	6.378897	0.014668	NaN	0.000000	0.001602	0.001780	28.0842	0.035288	0.002131	16.5588	65.6525	-160.155	0.055276	0.377527	-0.691944	-0.693200	0.014668	16.5588	-0.692608	-1.550808E+9	-9.458183E-12	NaN
718	1.000000	0.386782	7.37208e+06	-41189.1	1005.82	-29787.1	0.000000	0.000000	6.386900	0.098992	NaN	0.000000	0.001604	0.001750	28.0843	0.154013	0.002129	72.3343	-103.346	-166.405	0.138879	0.385422	-0.683944	-0.685305	0.098992	72.3343	-0.684971	-1.219479E+9	-8.117593E-11	NaN
718	1.000000	0.394752	7.37208e+06	-41189.1	1005.82	-29787.1	0.000000	0.000000	6.394870	0.099724	NaN	0.000000	0.001607	0.001759	28.0841	0.045724	0.001915	23.8719	6.245893	-165.192	0.032493	0.393454	-0.675974	-0.677272	0.099724	23.8719	-0.679107	-1.013897E+9	-9.835747E-11	NaN
718	1.000000	0.402781	7.37208e+06	-41189.1	1005.82	-29787.1	0.000000	0.000000	6.402898	0.084715	NaN	0.000000	0.001598	0.001762	28.0841	0.027897	0.002069	13.4858	134.841	-168.049	0.059622	0.401464	-0.667945	-0.669262	0.084715	13.4858	-0.672657	-8.274584E+8	-1.023793E-10	NaN
718	1.000000	0.410766	7.37208e+06	-41189.1	1005.82	-29787.1	0.000000	0.000000	6.410881	0.034912	NaN	0.000000	0.001587	0.001754	28.0842	0.090348	0.002062	43.8135	70.8716	-163.494	0.058382	0.409444	-0.659960	-0.661282	0.034912	43.8135	-0.660558	-5.650764E+8	-6.178352E-11	NaN
718	1.000000	0.418767	7.37208e+06	-41189.1	1005.82	-29787.1	0.000000	0.000000	6.418880	-0.009055	NaN	0.000000	0.001551	0.001791	28.0841	0.112453	0.002058	54.636	-173.756	-166.282	-0.031153	0.417490	-0.651959	-0.653237	-0.009055	54.636	-0.651835	-4.291310E+8	2.109997E-11	NaN
718	1.000000	0.426794	7.37208e+06	-41189.1	1005.82	-29787.1	0.000000	0.000000	6.426907	-0.013648	NaN	0.000000	0.001577	0.001769	28.0838	0.018826	0.001971	9.553978	-26.1524	-166.582	-0.032903	0.425519	-0.643932	-0.645207	-0.013648	9.553978	-0.642861	-3.232505E+8	4.222115E-11	NaN
718	1.000000	0.434811	7.37208e+06	-41189.1	1005.82	-29787.1	0.000000	0.000000	6.434926	0.029018	NaN	0.000000	0.001585	0.001736	28.083	0.109179	0.002135	51.1473	131.832	-163.634	-0.003307	0.433531	-0.635915	-0.637195	0.029018	51.1473	-0.636341	-2.630741E+8	-1.103022E-10	NaN
718	1.000000	0.442804	7.37208e+06	-41189.1	1005.82	-29787.1	0.000000	0.000000	6.442920	0.046173	NaN	0.000000	0.001600	0.001749	28.0825	0.052287	0.001937	26.9982	-93.0553	-168.962	0.103286	0.441510	-0.627922	-0.629216	0.046173	26.9982	-0.629205	-2.099433E+8	-2.199327E-10	NaN
718	1.000000	0.450828	7.37208e+06	-41189.1	1005.82	-29787.1	0.000000	0.000000	6.450944	0.058465	NaN	0.000000	0.001609	0.001735	28.0826	0.128218	0.001992	64.3782	-173.351	-160.417	0.051263	0.449458	-0.619898	-0.621268	0.058465	64.3782	-0.620579	-1.598068E+8	-3.658450E-10	NaN
718	1.000000	0.458811	7.37208e+06	-41189.1	1005.82	-29787.1	0.000000	0.000000	6.458925	0.006681	NaN	0.000000	0.001574	0.001754	28.0826	0.021277	0.001956	10.8764	171.644	-165.3	0.002243	0.457456	-0.611915	-0.613270	0.006681	10.8764	-0.612376	-1.232521E+8	-5.420466E-11	NaN
718	1.000000	0.466815	7.37208e+06	-41189.1	1005.82	-29787.1	0.000000	0.000000	6.466931	0.052807	NaN	0.000000	0.001581	0.001752	28.0826	0.050798	0.002000	25.3958	73.554	-162.684	0.033009	0.465470	-0.603911	-0.605256	0.052807	25.3958	-0.605471	-9.903386E+7	-5.332243E-10	NaN
718	1.000000	0.474823	7.37208e+06	-41189.1	1005.82	-29787.1	0.000000	0.000000	6.474939	0.047527	NaN	0.000000	0.001591	0.001773	28.083	0.019114	0.001998	9.568591	-86.6379	-163.309	-0.022408	0.473528	-0.595903	-0.597199	0.047527	9.568591	-0.599628	-8.228876E+7	-5.775609E-10	NaN
718	1.000000	0.482815	7.37208e+06	-41189.1	1005.82	-29787.1	0.000000	0.000000	6.482931	0.052805	NaN	0.000000	0.001588	0.001729	28.0826	0.031159	0.001841	16.9256	-73.927	-168.376	0.026060	0.481480	-0.587911	-0.589246	0.052805	16.9256	-0.590251	-6.111221E+7	-8.640600E-10	NaN
718	1.000000	0.490826	7.37208e+06	-41189.1	1005.82	-29787.1	0.000000	0.000000	6.490941	0.010170	NaN	0.000000	0.001576	0.001755	28.0829	0.050462	0.002006	25.1607	-108.997	-162.884	0.059974	0.489526	-0.579900	-0.581200	0.010170	25.1607	-0.580203	-4.441444E+7	-2.289718E-10	NaN
718	1.000000	0.498840	7.37208e+06	-41189.1	1005.82	-29787.1	0.000000	0.000000	6.498953	-0.008429	NaN	0.000000	0.001615	0.001773	28.0828	0.024078	0.002050	11.7452	-148.612	-164.431	-0.032217	0.497559	-0.571886	-0.573167	-0.008429	11.7452	-0.571348	-3.351632E+7	2.514790E-10	NaN
718	1.000000	0.506812	7.37208e+06	-41189.1	1005.82	-29787.1	0.000000	0.000000	6.506926	0.001676	NaN	0.000000	0.001551	0.001807	28.0826	0.049222	0.002061	23.8862	-18.5555	-164.229	0.052266	0.505506	-0.563914	-0.565220	0.001676	23.8862	-0.563966	-2.649927E+7	-6.323313E-11	NaN
718	1.000000	0.514836	7.37208e+06	-41189.1	1005.82	-29787.1	0.000000	0.000000	6.514950	0.004602	NaN	0.000000	0.001575	0.001798	28.0827	0.110325	0.002036	54.186	-102.529	-164.909	-0.027451	0.513520	-0.555890	-0.557206	0.004602	54.186	-0.555954	-2.053003E+7	-2.241364E-10	NaN
718	1.000000	0.522850	7.37208e+06	-41189.1	1005.82	-29787.1	0.000000	0.000000	6.522966	0.043222	NaN	0.000000	0.001612	0.001744	28.0827	0.054244	0.001929	28.1212	-139.269	-166.094	0.046367	0.521553	-0.547876	-0.549173	0.043222	28.1212	-0.549029	-1.646281E+7	-2.625412E-9	NaN
718	1.000000	0.530843	7.37208e+06	-41189.1	1005.82	-29787.1	0.000000	0.000000	6.530962	0.121865	NaN	0.000000	0.001575	0.001803	28.0828	0.066881	0.001933	34.5925	178.883	-163.023	0.061974	0.529564	-0.539883	-0.541162	0.121865	34.5925	-0.542526	-1.337765E+7	-9.109566E-9	NaN
718	1.000000	0.538869	7.37208e+06	-41189.1	1005.82	-29787.1	0.000000	0.000000	6.538983	-0.014098	NaN	0.000000	0.001602	0.001761	28.0828	0.086042	0.001931	44.568	38.89	-164.724	0.012583	0.537561	-0.531857	-0.533165	-0.014098	44.568	-0.531620	-9.44203e+06	1.493107E-9	NaN
718	1.000000	0.546800	7.37208e+06	-41189.1	1005.82	-29787.1	0.000000	0.000000	6.546913	-0.011586	NaN	0.000000	0.001625	0.001702	28.0829	0.073705	0.001956	37.6877	-60.9139	-163.799	0.052207	0.545435	-0.523926	-0.525291	-0.011586	37.6877	-0.523696	-7.32799e+06	1.581106E-9	NaN
718	1.000000	0.554816	7.37208e+06	-41189.1	1005.82	-29787.1	0.000000	0.000000	6.554929	-0.018104	NaN	0.000000	0.001560	0.001723	28.0827	0.038132	0.001959	19.4617	-124.908	-166.187	0.041386	0.553549	-0.515910	-0.517177	-0.018104	19.4617	-0.515212	-5.58453e+06	3.241833E-9	NaN
718	1.000000	0.562854	7.37208e+06	-41189.1	1005.82	-29787.1	0.000000	0.000000	6.562969	0.026194	NaN	0.000000	0.001605	0.001721	28.0825	0.039946	0.001947	20.5127	-170.646	-165.366	0.025952	0.561577	-0.507872	-0.509149	0.026194	20.5127	-0.508830	-4.55111e+06	-5.755547E-9	NaN
718	1.000000	0.570868	7.37208e+06	-41189.1	1005.82	-29787.1	0.000000	0.000000	6.570983	0.025896	NaN	0.000000	0.001582	0.001725	28.0832	0.076084	0.001899	40.0582	169.936	-169.104	0.046794	0.569545	-0.499858	-0.501181	0.025896	40.0582	-0.500343	-3.46582e+06	-7.471922E-9	NaN
718	1.000000	0.578856	7.37208e+06	-41189.1	1005.82	-29787.1	0.000000	0.000000	6.578974	0.091976	NaN	0.000000	0.001623	0.001671	28.0839	0.090110	0.001956	46.0738	-179.032	-163.199	0.102862	0.577541	-0.491870	-0.493186	0.091976	46.0738	-0.493367	-2.7697e+06	-3.320802E-8	NaN
718	1.000000	0.586875	7.37208e+06	-41189.1	1005.82	-29787.1	0.000000	0.000000	6.586993	0.111021	NaN	0.000000	0.001620	0.001695	28.084	0.051542	0.002014	25.5967	57.0309	-164.038	0.056037	0.585520	-0.483852	-0.485206	0.111021	25.5967	-0.487105	-2.26423e+06	-4.903279E-8	NaN
718	1.000000	0.594843	7.37208e+06	-41189.1	1005.82	-29787.1	0.000000	0.000000	6.594960	0.061405	NaN	0.000000	0.001570	0.001708	28.084	0.096270	0.001931	49.8423	80.9717	-163.737	0.095563	0.593564	-0.475883	-0.477162	0.061405	49.8423	-0.476807	-1.62486e+06	-3.779079E-8	NaN
718	1.000000	0.602882	7.37208e+06	-41189.1	1005.82	-29787.1	0.000000	0.000000	6.602997	0.032107	NaN	0.000000	0.001587	0.001718	28.0838	0.026629	0.002036	13.0796	5.433043	-164.16	0.025106	0.601554	-0.467844	-0.469172	0.032107	13.0796	-0.469685	-1.29119e+06	-2.486602E-8	NaN
718	1.000000	0.610849	7.37208e+06	-41189.1	1005.82	-29787.1	0.000000	0.000000	6.610964	0.024775	NaN	0.000000	0.001604	0.001727	28.0837	0.099293	0.002001	49.6166	124.43	-165.197	-0.031175	0.609568	-0.459877	-0.461158	0.024775	49.6166	-0.460251	-951813	-2.602906E-8	NaN
718	1.000000	0.618878	7.37208e+06	-41189.1	1005.82	-29787.1	0.000000	0.000000	6.618991	-0.039179	NaN	0.000000	0.001641	0.001711	28.0839	0.039905	0.001997	19.9842	-152.981	-166.415	-0.055851	0.617532	-0.451848	-0.453194	-0.039179	19.9842	-0.450377	-691284	5.667574E-8	NaN
718	1.000000	0.626860	7.37208e+06	-41189.1	1005.82	-29787.1	0.000000	0.000000	6.626978	0.088067	NaN	0.000000	0.001626	0.001721	28.0838	0.041554	0.002088	19.9031	20.0863	-163.334	0.082431	0.625590	-0.443866	-0.445136	0.088067	19.9031	-0.447184	-623273	-1.412970E-7	NaN
718	1.000000	0.634881	7.37208e+06	-41189.1	1005.82	-29787.1	0.000000	0.000000	6.634995	0.003304	NaN	0.000000	0.001625	0.001713	28.0838	0.010148	0.001985	5.112400	-58.8433	-166.613	0.029470	0.633604	-0.435845	-0.437122	0.003304	5.112400	-0.436330	-438073	-7.543086E-9	NaN
718	1.000000	0.642903	7.37208e+06	-41189.1	1005.82	-29787.1	0.000000	0.000000	6.643017	0.010702	NaN	0.000000	0.001619	0.001728	28.0839	0.067271	0.001912	35.1759	-179.552	-165.91	0.054336	0.641577	-0.427823	-0.429149	0.010702	35.1759	-0.428051	-334568	-3.198734E-8	NaN
718	1.000000	0.650878	7.37208e+06	-41189.1	1005.82	-29787.1	0.000000	0.000000	6.650994	0.045669	NaN	0.000000	0.001621	0.001722	28.0838	0.070246	0.002047	34.3182	-141.983	-164.453	0.113899	0.649573	-0.419848	-0.421153	0.045669	34.3182	-0.420846	-264493	-1.726650E-7	NaN
718	1.000000	0.658866	7.37208e+06	-41189.1	1005.82	-29787.1	0.000000	0.000000	6.658981	0.023603	NaN	0.000000	0.001633	0.001703	28.084	0.056360	0.001970	28.6123	-134.315	-165.717	0.094232	0.657529	-0.411860	-0.413197	0.023603	28.6123	-0.412478	-201202	-1.173125E-7	NaN
718	1.000000	0.666888	7.37208e+06	-41189.1	1005.82	-29787.1	0.000000	0.000000	6.667002	0.010242	NaN	0.000000	0.001631	0.001727	28.0838	0.116660	0.002096	55.67	158.523	-164.963	-0.007330	0.665561	-0.403838	-0.405165	0.010242	55.67	-0.403976	-152288	-6.725220E-8	NaN
718	1.000000	0.674881	7.37208e+06	-41189.1	1005.82	-29787.1	0.000000	0.000000	6.674993	-0.040841	NaN	0.000000	0.001633	0.001739	28.0842	0.074016	0.002001	36.9859	166.036	-162.409	0.032282	0.673606	-0.395845	-0.397120	-0.040841	36.9859	-0.395017	-113469	3.599356E-7	NaN
718	1.000000	0.682880	7.37208e+06	-41189.1	1005.82	-29787.1	0.000000	0.000000	6.682993	-0.023063	NaN	0.000000	0.001649	0.001733	28.084	0.099425	0.002131	46.6576	-155.811	-166.083	-0.016011	0.681604	-0.387846	-0.389122	-0.023063	46.6576	-0.387475	-88519.8	2.605437E-7	NaN
718	1.000000	0.690884	7.37208e+06	-41189.1	1005.82	-29787.1	0.000000	0.000000	6.690999	0.020610	NaN	0.000000	0.001639	0.001733	28.084	0.101438	0.001910	53.1147	-3.845721	-162.425	0.014286	0.689606	-0.379842	-0.381120	0.020610	53.1147	-0.380133	-69470.2	-2.966806E-7	NaN
718	1.000000	0.698906	7.37208e+06	-41189.1	1005.82	-29787.1	0.000000	0.000000	6.699021	0.043636	NaN	0.000000	0.001668	0.001703	28.0841	0.068191	0.002005	34.0106	65.1392	-161.753	-0.009778	0.697625	-0.371820	-0.373101	0.043636	34.0106	-0.372783	-54473.2	-8.010540E-7	NaN
718	1.000000	0.706902	7.37208e+06	-41189.1	1005.82	-29787.1	0.000000	0.000000	6.707015	-0.005559	NaN	0.000000	0.001611	0.001718	28.0833	0.050427	0.002017	24.9971	101.156	-159.831	-0.019179	0.705612	-0.363824	-0.365115	-0.005559	24.9971	-0.363658	-40242.3	1.381374E-7	NaN
718	1.000000	0.714913	7.37208e+06	-41189.1	1005.82	-29787.1	0.000000	0.000000	6.715027	0.017934	NaN	0.000000	0.001603	0.001730	28.0826	0.037519	0.002085	17.9924	-121.277	-165.531	0.017147	0.713606	-0.355813	-0.357120	0.017934	17.9924	-0.356561	-31776	-5.643997E-7	NaN
718	1.000000	0.722897	7.37208e+06	-41189.1	1005.82	-29787.1	0.000000	0.000000	6.723013	0.046390	NaN	0.000000	0.001655	0.001693	28.0826	0.081171	0.001915	42.3788	137.587	-161.129	0.073335	0.721613	-0.347829	-0.349113	0.046390	42.3788	-0.348650	-24401.1	-1.901163E-6	NaN
718	1.000000	0.730921	7.37208e+06	-41189.1	1005.82	-29787.1	0.000000	0.000000	6.731033	-0.051433	NaN	0.000000	0.001656	0.001694	28.0828	0.109424	0.001987	55.0655	81.8984	-165.146	-0.016608	0.729618	-0.339805	-0.341108	-0.051433	55.0655	-0.339105	-17721.5	2.902311E-6	NaN
718	1.000000	0.738930	7.37208e+06	-41189.1	1005.82	-29787.1	0.000000	0.000000	6.739043	-0.006354	NaN	0.000000	0.001622	0.001705	28.0828	0.067883	0.002131	31.859	18.6409	-163.796	0.050244	0.737579	-0.331796	-0.333147	-0.006354	31.859	-0.331647	-13789.8	4.607478E-7	NaN
718	1.000000	0.746908	7.37208e+06	-41189.1	1005.82	-29787.1	0.000000	0.000000	6.747024	0.063031	NaN	0.000000	0.001634	0.001733	28.0824	0.085136	0.002052	41.4871	-68.0729	-166.887	0.112672	0.745619	-0.323818	-0.325107	0.063031	41.4871	-0.324958	-11003.2	-5.728397E-6	NaN
718	1.000000	0.754919	7.37208e+06	-41189.1	1005.82	-29787.1	0.000000	0.000000	6.755036	0.070552	NaN	0.000000	0.001634	0.001734	28.0829	0.024007	0.002008	11.9539	57.6121	-165.512	0.045130	0.753674	-0.315807	-0.317052	0.070552	11.9539	-0.320233	-9377.12	-7.523806E-6	NaN
718	1.000000	0.762944	7.37208e+06	-41189.1	1005.82	-29787.1	0.000000	0.000000	6.763059	0.030755	NaN	0.000000	0.001596	0.001691	28.0826	0.063770	0.001951	32.6892	136.914	-165.133	0.080194	0.761650	-0.307782	-0.309076	0.030755	32.6892	-0.308488	-6290.27	-4.889255E-6	NaN
718	1.000000	0.770968	7.37208e+06	-41189.1	1005.82	-29787.1	0.000000	0.000000	6.771083	0.027931	NaN	0.000000	0.001584	0.001741	28.0828	0.021085	0.001912	11.0269	-41.7576	-165.116	-0.019803	0.769622	-0.299758	-0.301104	0.027931	11.0269	-0.301658	-4980.86	-5.607687E-6	NaN
718	1.000000	0.778955	7.37208e+06	-41189.1	1005.82	-29787.1	0.000000	0.000000	6.779069	-0.001401	NaN	0.000000	0.001601	0.001732	28.0827	0.052139	0.001881	27.7138	121.294	-165.284	-0.015272	0.777618	-0.291771	-0.293108	-0.001401	27.7138	-0.291733	-3542.07	3.953944E-7	NaN
718	1.000000	0.786965	7.37208e+06	-41189.1	1005.82	-29787.1	0.000000	0.000000	6.787081	0.069698	NaN	0.000000	0.001590	0.001712	28.0826	0.021338	0.002062	10.3498	135.868	-167.083	0.118800	0.785650	-0.283762	-0.285076	0.069698	10.3498	-0.288812	-3202.58	-2.176320E-5	NaN
718	1.000000	0.794921	7.37208e+06	-41189.1	1005.82	-29787.1	0.000000	0.000000	6.795035	-0.014270	NaN	0.000000	0.001537	0.001715	28.0829	0.117679	0.001997	58.9223	-114.355	-165.397	-0.007975	0.793666	-0.275805	-0.277060	-0.014270	58.9223	-0.275623	-2026.92	7.040383E-6	NaN
718	1.000000	0.802978	7.37208e+06	-41189.1	1005.82	-29787.1	0.000000	0.000000	6.803092	0.011797	NaN	0.000000	0.001565	0.001721	28.0826	0.021310	0.002045	10.4196	-78.7839	-162.32	0.015955	0.801643	-0.267748	-0.269084	0.011797	10.4196	-0.268597	-1585.66	-7.440003E-6	NaN
718	1.000000	0.810963	7.37208e+06	-41189.1	1005.82	-29787.1	0.000000	0.000000	6.811078	0.024691	NaN	0.000000	0.001585	0.001722	28.0827	0.122016	0.002030	60.1207	-88.5634	-166.505	0.056196	0.809609	-0.259763	-0.261117	0.024691	60.1207	-0.260071	-1174.92	-2.101538E-5	NaN
718	1.000000	0.818962	7.37208e+06	-41189.1	1005.82	-29787.1	0.000000	0.000000	6.819073	-0.068232	NaN	0.000000	0.001619	0.001731	28.0826	0.078236	0.002080	37.612	173.823	-164.681	-0.088095	0.817671	-0.251764	-0.253056	-0.068232	37.612	-0.250404	-834.085	8.180431E-5	NaN
718	1.000000	0.826962	7.37208e+06	-41189.1	1005.82	-29787.1	0.000000	0.000000	6.827075	-0.027429	NaN	0.000000	0.001572	0.001714	28.0828	0.118076	0.001980	59.6319	-75.9785	-162.972	-0.054377	0.825633	-0.243764	-0.245093	-0.027429	59.6319	-0.243419	-649.923	4.220411E-5	NaN
718	1.000000	0.834940	7.37208e+06	-41189.1	1005.82	-29787.1	0.000000	0.000000	6.835056	0.032783	NaN	0.000000	0.001598	0.001724	28.0827	0.054344	0.002087	26.0444	-87.9355	-165.251	0.165777	0.833672	-0.235786	-0.237054	0.032783	26.0444	-0.236730	-510.959	-6.415989E-5	NaN
718	1.000000	0.843001	7.37208e+06	-41189.1	1005.82	-29787.1	0.000000	0.000000	6.843117	0.033231	NaN	0.000000	0.001595	0.001715	28.083	0.008864	0.001885	4.702858	34.0732	-166.607	0.041239	0.841639	-0.227725	-0.229087	0.033231	4.702858	-0.233024	-446.882	-7.436197E-5	NaN
718	1.000000	0.850956	7.37208e+06	-41189.1	1005.82	-29787.1	0.000000	0.000000	6.851072	0.063702	NaN	0.000000	0.001575	0.001710	28.0842	0.017964	0.002048	8.770894	-54.0843	-168.599	0.030572	0.849673	-0.219770	-0.221053	0.063702	8.770894	-0.225217	-336.346	-0.000189	NaN
718	1.000000	0.858971	7.37208e+06	-41189.1	1005.82	-29787.1	0.000000	0.000000	6.859087	0.049125	NaN	0.000000	0.001614	0.001718	28.0838	0.083396	0.001936	43.083	-114.949	-165.574	-0.001740	0.857681	-0.211755	-0.213045	0.049125	43.083	-0.212610	-211.354	-0.000232	NaN
718	1.000000	0.866985	7.37208e+06	-41189.1	1005.82	-29787.1	0.000000	0.000000	6.867101	0.049154	NaN	0.000000	0.001601	0.001692	28.0842	0.052475	0.002007	26.1412	136.787	-166.82	0.029753	0.865611	-0.203741	-0.205115	0.049154	26.1412	-0.205151	-159.966	-0.000307	NaN
718	1.000000	0.874990	7.37208e+06	-41189.1	1005.82	-29787.1	0.000000	0.000000	6.875104	0.007126	NaN	0.000000	0.001581	0.001692	28.0841	0.164173	0.001875	87.5469	-163.181	-163.394	0.005221	0.873691	-0.195736	-0.197036	0.007126	87.5469	-0.195797	-112.306	-6.345524E-5	NaN
718	1.000000	0.883017	7.37208e+06	-41189.1	1005.82	-29787.1	0.000000	0.000000	6.883131	0.015555	NaN	0.000000	0.001610	0.001682	28.084	0.063188	0.002140	29.5264	-13.0451	-162.583	0.017540	0.881694	-0.187709	-0.189032	0.015555	29.5264	-0.188105	-83.6203	-0.000186	NaN
718	1.000000	0.890988	7.37208e+06	-41189.1	1005.82	-29787.1	0.000000	0.000000	6.891103	0.028230	NaN	0.000000	0.001606	0.001668	28.0843	0.087125	0.002071	42.0728	-36.9932	-166.632	0.094937	0.889692	-0.179738	-0.181035	0.028230	42.0728	-0.180241	-61.5983	-0.000458	NaN
718	1.000000	0.898984	7.37208e+06	-41189.1	1005.82	-29787.1	0.000000	0.000000	6.899099	0.018712	NaN	0.000000	0.001586	0.001714	28.0841	0.063791	0.001873	34.0502	-60.1939	-162.355	-0.056249	0.897701	-0.171742	-0.173025	0.018712	34.0502	-0.172154	-44.7649	-0.000418	NaN
718	1.000000	0.907006	7.37208e+06	-41189.1	1005.82	-29787.1	0.000000	0.000000	6.907121	0.016768	NaN	0.000000	0.001593	0.001705	28.0841	0.034492	0.002039	16.9198	82.7688	-166.2	0.043516	0.905688	-0.163720	-0.165038	0.016768	16.9198	-0.164463	-32.8755	-0.000510	NaN
718	1.000000	0.914973	7.37208e+06	-41189.1	1005.82	-29787.1	0.000000	0.000000	6.915089	0.050844	NaN	0.000000	0.001596	0.001731	28.0841	0.049192	0.002079	23.6582	16.3045	-161.846	0.012492	0.913658	-0.155753	-0.157068	0.050844	23.6582	-0.157365	-24.6039	-0.002067	NaN
718	1.000000	0.922962	7.37208e+06	-41189.1	1005.82	-29787.1	0.000000	0.000000	6.923080	0.088930	NaN	0.000000	0.001594	0.001679	28.0854	0.049518	0.001883	26.3038	117.104	-166.931	-0.026092	0.921688	-0.147764	-0.149038	0.088930	26.3038	-0.150299	-18.3427	-0.004848	NaN
718	1.000000	0.931017	7.37208e+06	-41189.1	1005.82	-29787.1	0.000000	0.000000	6.931133	0.050817	NaN	0.000000	0.001575	0.001711	28.084	0.051997	0.002010	25.8753	102.45	-166.163	-0.018588	0.929680	-0.139709	-0.141046	0.050817	25.8753	-0.141182	-12.4486	-0.004082	NaN
718	1.000000	0.939047	7.37208e+06	-41189.1	1005.82	-29787.1	0.000000	0.000000	6.939161	0.002107	NaN	0.000000	0.001585	0.001715	28.0839	0.080659	0.002142	37.651	-159.015	-164.565	0.003533	0.937725	-0.131679	-0.133001	0.002107	37.651	-0.131721	-8.228864	-0.000256	NaN
718	1.000000	0.947028	7.37208e+06	-41189.1	1005.82	-29787.1	0.000000	0.000000	6.947140	-0.043698	NaN	0.000000	0.001615	0.001782	28.0842	0.026112	0.001925	13.5657	-55.9003	-165.769	0.060228	0.945719	-0.123698	-0.125007	-0.043698	13.5657	-0.121282	-5.127377	0.008523	NaN
718	1.000000	0.955020	7.37208e+06	-41189.1	1005.82	-29787.1	0.000000	0.000000	6.955135	0.025238	NaN	0.000000	0.001634	0.001734	28.0839	0.081632	0.001897	43.0248	-20.0999	-164.156	-0.029580	0.953770	-0.115706	-0.116956	0.025238	43.0248	-0.116146	-4.033431	-0.006257	NaN
718	1.000000	0.963031	7.37208e+06	-41189.1	1005.82	-29787.1	0.000000	0.000000	6.963144	-0.015964	NaN	0.000000	0.001612	0.001718	28.0844	0.084073	0.002053	40.9557	-136.673	-165.596	0.013918	0.961685	-0.107695	-0.109041	-0.015964	40.9557	-0.107403	-2.647086	0.006031	NaN
718	1.000000	0.971024	7.37208e+06	-41189.1	1005.82	-29787.1	0.000000	0.000000	6.971142	0.102798	NaN	0.000000	0.001617	0.001698	28.0841	0.014170	0.001943	7.292998	-133.774	-162.367	0.120904	0.969653	-0.099702	-0.101073	0.102798	7.292998	-0.110274	-3.045399	-0.033755	NaN
718	1.000000	0.978996	7.37208e+06	-41189.1	1005.82	-29787.1	0.000000	0.000000	6.979113	0.071003	NaN	0.000000	0.001615	0.001701	28.084	0.085423	0.001955	43.7057	99.9729	-164.933	0.084631	0.977708	-0.091730	-0.093018	0.071003	43.7057	-0.092949	-1.265897	-0.056089	NaN
718	1.000000	0.987028	7.37208e+06	-41189.1	1005.82	-29787.1	0.000000	0.000000	6.987141	-0.021818	NaN	0.000000	0.001597	0.001733	28.0828	0.034206	0.001987	17.212	-2.232386	-160.838	0.010154	0.985682	-0.083698	-0.085044	-0.021818	17.212	-0.082747	-0.724041	0.030134	NaN
718	1.000000	0.994994	7.37208e+06	-41189.1	1005.82	-29787.1	0.000000	0.000000	6.995111	0.065071	NaN	0.000000	0.001598	0.001718	28.0826	0.036878	0.002006	18.3802	-151.368	-169.041	0.147630	0.993711	-0.075732	-0.077015	0.065071	18.3802	-0.078387	-0.563807	-0.115413	NaN
718	1.000000	1.003068	7.37208e+06	-41189.1	1005.82	-29787.1	0.000000	0.000000	7.003182	-0.018655	NaN	0.000000	0.001596	0.001731	28.083	0.109388	0.001931	56.6599	-97.229	-167.308	0.046785	1.001764	-0.067658	-0.068962	-0.018655	56.6599	-0.067411	-0.290332	0.064254	NaN
718	1.000000	1.011033	7.37208e+06	-41189.1	1005.82	-29787.1	0.000000	0.000000	7.011146	-0.016327	NaN	0.000000	0.001589	0.001700	28.0826	0.051480	0.002030	25.3642	-137.46	-162.436	-0.067029	1.009772	-0.059693	-0.060954	-0.016327	25.3642	-0.059211	-0.170922	0.095521	NaN
718	1.000000	1.019012	7.37208e+06	-41189.1	1005.82	-29787.1	0.000000	0.000000	7.019124	-0.044861	NaN	0.000000	0.001614	0.001738	28.0825	0.025922	0.002044	12.6816	149.957	-165.452	-0.031651	1.017748	-0.051714	-0.052978	-0.044861	12.6816	-0.049061	-0.085466	0.524902	NaN
718	1.000000	1.027027	7.37208e+06	-41189.1	1005.82	-29787.1	0.000000	0.000000	7.027143	0.037781	NaN	0.000000	0.001560	0.001708	28.0825	0.141078	0.002004	70.3948	30.1826	-164.716	-0.010384	1.025727	-0.043699	-0.044999	0.037781	70.3948	-0.044101	-0.060327	-0.626274	NaN
718	1.000000	1.035040	7.37208e+06	-41189.1	1005.82	-29787.1	0.000000	0.000000	7.035156	0.037613	NaN	0.000000	0.001605	0.001679	28.0823	0.050182	0.002052	24.4539	33.5777	-165.501	0.007935	1.033736	-0.035686	-0.036990	0.037613	24.4539	-0.036839	-0.036313	-1.035806	NaN
718	1.000000	1.043025	7.37208e+06	-41189.1	1005.82	-29787.1	0.000000	0.000000	7.043139	0.002034	NaN	0.000000	0.001556	0.001675	28.0828	0.073746	0.001973	37.3831	-171.67	-167.112	-0.004758	1.041734	-0.027701	-0.028992	0.002034	37.3831	-0.027742	-0.019952	-0.101954	NaN
718	1.000000	1.051048	7.37208e+06	-41189.1	1005.82	-29787.1	0.000000	0.000000	7.051164	0.055680	NaN	0.000000	0.001590	0.001707	28.0825	0.131776	0.002076	63.4716	-160.084	-162.401	0.068695	1.049835	-0.019678	-0.020891	0.055680	63.4716	-0.020336	-0.012810	-4.346497	NaN
718	1.000000	1.059063	7.37208e+06	-41189.1	1005.82	-29787.1	0.000000	0.000000	7.059178	0.031005	NaN	0.000000	0.001634	0.001675	28.0829	0.172197	0.001986	86.721	-33.084	-163.115	0.069279	1.057784	-0.011663	-0.012942	0.031005	86.721	-0.011931	-0.007489	-4.139897	NaN
718	1.000000	1.067054	7.37208e+06	-41189.1	1005.82	-29787.1	0.000000	0.000000	7.067185	0.414208	NaN	0.000000	0.001639	0.001689	28.0826	0.684542	0.002051	333.793	6.973537	-164.346	0.059606	1.065659	-0.003672	-0.005067	0.414208	333.793	-0.004603	-0.003166	-130.841	NaN
718	2.000000	1.074477	7.37208e+06	-41189.1	1005.82	-29787.1	0.000000	0.000000	7.074931	8.262520	NaN	0.000000	0.001633	0.001685	28.0828	8.329774	0.001588	5245.63	7.575349	-170.743	7.869014	1.073685	0.003751	0.002959	8.262520	5245.63	0.002570	0.002021	4088.2	106606
718	2.000000	1.076620	7.37208e+06	-41189.1	1005.82	-29787.1	0.000000	0.000000	7.077166	10.5274	NaN	0.000000	0.001589	0.001683	28.0825	11.4041	0.001774	6428.21	10.0439	-174.601	9.994826	1.076307	0.005894	0.005581	10.5274	6428.21	0.004665	0.003830	2748.68	94899.8
718	2.000000	1.078552	7.37208e+06	-41189.1	1005.82	-29787.1	0.000000	0.000000	7.079245	14.0971	NaN	0.000000	0.001570	0.001714	28.0825	12.9225	0.001521	8494.39	4.451461	-174.711	12.9623	1.078311	0.007826	0.007585	14.0971	8494.39	0.006581	0.005623	2506.91	103493
718	2.000000	1.080577	7.37208e+06	-41189.1	1005.82	-29787.1	0.000000	0.000000	7.081497	19.6316	NaN	0.000000	0.001592	0.001707	28.0826	15.8262	0.001716	9222.26	4.995346	-175.189	17.7896	1.080217	0.009850	0.009491	19.6316	9222.26	0.008254	0.007305	2687.49	98584.1
718	2.000000	1.082631	7.37208e+06	-41189.1	1005.82	-29787.1	0.000000	0.000000	7.083564	19.9372	NaN	0.000000	0.001557	0.001742	28.0826	17.6787	0.001775	9960	5.076810	-174.234	19.5958	1.082343	0.011905	0.011617	19.9372	9960	0.010404	0.009634	2069.53	92712
718	2.000000	1.084610	7.37208e+06	-41189.1	1005.82	-29787.1	0.000000	0.000000	7.085827	26.837	NaN	0.000000	0.001582	0.001702	28.083	20.1611	0.001662	12127.9	9.030781	179.438	27.2858	1.084241	0.013884	0.013515	26.837	12127.9	0.012225	0.011760	2282.03	102177
718	2.000000	1.086506	7.37208e+06	-41189.1	1005.82	-29787.1	0.000000	0.000000	7.087932	31.9242	NaN	0.000000	0.001596	0.001718	28.084	22.8899	0.001810	12649.7	5.237642	-177.527	29.673	1.086253	0.015780	0.015527	31.9242	12649.7	0.013887	0.013830	2308.41	98276.7
718	2.000000	1.088528	7.37208e+06	-41189.1	1005.82	-29787.1	0.000000	0.000000	7.090065	34.6318	NaN	0.000000	0.001589	0.001703	28.0839	23.2771	0.001635	14233.6	2.004754	-175.929	33.7522	1.088266	0.017802	0.017540	34.6318	14233.6	0.015977	0.016610	2084.94	100902
718	2.000000	1.090551	7.37208e+06	-41189.1	1005.82	-29787.1	0.000000	0.000000	7.092399	42.2095	NaN	0.000000	0.001587	0.001686	28.0839	25.9938	0.001743	14916.7	6.049634	-179.573	40.5574	1.090195	0.019825	0.019469	42.2095	14916.7	0.017702	0.019060	2214.6	98716.5
718	2.000000	1.092493	7.37208e+06	-41189.1	1005.82	-29787.1	0.000000	0.000000	7.094460	45.0824	NaN	0.000000	0.001598	0.001724	28.0838	27.108	0.001694	15997.8	0.775599	-174.313	40.9774	1.092194	0.021767	0.021468	45.0824	15997.8	0.019653	0.022001	2049.15	98541.1
718	2.000000	1.094508	7.37208e+06	-41189.1	1005.82	-29787.1	0.000000	0.000000	7.096723	51.1145	NaN	0.000000	0.001548	0.001725	28.0843	29.0294	0.001711	16965.7	4.125552	-178.368	48.0045	1.094191	0.023782	0.023465	51.1145	16965.7	0.021522	0.024991	2045.29	98051
718	2.000000	1.096564	7.37208e+06	-41189.1	1005.82	-29787.1	0.000000	0.000000	7.098830	52.3688	NaN	0.000000	0.001604	0.001710	28.084	32.184	0.001844	17454.7	6.316151	178.629	52.4709	1.096296	0.025838	0.025570	52.3688	17454.7	0.023588	0.028497	1837.72	94469.1
718	2.000000	1.098511	7.37208e+06	-41189.1	1005.82	-29787.1	0.000000	0.000000	7.101181	62.1796	NaN	0.000000	0.001569	0.001732	28.0841	32.6266	0.001735	18803.2	5.000301	179.203	60.2074	1.098219	0.027785	0.027493	62.1796	18803.2	0.025305	0.031573	1969.37	96681.7
718	2.000000	1.100529	7.37208e+06	-41189.1	1005.82	-29787.1	0.000000	0.000000	7.103496	69.4253	NaN	0.000000	0.001579	0.001725	28.0838	34.6735	0.001736	19975.6	3.422405	-179.769	68.1984	1.100186	0.029803	0.029460	69.4253	19975.6	0.027196	0.035132	1976.12	97368.8
718	2.000000	1.102553	7.37208e+06	-41189.1	1005.82	-29787.1	0.000000	0.000000	7.105835	77.0943	NaN	0.000000	0.001630	0.001746	28.0839	36.9436	0.001812	20383.1	6.691938	177.823	77.205	1.102134	0.031827	0.031407	77.0943	20383.1	0.028990	0.038677	1993.3	94693.3
718	2.000000	1.104513	7.37208e+06	-41189.1	1005.82	-29787.1	0.000000	0.000000	7.107970	81.363	NaN	0.000000	0.001629	0.001699	28.0842	38.8728	0.001885	20626.3	5.691310	177.683	79.1125	1.104193	0.033787	0.033467	81.363	20626.3	0.030828	0.042478	1915.44	91435.3
718	2.000000	1.106550	7.37208e+06	-41189.1	1005.82	-29787.1	0.000000	0.000000	7.110294	88.3455	NaN	0.000000	0.001620	0.001712	28.0839	40.0698	0.001873	21396.5	3.744816	-179.664	90.0585	1.106216	0.035824	0.035490	88.3455	21396.5	0.032727	0.046586	1896.4	90571
718	2.000000	1.108542	7.37208e+06	-41189.1	1005.82	-29787.1	0.000000	0.000000	7.112721	98.9048	NaN	0.000000	0.001629	0.001739	28.0841	41.6547	0.001745	23876	6.991725	175.912	100.546	1.108213	0.037816	0.037487	98.9048	23876	0.034710	0.051072	1936.58	96525.8
718	2.000000	1.110547	7.37208e+06	-41189.1	1005.82	-29787.1	0.000000	0.000000	7.115080	107.527	NaN	0.000000	0.001611	0.001704	28.0841	43.599	0.001786	24412	5.247886	177.57	107.419	1.110250	0.039821	0.039524	107.527	24412	0.036517	0.055338	1943.1	94812.6
718	2.000000	1.112513	7.37208e+06	-41189.1	1005.82	-29787.1	0.000000	0.000000	7.117546	119.7	NaN	0.000000	0.001593	0.001736	28.0841	45.2484	0.001686	26838.9	1.828665	-179.902	118.153	1.112141	0.041787	0.041415	119.7	26838.9	0.038442	0.060064	1992.86	100053
718	2.000000	1.114494	7.37208e+06	-41189.1	1005.82	-29787.1	0.000000	0.000000	7.119831	127.092	NaN	0.000000	0.001594	0.001724	28.0844	47.5092	0.001811	26228.6	5.763403	175.581	124.495	1.114301	0.043768	0.043575	127.092	26228.6	0.040134	0.064375	1974.25	94447.7
718	2.000000	1.116498	7.37208e+06	-41189.1	1005.82	-29787.1	0.000000	0.000000	7.122259	137.426	NaN	0.000000	0.001575	0.001734	28.084	49.6328	0.001751	28347.5	4.657059	176.079	136.971	1.116233	0.045772	0.045507	137.426	28347.5	0.042136	0.069664	1972.7	98126
718	2.000000	1.118499	7.37208e+06	-41189.1	1005.82	-29787.1	0.000000	0.000000	7.124597	145.613	NaN	0.000000	0.001609	0.001706	28.0841	50.8196	0.001696	29960.8	5.907796	174.205	145.06	1.118272	0.047773	0.047546	145.613	29960.8	0.044128	0.075130	1938.14	99866.3
718	2.000000	1.120511	7.37208e+06	-41189.1	1005.82	-29787.1	0.000000	0.000000	7.127274	161.783	NaN	0.000000	0.001640	0.001673	28.0827	52.6431	0.001810	29079.1	6.066533	177.186	162.337	1.120005	0.049785	0.049279	161.783	29079.1	0.045612	0.079335	2039.23	94323.8
718	2.000000	1.122538	7.37208e+06	-41189.1	1005.82	-29787.1	0.000000	0.000000	7.129659	170.482	NaN	0.000000	0.001643	0.001704	28.0826	55.1788	0.001822	30279.6	6.084915	177.264	170.752	1.122048	0.051812	0.051322	170.482	30279.6	0.047590	0.085109	2003.1	94827.9
718	2.000000	1.124471	7.37208e+06	-41189.1	1005.82	-29787.1	0.000000	0.000000	7.132111	183.108	NaN	0.000000	0.001609	0.001683	28.0834	57.0018	0.001852	30774.6	5.411695	175.401	180.483	1.124176	0.053745	0.053450	183.108	30774.6	0.049283	0.090209	2029.81	93613.7
718	2.000000	1.126523	7.37208e+06	-41189.1	1005.82	-29787.1	0.000000	0.000000	7.134529	192.022	NaN	0.000000	0.001591	0.001722	28.0826	59.23	0.001754	33770.1	3.813218	175.998	192.884	1.126214	0.055797	0.055488	192.022	33770.1	0.051532	0.097209	1975.36	98958.5
718	2.000000	1.128492	7.37208e+06	-41189.1	1005.82	-29787.1	0.000000	0.000000	7.137166	208.274	NaN	0.000000	0.001585	0.001746	28.0826	60.1208	0.001822	32988.7	6.396802	174.226	207.481	1.128150	0.057766	0.057423	208.274	32988.7	0.053031	0.102012	2041.66	94365.2
718	2.000000	1.130462	7.37208e+06	-41189.1	1005.82	-29787.1	0.000000	0.000000	7.139101	207.443	NaN	0.000000	0.001621	0.001711	28.0826	61.8578	0.001659	37296.7	1.000772	177.664	204.401	1.130288	0.059735	0.059562	207.443	37296.7	0.055564	0.110384	1879.29	102563
718	2.000000	1.132523	7.37208e+06	-41189.1	1005.82	-29787.1	0.000000	0.000000	7.141879	224.88	NaN	0.000000	0.001605	0.001730	28.0829	64.6284	0.001808	35755	4.335165	175.79	224.836	1.132172	0.061797	0.061446	224.88	35755	0.057080	0.115545	1946.25	96102.2
718	2.000000	1.134422	7.37208e+06	-41189.1	1005.82	-29787.1	0.000000	0.000000	7.144365	239.154	NaN	0.000000	0.001604	0.001721	28.0828	66.549	0.001704	39045.4	4.496568	174.869	234.945	1.134087	0.063696	0.063361	239.154	39045.4	0.059102	0.122609	1950.54	101878
718	2.000000	1.136545	7.37208e+06	-41189.1	1005.82	-29787.1	0.000000	0.000000	7.146906	249.32	NaN	0.000000	0.001587	0.001736	28.0826	69.8137	0.001801	38766.5	2.058487	176.806	250.119	1.136232	0.065819	0.065506	249.32	38766.5	0.060996	0.129404	1926.68	98459.4
718	2.000000	1.138524	7.37208e+06	-41189.1	1005.82	-29787.1	0.000000	0.000000	7.149406	262.017	NaN	0.000000	0.001608	0.001740	28.0825	70.4184	0.001646	42772.8	3.941327	174.223	263.519	1.138178	0.067798	0.067452	262.017	42772.8	0.063204	0.137547	1904.93	105370
718	2.000000	1.140450	7.37208e+06	-41189.1	1005.82	-29787.1	0.000000	0.000000	7.151978	277.739	NaN	0.000000	0.001609	0.001708	28.0825	74.4813	0.001922	38747.5	10.6913	168.01	277.852	1.140214	0.069724	0.069488	277.739	38747.5	0.064348	0.141859	1957.86	93991.6
718	2.000000	1.142407	7.37208e+06	-41189.1	1005.82	-29787.1	0.000000	0.000000	7.154663	295.444	NaN	0.000000	0.001596	0.001737	28.0825	74.5191	0.001809	41204.2	5.638824	173.576	290.396	1.142033	0.071681	0.071307	295.444	41204.2	0.066303	0.149375	1977.86	97403.6
718	2.000000	1.144413	7.37208e+06	-41189.1	1005.82	-29787.1	0.000000	0.000000	7.157330	311.538	NaN	0.000000	0.001607	0.001719	28.0825	75.3673	0.001793	42038.8	3.471918	174.783	306.695	1.144025	0.073686	0.073299	311.538	42038.8	0.068128	0.156558	1989.92	97070.2
718	2.000000	1.146465	7.37208e+06	-41189.1	1005.82	-29787.1	0.000000	0.000000	7.159828	322.368	NaN	0.000000	0.001608	0.001751	28.0827	78.4794	0.001865	42085.3	3.006532	175.039	321.71	1.146182	0.075739	0.075456	322.368	42085.3	0.069994	0.164065	1964.88	94928.2
718	2.000000	1.148587	7.37208e+06	-41189.1	1005.82	-29787.1	0.000000	0.000000	7.162550	336.968	NaN	0.000000	0.001588	0.001707	28.0827	79.0734	0.001613	49015.9	4.367041	173.048	342.222	1.148050	0.077861	0.077324	336.968	49015.9	0.072705	0.175266	1922.61	106970
718	2.000000	1.150420	7.37208e+06	-41189.1	1005.82	-29787.1	0.000000	0.000000	7.165150	355.644	NaN	0.000000	0.001598	0.001703	28.0827	83.0929	0.001791	46382	5.088730	172.737	355.254	1.150063	0.079694	0.079337	355.644	46382	0.073943	0.180498	1970.35	99743.9
718	2.000000	1.152464	7.37208e+06	-41189.1	1005.82	-29787.1	0.000000	0.000000	7.167926	373.448	NaN	0.000000	0.001559	0.001684	28.0826	85.1859	0.001824	46695.4	7.009035	171.46	372.451	1.152130	0.081738	0.081404	373.448	46695.4	0.075740	0.188218	1984.12	98337
718	2.000000	1.154403	7.37208e+06	-41189.1	1005.82	-29787.1	0.000000	0.000000	7.170631	392.096	NaN	0.000000	0.001576	0.001708	28.0838	86.0268	0.001733	49644	5.268102	171.968	387.694	1.154060	0.083677	0.083334	392.096	49644	0.077753	0.197050	1989.83	102177
718	2.000000	1.156468	7.37208e+06	-41189.1	1005.82	-29787.1	0.000000	0.000000	7.173177	403.795	NaN	0.000000	0.001580	0.001669	28.0839	88.8533	0.001797	49446.7	5.677729	171.986	404.472	1.156156	0.085742	0.085430	403.795	49446.7	0.079617	0.205394	1965.96	99681.9
718	2.000000	1.158432	7.37208e+06	-41189.1	1005.82	-29787.1	0.000000	0.000000	7.175880	421.772	NaN	0.000000	0.001604	0.001695	28.0839	89.6696	0.001808	49587.1	5.188977	172.253	420.726	1.158083	0.087706	0.087357	421.772	49587.1	0.081327	0.213192	1978.37	98119.9
718	2.000000	1.160475	7.37208e+06	-41189.1	1005.82	-29787.1	0.000000	0.000000	7.178488	435.52	NaN	0.000000	0.001609	0.001717	28.0837	92.5362	0.001846	50124.6	7.184509	169.933	437.737	1.160193	0.089749	0.089466	435.52	50124.6	0.083233	0.222044	1961.42	97186.3
718	2.000000	1.162481	7.37208e+06	-41189.1	1005.82	-29787.1	0.000000	0.000000	7.180984	447.453	NaN	0.000000	0.001632	0.001698	28.0835	93.6736	0.001881	49806.9	3.069943	174.174	445.094	1.162078	0.091755	0.091352	447.453	49806.9	0.085017	0.230485	1941.35	94785.3
718	2.000000	1.164477	7.37208e+06	-41189.1	1005.82	-29787.1	0.000000	0.000000	7.183688	464.691	NaN	0.000000	0.001643	0.001685	28.0834	94.3003	0.001845	51100.3	3.121462	173.965	464.304	1.164258	0.093751	0.093532	464.691	51100.3	0.086930	0.239696	1938.67	95360
718	2.000000	1.166403	7.37208e+06	-41189.1	1005.82	-29787.1	0.000000	0.000000	7.186335	482.23	NaN	0.000000	0.001604	0.001705	28.0836	97.6157	0.001825	53481.7	3.606787	172.935	480.35	1.166230	0.095676	0.095504	482.23	53481.7	0.088914	0.249426	1933.36	97838.1
718	2.000000	1.168351	7.37208e+06	-41189.1	1005.82	-29787.1	0.000000	0.000000	7.189139	503.052	NaN	0.000000	0.001598	0.001710	28.0839	98.2894	0.001918	51249.8	4.848193	172.28	497.61	1.168108	0.097625	0.097382	503.052	51249.8	0.090263	0.256145	1963.93	92517.2
718	2.000000	1.170372	7.37208e+06	-41189.1	1005.82	-29787.1	0.000000	0.000000	7.191823	519.188	NaN	0.000000	0.001638	0.001696	28.084	101.47	0.001875	54111.8	7.173847	169.334	513.392	1.170010	0.099646	0.099284	519.188	54111.8	0.092450	0.267216	1942.95	95638.9
718	2.000000	1.172445	7.37208e+06	-41189.1	1005.82	-29787.1	0.000000	0.000000	7.194384	531.063	NaN	0.000000	0.001626	0.001737	28.0837	102.687	0.001796	57169.9	7.961064	168.736	528.276	1.171995	0.101719	0.101269	531.063	57169.9	0.094752	0.279110	1902.7	98867.3
718	2.000000	1.172950	7.37208e+06	-41189.1	1005.82	-29787.1	0.000000	0.000000	7.194921	531.845	NaN	0.000000	0.001626	0.001740	28.0837	103.416	0.001753	58991.8	7.309359	-11.4133	530.161	1.172648	0.102224	0.101922	531.845	58991.8	0.095462	0.282826	1880.47	101346