File: remote_trans/data/nanoindenter/0828-1/data/Data_2025-08-06,11h17m57s/2025-07-22_16-23-58_1_534.txt
2025-07-22, 16:23:58, 1
Index	Phase	Displacement	Time	Pos X	Pos Y	Pos Z	Rot A	Rot B	Piezo Z	Force A	Force B	Gripper	Voltage A	Voltage B	Temperature	Amplitude force	Amplitude pos	Stiffness	Phase shift	Phase excitation	Force A raw	Displacement raw	HMax	HMax raw	Real Force	Real Stiffness	Contact Depth	Area	Hardness	Reduced Mod.
[#]	[#]	[um]	[s]	[um]	[um]	[um]	[m°]	[m°]	[um]	[uN]	[uN]	[V]	[V]	[V]	[°C]	[uN]	[um]	[N/m]	[°]	[°]	[uN]	[um]	[um]	[um]	[uN]	[N/m]	[um]	[um^2]	[MPa]	[MPa]
534	1.000000	0.002033	7.37027e+06	-50389.1	1005.82	-29755.8	0.000000	0.000000	6.002806	0.009849	NaN	0.000000	0.001638	0.001808	28.0824	0.031053	0.001007	30.8442	47.6374	-171.381	0.007676	0.000761	-1.146484	-1.147756	0.009849	30.8442	-1.146724	-2.122728E+15	-4.639661E-18	NaN
534	1.000000	0.012075	7.37027e+06	-50389.1	1005.82	-29755.8	0.000000	0.000000	6.012845	-0.051999	NaN	0.000000	0.001651	0.001767	28.0824	0.078484	0.001210	64.8395	-9.306952	13.1043	-0.045610	0.010666	-1.136443	-1.137852	-0.051999	64.8395	-1.135841	-1.516934E+15	3.427886E-17	NaN
534	1.000000	0.021988	7.37027e+06	-50389.1	1005.82	-29755.8	0.000000	0.000000	6.022758	-0.057060	NaN	0.000000	0.001646	0.001753	28.0823	0.095073	0.001690	56.2483	1.407717	-170.554	-0.111071	0.020650	-1.126529	-1.127867	-0.057060	56.2483	-1.125769	-1.111377E+15	5.134136E-17	NaN
534	1.000000	0.032009	7.37027e+06	-50389.1	1005.82	-29755.8	0.000000	0.000000	6.032780	-0.044657	NaN	0.000000	0.001637	0.001783	28.0823	0.078842	0.001958	40.2757	154.414	10.2821	-0.050325	0.030594	-1.116508	-1.117923	-0.044657	40.2757	-1.115677	-8.136981E+14	5.488148E-17	NaN
534	1.000000	0.041970	7.37027e+06	-50389.1	1005.82	-29755.8	0.000000	0.000000	6.042743	0.020573	NaN	0.000000	0.001672	0.001816	28.0825	0.071691	0.001976	36.2777	-118.267	-167.443	0.053127	0.040671	-1.106547	-1.107846	0.020573	36.2777	-1.106973	-6.218112E+14	-3.308610E-17	NaN
534	1.000000	0.052005	7.37027e+06	-50389.1	1005.82	-29755.8	0.000000	0.000000	6.052775	-0.056545	NaN	0.000000	0.001709	0.001784	28.0823	0.012896	0.001985	6.497464	-122.977	13.3521	-0.003462	0.050644	-1.096513	-1.097874	-0.056545	6.497464	-1.089986	-3.678066E+14	1.537347E-16	NaN
534	1.000000	0.062001	7.37027e+06	-50389.1	1005.82	-29755.8	0.000000	0.000000	6.062772	-0.008409	NaN	0.000000	0.001675	0.001771	28.0821	0.108151	0.001843	58.6674	-132.475	-168.392	-0.056905	0.060610	-1.086517	-1.087907	-0.008409	58.6674	-1.086410	-3.293059E+14	2.553697E-17	NaN
534	1.000000	0.072016	7.37027e+06	-50389.1	1005.82	-29755.8	0.000000	0.000000	6.072787	-0.023714	NaN	0.000000	0.001659	0.001781	28.0821	0.204613	0.002014	101.573	32.329	13.116	-0.008479	0.070608	-1.076501	-1.077909	-0.023714	101.573	-1.076326	-2.410880E+14	9.836062E-17	NaN
534	1.000000	0.081988	7.37027e+06	-50389.1	1005.82	-29755.8	0.000000	0.000000	6.082762	0.064631	NaN	0.000000	0.001679	0.001835	28.0824	0.102278	0.001945	52.5929	26.2913	-166.03	-0.007114	0.080701	-1.066530	-1.067816	0.064631	52.5929	-1.067452	-1.832112E+14	-3.527691E-16	NaN
534	1.000000	0.092019	7.37027e+06	-50389.1	1005.82	-29755.8	0.000000	0.000000	6.092792	0.030242	NaN	0.000000	0.001646	0.001808	28.0823	0.035320	0.002079	16.9853	175.353	14.2745	0.056402	0.090615	-1.056498	-1.057902	0.030242	16.9853	-1.057834	-1.360536E+14	-2.222834E-16	NaN
534	1.000000	0.101979	7.37027e+06	-50389.1	1005.82	-29755.8	0.000000	0.000000	6.102751	0.009347	NaN	0.000000	0.001649	0.001799	28.0823	0.104654	0.001964	53.2766	91.05	-163	0.034220	0.100679	-1.046539	-1.047839	0.009347	53.2766	-1.046671	-9.630664E+13	-9.705836E-17	NaN
534	1.000000	0.112015	7.37027e+06	-50389.1	1005.82	-29755.8	0.000000	0.000000	6.112785	-0.049696	NaN	0.000000	0.001641	0.001782	28.0824	0.035628	0.001866	19.0964	62.492	12.7672	-0.019057	0.110627	-1.036502	-1.037891	-0.049696	19.0964	-1.034551	-6.617385E+13	7.509961E-16	NaN
534	1.000000	0.122005	7.37027e+06	-50389.1	1005.82	-29755.8	0.000000	0.000000	6.122776	-0.022333	NaN	0.000000	0.001651	0.001778	28.0819	0.080081	0.002042	39.2095	144.768	-164.338	-0.089727	0.120756	-1.026513	-1.027761	-0.022333	39.2095	-1.026086	-5.091318E+13	4.386430E-16	NaN
534	1.000000	0.132028	7.37027e+06	-50389.1	1005.82	-29755.8	0.000000	0.000000	6.132800	0.013048	NaN	0.000000	0.001647	0.001804	28.0809	0.096514	0.002055	46.9731	101.568	14.2747	0.006359	0.130629	-1.016490	-1.017888	0.013048	46.9731	-1.016698	-3.806466E+13	-3.427852E-16	NaN
534	1.000000	0.142027	7.37027e+06	-50389.1	1005.82	-29755.8	0.000000	0.000000	6.142799	0.009506	NaN	0.000000	0.001651	0.001807	28.0806	0.037519	0.001962	19.1243	160.726	-164.405	-0.004393	0.140682	-1.006491	-1.007835	0.009506	19.1243	-1.006864	-2.806506E+13	-3.387238E-16	NaN
534	1.000000	0.152021	7.37027e+06	-50389.1	1005.82	-29755.8	0.000000	0.000000	6.152791	-0.058369	NaN	0.000000	0.001652	0.001799	28.081	0.063150	0.002073	30.4637	-87.9533	14.0324	-0.052293	0.150669	-0.996497	-0.997848	-0.058369	30.4637	-0.995059	-1.946467E+13	2.998713E-15	NaN
534	1.000000	0.162023	7.37027e+06	-50389.1	1005.82	-29755.8	0.000000	0.000000	6.162794	-0.035157	NaN	0.000000	0.001637	0.001763	28.081	0.069405	0.002078	33.4069	46.7243	-166.239	-0.023483	0.160678	-0.986495	-0.987840	-0.035157	33.4069	-0.985705	-1.456354E+13	2.414028E-15	NaN
534	1.000000	0.172047	7.37027e+06	-50389.1	1005.82	-29755.8	0.000000	0.000000	6.172818	-0.019982	NaN	0.000000	0.001617	0.001811	28.0808	0.032622	0.001980	16.4753	147.677	15.876	-0.018205	0.170731	-0.976471	-0.977786	-0.019982	16.4753	-0.975561	-1.063184E+13	1.879428E-15	NaN
534	1.000000	0.182010	7.37027e+06	-50389.1	1005.82	-29755.8	0.000000	0.000000	6.182783	0.025388	NaN	0.000000	0.001656	0.001808	28.081	0.030770	0.001961	15.6904	41.5505	-163.328	0.052325	0.180728	-0.966508	-0.967790	0.025388	15.6904	-0.967722	-8.335940E+12	-3.045615E-15	NaN
534	1.000000	0.192022	7.37027e+06	-50389.1	1005.82	-29755.8	0.000000	0.000000	6.192798	0.085933	NaN	0.000000	0.001621	0.001824	28.0809	0.059586	0.002018	29.5255	-32.4245	13.3562	0.047896	0.190671	-0.956496	-0.957847	0.085933	29.5255	-0.958678	-6.295808E+12	-1.364929E-14	NaN
534	1.000000	0.202015	7.37027e+06	-50389.1	1005.82	-29755.8	0.000000	0.000000	6.202788	0.022050	NaN	0.000000	0.001647	0.001796	28.0809	0.030022	0.001929	15.5595	117.18	-165.279	0.040809	0.200781	-0.946503	-0.947737	0.022050	15.5595	-0.947566	-4.458573E+12	-4.945555E-15	NaN
534	1.000000	0.212017	7.37027e+06	-50389.1	1005.82	-29755.8	0.000000	0.000000	6.212791	0.039304	NaN	0.000000	0.001634	0.001805	28.0804	0.092059	0.001895	48.59	-41.0734	11.7718	0.035852	0.210699	-0.936500	-0.937819	0.039304	48.59	-0.937107	-3.221848E+12	-1.219937E-14	NaN
534	1.000000	0.222040	7.37027e+06	-50389.1	1005.82	-29755.8	0.000000	0.000000	6.222812	-0.008356	NaN	0.000000	0.001615	0.001798	28.081	0.022277	0.001954	11.3991	32.3638	-166.419	-0.048454	0.220798	-0.926478	-0.927719	-0.008356	11.3991	-0.925928	-2.276321E+12	3.670812E-15	NaN
534	1.000000	0.232068	7.37027e+06	-50389.1	1005.82	-29755.8	0.000000	0.000000	6.232839	-0.015789	NaN	0.000000	0.001613	0.001779	28.0806	0.103403	0.001997	51.7718	123.865	13.5625	0.008249	0.230692	-0.916449	-0.917825	-0.015789	51.7718	-0.916221	-1.683354E+12	9.379680E-15	NaN
534	1.000000	0.242082	7.37027e+06	-50389.1	1005.82	-29755.8	0.000000	0.000000	6.242854	-0.002345	NaN	0.000000	0.001608	0.001796	28.0807	0.060895	0.002031	29.9877	139.641	-162.49	-0.004127	0.240679	-0.906435	-0.907838	-0.002345	29.9877	-0.906377	-1.239419E+12	1.892120E-15	NaN
534	1.000000	0.252045	7.37027e+06	-50389.1	1005.82	-29755.8	0.000000	0.000000	6.252817	0.003951	NaN	0.000000	0.001616	0.001771	28.0807	0.065688	0.001994	32.9391	73.2346	15.8949	-0.011592	0.250725	-0.896472	-0.897793	0.003951	32.9391	-0.896562	-9.132987E+11	-4.326014E-15	NaN
534	1.000000	0.262069	7.37027e+06	-50389.1	1005.82	-29755.8	0.000000	0.000000	6.262841	0.006560	NaN	0.000000	0.001605	0.001809	28.0811	0.043160	0.001938	22.2672	-65.051	-169.446	-0.073345	0.260750	-0.886449	-0.887767	0.006560	22.2672	-0.886670	-6.712693E+11	-9.772982E-15	NaN
534	1.000000	0.272060	7.37027e+06	-50389.1	1005.82	-29755.8	0.000000	0.000000	6.272833	0.033208	NaN	0.000000	0.001622	0.001791	28.0823	0.086604	0.001952	44.3648	-81.4789	18.598	0.049474	0.270721	-0.876458	-0.877796	0.033208	44.3648	-0.877019	-4.970422E+11	-6.681111E-14	NaN
534	1.000000	0.282075	7.37027e+06	-50389.1	1005.82	-29755.8	0.000000	0.000000	6.282847	-0.009993	NaN	0.000000	0.001642	0.001757	28.0822	0.035964	0.001986	18.1124	-112.754	-165.414	0.022237	0.280784	-0.866442	-0.867734	-0.009993	18.1124	-0.866028	-3.529437E+11	2.831388E-14	NaN
534	1.000000	0.292074	7.37027e+06	-50389.1	1005.82	-29755.8	0.000000	0.000000	6.292845	-0.035874	NaN	0.000000	0.001664	0.001813	28.0824	0.049205	0.002061	23.8728	94.2492	12.6667	-0.041915	0.290774	-0.856443	-0.857743	-0.035874	23.8728	-0.855316	-2.527649E+11	1.419268E-13	NaN
534	1.000000	0.302088	7.37027e+06	-50389.1	1005.82	-29755.8	0.000000	0.000000	6.302858	-0.040409	NaN	0.000000	0.001608	0.001812	28.0821	0.028776	0.001997	14.4122	-136.596	-165.712	-0.066052	0.300791	-0.846429	-0.847726	-0.040409	14.4122	-0.844327	-1.794327E+11	2.252047E-13	NaN
534	1.000000	0.312051	7.37027e+06	-50389.1	1005.82	-29755.8	0.000000	0.000000	6.312825	0.043588	NaN	0.000000	0.001623	0.001786	28.0822	0.022300	0.002092	10.6603	95.4295	14.9504	0.049585	0.310807	-0.836466	-0.837711	0.043588	10.6603	-0.839533	-1.545132E+11	-2.820981E-13	NaN
534	1.000000	0.322087	7.37027e+06	-50389.1	1005.82	-29755.8	0.000000	0.000000	6.322858	-0.020367	NaN	0.000000	0.001621	0.001783	28.0822	0.068286	0.001896	36.0127	29.455	-167.07	-0.052987	0.320767	-0.826430	-0.827750	-0.020367	36.0127	-0.826006	-1.013084E+11	2.010352E-13	NaN
534	1.000000	0.332094	7.37027e+06	-50389.1	1005.82	-29755.8	0.000000	0.000000	6.332866	0.023245	NaN	0.000000	0.001645	0.001810	28.0821	0.102230	0.001906	53.6478	34.7656	17.3853	0.003405	0.330753	-0.816424	-0.817765	0.023245	53.6478	-0.816749	-7.587914E+10	-3.063367E-13	NaN
534	1.000000	0.342101	7.37027e+06	-50389.1	1005.82	-29755.8	0.000000	0.000000	6.342876	0.074886	NaN	0.000000	0.001659	0.001798	28.0821	0.046365	0.001954	23.7304	-70.3171	-169.24	0.047806	0.340780	-0.806416	-0.807737	0.074886	23.7304	-0.808783	-5.916460E+10	-1.265723E-12	NaN
534	1.000000	0.352110	7.37027e+06	-50389.1	1005.82	-29755.8	0.000000	0.000000	6.352881	-0.010740	NaN	0.000000	0.001651	0.001766	28.082	0.074888	0.002039	36.7206	-113.823	14.9442	-0.000184	0.350767	-0.796408	-0.797750	-0.010740	36.7206	-0.796188	-3.991339E+10	2.690702E-13	NaN
534	1.000000	0.362122	7.37027e+06	-50389.1	1005.82	-29755.8	0.000000	0.000000	6.362891	-0.067402	NaN	0.000000	0.001665	0.001755	28.0825	0.091430	0.002047	44.674	-95.4078	-162.205	0.046826	0.360882	-0.786396	-0.787635	-0.067402	44.674	-0.785264	-2.836327E+10	2.376384E-12	NaN
534	1.000000	0.372100	7.37027e+06	-50389.1	1005.82	-29755.8	0.000000	0.000000	6.372875	0.071281	NaN	0.000000	0.001679	0.001741	28.0823	0.008009	0.002054	3.899314	175.483	14.8713	0.015891	0.370741	-0.776417	-0.777777	0.071281	3.899314	-0.790128	-3.302294E+10	-2.158527E-12	NaN
534	1.000000	0.382119	7.37027e+06	-50389.1	1005.82	-29755.8	0.000000	0.000000	6.382890	-0.036680	NaN	0.000000	0.001656	0.001799	28.0824	0.049341	0.001884	26.1931	-49.2709	-167.65	-0.019774	0.380763	-0.766398	-0.767755	-0.036680	26.1931	-0.765348	-1.520703E+10	2.412069E-12	NaN
534	1.000000	0.392103	7.37027e+06	-50389.1	1005.82	-29755.8	0.000000	0.000000	6.392874	-0.022909	NaN	0.000000	0.001650	0.001809	28.0821	0.070032	0.002111	33.1746	179.737	15.0207	-0.068067	0.390795	-0.756414	-0.757723	-0.022909	33.1746	-0.755896	-1.131015E+10	2.025569E-12	NaN
534	1.000000	0.402133	7.37027e+06	-50389.1	1005.82	-29755.8	0.000000	0.000000	6.402903	-0.055726	NaN	0.000000	0.001610	0.001815	28.0812	0.044841	0.001989	22.5472	-33.8132	-166.833	-0.049347	0.400855	-0.746385	-0.747663	-0.055726	22.5472	-0.744531	-7.920703E+9	7.035467E-12	NaN
534	1.000000	0.412114	7.37027e+06	-50389.1	1005.82	-29755.8	0.000000	0.000000	6.412885	-0.013677	NaN	0.000000	0.001644	0.001773	28.081	0.111312	0.001844	60.3576	87.1871	13.3841	0.048455	0.410757	-0.736404	-0.737761	-0.013677	60.3576	-0.736234	-6.105896E+9	2.240045E-12	NaN
534	1.000000	0.422146	7.37027e+06	-50389.1	1005.82	-29755.8	0.000000	0.000000	6.422919	0.032264	NaN	0.000000	0.001629	0.001774	28.0813	0.028473	0.001970	14.4521	51.8901	-164.648	0.070664	0.420879	-0.726372	-0.727639	0.032264	14.4521	-0.728046	-4.722528E+9	-6.831885E-12	NaN
534	1.000000	0.432144	7.37027e+06	-50389.1	1005.82	-29755.8	0.000000	0.000000	6.432916	-0.005241	NaN	0.000000	0.001657	0.001726	28.081	0.078648	0.001921	40.9343	-138.14	15.8625	-0.017155	0.430847	-0.716373	-0.717670	-0.005241	40.9343	-0.716277	-3.263580E+9	1.605861E-12	NaN
534	1.000000	0.442110	7.37027e+06	-50389.1	1005.82	-29755.8	0.000000	0.000000	6.442881	-0.023888	NaN	0.000000	0.001606	0.001723	28.081	0.005114	0.002028	2.521202	-101.695	-165.96	-0.023102	0.440826	-0.706407	-0.707691	-0.023888	2.521202	-0.699301	-1.914213E+9	1.247908E-11	NaN
534	1.000000	0.452150	7.37027e+06	-50389.1	1005.82	-29755.8	0.000000	0.000000	6.452919	-0.067417	NaN	0.000000	0.001652	0.001704	28.081	0.084220	0.001989	42.337	-118.009	15.1277	-0.042476	0.450802	-0.696368	-0.697715	-0.067417	42.337	-0.695174	-1.681157E+9	4.010170E-11	NaN
534	1.000000	0.462159	7.37027e+06	-50389.1	1005.82	-29755.8	0.000000	0.000000	6.462930	-0.030657	NaN	0.000000	0.001652	0.001750	28.0811	0.110429	0.002184	50.5521	179.776	-163.519	-0.070375	0.460886	-0.686358	-0.687632	-0.030657	50.5521	-0.685903	-1.255813E+9	2.441183E-11	NaN
534	1.000000	0.472160	7.37027e+06	-50389.1	1005.82	-29755.8	0.000000	0.000000	6.472931	-0.026918	NaN	0.000000	0.001665	0.001712	28.0812	0.035951	0.002059	17.4586	83.4129	12.3194	-0.055905	0.470790	-0.676358	-0.677727	-0.026918	17.4586	-0.675201	-8.965325E+8	3.002446E-11	NaN
534	1.000000	0.482171	7.37027e+06	-50389.1	1005.82	-29755.8	0.000000	0.000000	6.482942	-0.030915	NaN	0.000000	0.001644	0.001748	28.0809	0.012799	0.002011	6.364300	128.708	-163.589	0.047829	0.480883	-0.666347	-0.667635	-0.030915	6.364300	-0.662703	-6.046375E+8	5.112915E-11	NaN
534	1.000000	0.492180	7.37027e+06	-50389.1	1005.82	-29755.8	0.000000	0.000000	6.492950	-0.046734	NaN	0.000000	0.001645	0.001758	28.0809	0.147282	0.001952	75.464	-125.048	14.0955	-0.061694	0.490800	-0.656337	-0.657718	-0.046734	75.464	-0.655873	-4.874482E+8	9.587505E-11	NaN
534	1.000000	0.502179	7.37027e+06	-50389.1	1005.82	-29755.8	0.000000	0.000000	6.502950	-0.023972	NaN	0.000000	0.001621	0.001701	28.0811	0.021002	0.001942	10.8133	-77.2582	-165.174	-0.047317	0.500891	-0.646339	-0.647627	-0.023972	10.8133	-0.644676	-3.423226E+8	7.002705E-11	NaN
534	1.000000	0.512168	7.37027e+06	-50389.1	1005.82	-29755.8	0.000000	0.000000	6.512941	0.013383	NaN	0.000000	0.001638	0.001756	28.0811	0.045410	0.001957	23.2094	170.18	13.4067	0.020722	0.510839	-0.636349	-0.637678	0.013383	23.2094	-0.636782	-2.667630E+8	-5.016729E-11	NaN
534	1.000000	0.522189	7.37027e+06	-50389.1	1005.82	-29755.8	0.000000	0.000000	6.522959	-0.029300	NaN	0.000000	0.001623	0.001782	28.0809	0.074302	0.002025	36.6919	124.933	-163.457	-0.064854	0.520849	-0.626329	-0.627669	-0.029300	36.6919	-0.625730	-1.880943E+8	1.557739E-10	NaN
534	1.000000	0.532172	7.37027e+06	-50389.1	1005.82	-29755.8	0.000000	0.000000	6.532943	-0.028051	NaN	0.000000	0.001645	0.001751	28.081	0.089188	0.002069	43.1157	-179.117	19.3422	-0.032981	0.530728	-0.616346	-0.617790	-0.028051	43.1157	-0.615858	-1.376215E+8	2.038277E-10	NaN
534	1.000000	0.542209	7.37027e+06	-50389.1	1005.82	-29755.8	0.000000	0.000000	6.542979	-0.027534	NaN	0.000000	0.001652	0.001769	28.0822	0.063154	0.001891	33.3994	151.953	-163.169	0.020127	0.540892	-0.606309	-0.607626	-0.027534	33.3994	-0.605691	-9.972676E+7	2.760903E-10	NaN
534	1.000000	0.552173	7.37027e+06	-50389.1	1005.82	-29755.8	0.000000	0.000000	6.552945	-0.013499	NaN	0.000000	0.001613	0.001749	28.0823	0.100419	0.001947	51.571	-64.0969	15.3186	-0.040245	0.550820	-0.596344	-0.597698	-0.013499	51.571	-0.596148	-7.368849E+7	1.831887E-10	NaN
534	1.000000	0.562168	7.37027e+06	-50389.1	1005.82	-29755.8	0.000000	0.000000	6.562939	-0.027595	NaN	0.000000	0.001603	0.001735	28.0822	0.049923	0.002072	24.0973	18.2588	-162.896	-0.035251	0.560859	-0.586350	-0.587658	-0.027595	24.0973	-0.585491	-5.253965E+7	5.252149E-10	NaN
534	1.000000	0.572189	7.37027e+06	-50389.1	1005.82	-29755.8	0.000000	0.000000	6.572962	0.024862	NaN	0.000000	0.001645	0.001756	28.0823	0.144901	0.002068	70.0707	29.2042	16.4556	-0.004195	0.570902	-0.576329	-0.577616	0.024862	70.0707	-0.576595	-3.960233E+7	-6.277962E-10	NaN
534	1.000000	0.582174	7.37028e+06	-50389.1	1005.82	-29755.8	0.000000	0.000000	6.582944	-0.033922	NaN	0.000000	0.001650	0.001721	28.0823	0.174271	0.001997	87.2744	-78.8752	-164.99	-0.023980	0.580944	-0.566344	-0.567573	-0.033922	87.2744	-0.566053	-2.831890E+7	1.197842E-9	NaN
534	1.000000	0.592176	7.37028e+06	-50389.1	1005.82	-29755.8	0.000000	0.000000	6.592949	0.010088	NaN	0.000000	0.001632	0.001731	28.0823	0.087347	0.001860	46.963	103.849	14.7372	0.049372	0.590824	-0.556341	-0.557694	0.010088	46.963	-0.556502	-2.089218E+7	-4.828397E-10	NaN
534	1.000000	0.602208	7.37028e+06	-50389.1	1005.82	-29755.8	0.000000	0.000000	6.602981	0.030509	NaN	0.000000	0.001622	0.001773	28.082	0.094317	0.002020	46.6914	-166.898	-167.909	0.049527	0.600877	-0.546309	-0.547641	0.030509	46.6914	-0.546799	-1.533265E+7	-1.989786E-9	NaN
534	1.000000	0.612228	7.37028e+06	-50389.1	1005.82	-29755.8	0.000000	0.000000	6.612998	-0.059848	NaN	0.000000	0.001600	0.001807	28.0823	0.087898	0.002058	42.7161	81.615	12.3701	-0.032800	0.610871	-0.536290	-0.537647	-0.059848	42.7161	-0.535239	-1.059993E+7	5.646091E-9	NaN
534	1.000000	0.622215	7.37028e+06	-50389.1	1005.82	-29755.8	0.000000	0.000000	6.622985	-0.044609	NaN	0.000000	0.001614	0.001790	28.0819	0.060479	0.002167	27.91	17.9231	-167.67	-0.042095	0.620944	-0.526303	-0.527573	-0.044609	27.91	-0.525104	-7.66582e+06	5.819236E-9	NaN
534	1.000000	0.632243	7.37028e+06	-50389.1	1005.82	-29755.8	0.000000	0.000000	6.633013	-0.050321	NaN	0.000000	0.001629	0.001767	28.0822	0.066095	0.002016	32.7814	-5.478940	12.504	-0.040128	0.630851	-0.516274	-0.517667	-0.050321	32.7814	-0.515123	-5.56862e+06	9.036465E-9	NaN
534	1.000000	0.642196	7.37028e+06	-50389.1	1005.82	-29755.8	0.000000	0.000000	6.642970	0.052242	NaN	0.000000	0.001621	0.001775	28.0821	0.012456	0.001969	6.324571	177.837	-165.639	-0.050479	0.640944	-0.506321	-0.507573	0.052242	6.324571	-0.512517	-5.12226e+06	-1.019901E-8	NaN
534	1.000000	0.652246	7.37028e+06	-50389.1	1005.82	-29755.8	0.000000	0.000000	6.653016	-0.045457	NaN	0.000000	0.001540	0.001760	28.0824	0.146683	0.002009	73.007	-173.41	18.3297	0.042704	0.650830	-0.496272	-0.497688	-0.045457	73.007	-0.495805	-2.99548e+06	1.517521E-8	NaN
534	1.000000	0.662232	7.37028e+06	-50389.1	1005.82	-29755.8	0.000000	0.000000	6.663004	0.001660	NaN	0.000000	0.001617	0.001801	28.0822	0.064151	0.002037	31.4903	-179.647	-163.089	0.065157	0.660914	-0.486286	-0.487604	0.001660	31.4903	-0.486325	-2.20813e+06	-7.519375E-10	NaN
534	1.000000	0.672248	7.37028e+06	-50389.1	1005.82	-29755.8	0.000000	0.000000	6.673019	-0.015053	NaN	0.000000	0.001609	0.001792	28.0818	0.032216	0.002015	15.9891	-89.9046	14.2682	0.014174	0.670870	-0.476270	-0.477647	-0.015053	15.9891	-0.475564	-1.56098e+06	9.643221E-9	NaN
534	1.000000	0.682266	7.37028e+06	-50389.1	1005.82	-29755.8	0.000000	0.000000	6.683036	-0.040028	NaN	0.000000	0.001655	0.001763	28.0812	0.030336	0.002003	15.1487	-6.886250	-163.006	-0.056235	0.680949	-0.466252	-0.467568	-0.040028	15.1487	-0.464270	-1.08393e+06	3.692843E-8	NaN
534	1.000000	0.692241	7.37028e+06	-50389.1	1005.82	-29755.8	0.000000	0.000000	6.693014	0.017553	NaN	0.000000	0.001629	0.001763	28.0811	0.040904	0.001942	21.058	117.715	15.098	0.044914	0.690918	-0.456276	-0.457600	0.017553	21.058	-0.456901	-854002	-2.055429E-8	NaN
534	1.000000	0.702231	7.37028e+06	-50389.1	1005.82	-29755.8	0.000000	0.000000	6.703004	0.012730	NaN	0.000000	0.001646	0.001771	28.0809	0.148361	0.001988	74.6388	95.8231	-163.843	-0.027572	0.700923	-0.446286	-0.447595	0.012730	74.6388	-0.446414	-607893	-2.094152E-8	NaN
534	1.000000	0.712259	7.37028e+06	-50389.1	1005.82	-29755.8	0.000000	0.000000	6.713028	-0.059132	NaN	0.000000	0.001619	0.001741	28.0813	0.050895	0.001881	27.0616	121.833	13.6345	0.011686	0.710872	-0.436259	-0.437646	-0.059132	27.0616	-0.434620	-414368	1.427039E-7	NaN
534	1.000000	0.722267	7.37028e+06	-50389.1	1005.82	-29755.8	0.000000	0.000000	6.723037	-0.061295	NaN	0.000000	0.001626	0.001729	28.0812	0.142783	0.002006	71.1787	-31.3963	-163.871	-0.049505	0.720926	-0.426250	-0.427592	-0.061295	71.1787	-0.425604	-308918	1.984171E-7	NaN
534	1.000000	0.732276	7.37028e+06	-50389.1	1005.82	-29755.8	0.000000	0.000000	6.733048	-0.000364	NaN	0.000000	0.001589	0.001772	28.0812	0.030615	0.002051	14.9296	-98.0923	15.6661	-0.030439	0.730868	-0.416242	-0.417649	-0.000364	14.9296	-0.416223	-227419	1.600416E-9	NaN
534	1.000000	0.742256	7.37028e+06	-50389.1	1005.82	-29755.8	0.000000	0.000000	6.743029	0.014443	NaN	0.000000	0.001711	0.001749	28.0815	0.094457	0.002073	45.5632	139.41	-167.914	-0.069855	0.741005	-0.406262	-0.407512	0.014443	45.5632	-0.406499	-165422	-8.731253E-8	NaN
534	1.000000	0.752271	7.37028e+06	-50389.1	1005.82	-29755.8	0.000000	0.000000	6.753041	-0.036235	NaN	0.000000	0.001691	0.001790	28.0815	0.100473	0.002045	49.1289	8.477455	14.6566	0.007492	0.750907	-0.396247	-0.397610	-0.036235	49.1289	-0.395694	-116023	3.123091E-7	NaN
534	1.000000	0.762265	7.37028e+06	-50389.1	1005.82	-29755.8	0.000000	0.000000	6.763038	0.031418	NaN	0.000000	0.001682	0.001789	28.0809	0.023061	0.001955	11.7988	-14.892	-164.089	-0.060544	0.761024	-0.386253	-0.387494	0.031418	11.7988	-0.388250	-90809.1	-3.459827E-7	NaN
534	1.000000	0.772305	7.37028e+06	-50389.1	1005.82	-29755.8	0.000000	0.000000	6.773074	-0.075017	NaN	0.000000	0.001691	0.001788	28.0811	0.163183	0.002108	77.4244	121.522	14.7704	0.009319	0.770989	-0.376212	-0.377529	-0.075017	77.4244	-0.375486	-59573.1	1.259246E-6	NaN
534	1.000000	0.782289	7.37028e+06	-50389.1	1005.82	-29755.8	0.000000	0.000000	6.783061	-0.003623	NaN	0.000000	0.001666	0.001826	28.0811	0.005726	0.001934	2.960585	162.386	-164.136	-0.012626	0.780974	-0.366228	-0.367543	-0.003623	2.960585	-0.365311	-42514.3	8.521605E-8	NaN
534	1.000000	0.792289	7.37028e+06	-50389.1	1005.82	-29755.8	0.000000	0.000000	6.793062	0.019828	NaN	0.000000	0.001685	0.001785	28.081	0.125621	0.002142	58.6589	-158.044	17.1312	0.082796	0.790918	-0.356228	-0.357599	0.019828	58.6589	-0.356482	-31692.3	-6.256382E-7	NaN
534	1.000000	0.802305	7.37028e+06	-50389.1	1005.82	-29755.8	0.000000	0.000000	6.803078	0.027425	NaN	0.000000	0.001642	0.001789	28.0811	0.054370	0.001953	27.8454	33.4392	-167.261	0.013488	0.801020	-0.346213	-0.347497	0.027425	27.8454	-0.346952	-23053.2	-1.189625E-6	NaN
534	1.000000	0.812312	7.37028e+06	-50389.1	1005.82	-29755.8	0.000000	0.000000	6.813082	-0.041612	NaN	0.000000	0.001673	0.001785	28.0824	0.030916	0.002019	15.3107	-50.6313	12.7129	-0.050019	0.810997	-0.336205	-0.337521	-0.041612	15.3107	-0.334167	-15011.2	2.772056E-6	NaN
534	1.000000	0.822301	7.37028e+06	-50389.1	1005.82	-29755.8	0.000000	0.000000	6.823072	-0.033863	NaN	0.000000	0.001632	0.001752	28.0823	0.118345	0.001932	61.2528	-132.162	-164.531	-0.055026	0.820951	-0.326216	-0.327567	-0.033863	61.2528	-0.325802	-11321.4	2.991071E-6	NaN
534	1.000000	0.832317	7.37028e+06	-50389.1	1005.82	-29755.8	0.000000	0.000000	6.833086	-0.073760	NaN	0.000000	0.001612	0.001764	28.0823	0.026616	0.002075	12.8283	-171.864	14.0068	-0.052175	0.830911	-0.316200	-0.317606	-0.073760	12.8283	-0.311888	-7062.87	1.044329E-5	NaN
534	1.000000	0.842316	7.37028e+06	-50389.1	1005.82	-29755.8	0.000000	0.000000	6.843087	-0.045271	NaN	0.000000	0.001633	0.001737	28.0823	0.071192	0.001946	36.5917	22.8478	-163.065	-0.060334	0.840984	-0.306201	-0.307534	-0.045271	36.5917	-0.305273	-5636.51	8.031713E-6	NaN
534	1.000000	0.852321	7.37028e+06	-50389.1	1005.82	-29755.8	0.000000	0.000000	6.853090	-0.079639	NaN	0.000000	0.001576	0.001752	28.0825	0.117225	0.002146	54.6305	-132.461	15.5749	-0.117681	0.850922	-0.296196	-0.297595	-0.079639	54.6305	-0.295103	-3977.65	2.002173E-5	NaN
534	1.000000	0.862330	7.37028e+06	-50389.1	1005.82	-29755.8	0.000000	0.000000	6.863098	-0.084661	NaN	0.000000	0.001632	0.001736	28.0823	0.061957	0.001926	32.1705	8.713505	-166.89	-0.116511	0.860940	-0.286188	-0.287577	-0.084661	32.1705	-0.284214	-2731.81	3.099096E-5	NaN
534	1.000000	0.872328	7.37028e+06	-50389.1	1005.82	-29755.8	0.000000	0.000000	6.873098	-0.038847	NaN	0.000000	0.001612	0.001731	28.0822	0.101673	0.001962	51.8102	-38.2898	15.5435	-0.075827	0.870917	-0.276190	-0.277600	-0.038847	51.8102	-0.275627	-2027.21	1.916277E-5	NaN
534	1.000000	0.882343	7.37028e+06	-50389.1	1005.82	-29755.8	0.000000	0.000000	6.883114	-0.023638	NaN	0.000000	0.001602	0.001699	28.0824	0.092394	0.002018	45.7812	-109.897	-166.7	-0.005577	0.880989	-0.266175	-0.267528	-0.023638	45.7812	-0.265788	-1436.83	1.645155E-5	NaN
534	1.000000	0.892318	7.37028e+06	-50389.1	1005.82	-29755.8	0.000000	0.000000	6.893086	-0.087141	NaN	0.000000	0.001615	0.001771	28.0826	0.098659	0.001987	49.6643	-119.155	14.4636	-0.073499	0.890959	-0.256200	-0.257559	-0.087141	49.6643	-0.254884	-977.975	8.910396E-5	NaN
534	1.000000	0.902328	7.37028e+06	-50389.1	1005.82	-29755.8	0.000000	0.000000	6.903099	-0.014456	NaN	0.000000	0.001686	0.001773	28.0824	0.110795	0.002017	54.9353	141.183	-162.909	-0.020950	0.900966	-0.246189	-0.247551	-0.014456	54.9353	-0.245992	-712.627	2.028563E-5	NaN
534	1.000000	0.912327	7.37028e+06	-50389.1	1005.82	-29755.8	0.000000	0.000000	6.913099	0.000415	NaN	0.000000	0.001682	0.001769	28.0822	0.005479	0.002013	2.721553	104.745	16.1232	-0.043346	0.910960	-0.236191	-0.237558	0.000415	2.721553	-0.236305	-503.188	-8.238207E-7	NaN
534	1.000000	0.922351	7.37028e+06	-50389.1	1005.82	-29755.8	0.000000	0.000000	6.923122	-0.033086	NaN	0.000000	0.001708	0.001758	28.0824	0.113681	0.002050	55.4644	-71.3722	-164.345	-0.028704	0.921005	-0.226167	-0.227512	-0.033086	55.4644	-0.225719	-342.574	9.657976E-5	NaN
534	1.000000	0.932320	7.37028e+06	-50389.1	1005.82	-29755.8	0.000000	0.000000	6.933090	-0.050191	NaN	0.000000	0.001689	0.001775	28.0823	0.053009	0.001959	27.0534	-127.009	10.6898	-0.003382	0.931010	-0.216197	-0.217508	-0.050191	27.0534	-0.214806	-229.293	0.000219	NaN
534	1.000000	0.942341	7.37028e+06	-50389.1	1005.82	-29755.8	0.000000	0.000000	6.943111	-0.047381	NaN	0.000000	0.001684	0.001790	28.0822	0.017055	0.001818	9.380079	-47.411	-166.329	0.010186	0.941086	-0.206177	-0.207431	-0.047381	9.380079	-0.202388	-144.171	0.000329	NaN
534	1.000000	0.952341	7.37028e+06	-50389.1	1005.82	-29755.8	0.000000	0.000000	6.953112	-0.020068	NaN	0.000000	0.001677	0.001745	28.0809	0.088639	0.002164	40.9606	-63.9986	13.1167	-0.010484	0.950958	-0.196177	-0.197560	-0.020068	40.9606	-0.195810	-112.358	0.000179	NaN
534	1.000000	0.962339	7.37028e+06	-50389.1	1005.82	-29755.8	0.000000	0.000000	6.963111	0.002852	NaN	0.000000	0.001648	0.001738	28.0813	0.088834	0.001929	46.043	-95.7692	-162.736	-0.026663	0.961016	-0.186178	-0.187502	0.002852	46.043	-0.186225	-77.7589	-3.668306E-5	NaN
534	1.000000	0.972407	7.37028e+06	-50389.1	1005.82	-29755.8	0.000000	0.000000	6.973178	-0.024224	NaN	0.000000	0.001609	0.001769	28.0809	0.093538	0.001950	47.9781	-78.5213	14.1509	0.021104	0.971015	-0.176111	-0.177503	-0.024224	47.9781	-0.175732	-51.5886	0.000470	NaN
534	1.000000	0.982369	7.37028e+06	-50389.1	1005.82	-29755.8	0.000000	0.000000	6.983139	-0.029901	NaN	0.000000	0.001627	0.001753	28.081	0.017606	0.001977	8.904001	8.160355	-160.442	-0.024431	0.981109	-0.166149	-0.167408	-0.029901	8.904001	-0.163630	-31.7845	0.000941	NaN
534	1.000000	0.992370	7.37028e+06	-50389.1	1005.82	-29755.8	0.000000	0.000000	6.993145	0.054179	NaN	0.000000	0.001632	0.001742	28.0809	0.092213	0.001938	47.5722	99.1278	13.7711	0.075229	0.990993	-0.156147	-0.157525	0.054179	47.5722	-0.157001	-24.2383	-0.002235	NaN
534	1.000000	1.002378	7.37028e+06	-50389.1	1005.82	-29755.8	0.000000	0.000000	7.003149	-0.022240	NaN	0.000000	0.001644	0.001705	28.0812	0.097360	0.001913	50.8991	22.0073	-165.307	-0.039484	1.001081	-0.146139	-0.147437	-0.022240	50.8991	-0.145812	-15.1762	0.001465	NaN
534	1.000000	1.012393	7.37028e+06	-50389.1	1005.82	-29755.8	0.000000	0.000000	7.013166	0.018562	NaN	0.000000	0.001615	0.001743	28.0807	0.109202	0.002033	53.7232	175.024	15.1911	-0.005028	1.011002	-0.136125	-0.137516	0.018562	53.7232	-0.136384	-10.1075	-0.001836	NaN
534	1.000000	1.022404	7.37028e+06	-50389.1	1005.82	-29755.8	0.000000	0.000000	7.023176	0.008989	NaN	0.000000	0.001652	0.001755	28.0811	0.021678	0.002127	10.1919	156.198	-164.387	0.021866	1.021096	-0.126114	-0.127421	0.008989	10.1919	-0.126775	-6.591756	-0.001364	NaN
534	1.000000	1.032374	7.37028e+06	-50389.1	1005.82	-29755.8	0.000000	0.000000	7.033144	-0.036951	NaN	0.000000	0.001633	0.001736	28.081	0.097365	0.002106	46.2217	-88.1721	13.2211	-0.021880	1.031016	-0.116144	-0.117501	-0.036951	46.2217	-0.115544	-3.920271	0.009426	NaN
534	1.000000	1.042370	7.37028e+06	-50389.1	1005.82	-29755.8	0.000000	0.000000	7.043142	0.010432	NaN	0.000000	0.001628	0.001726	28.0811	0.042434	0.001977	21.4602	-11.2959	-164.995	0.041375	1.041117	-0.106148	-0.107401	0.010432	21.4602	-0.106512	-2.533500	-0.004118	NaN
534	1.000000	1.052405	7.37028e+06	-50389.1	1005.82	-29755.8	0.000000	0.000000	7.053177	-0.001533	NaN	0.000000	0.001628	0.001749	28.0808	0.145992	0.002089	69.8742	37.2104	15.1327	-0.010000	1.051041	-0.096113	-0.097477	-0.001533	69.8742	-0.096096	-1.493893	0.001026	NaN
534	1.000000	1.062395	7.37028e+06	-50389.1	1005.82	-29755.8	0.000000	0.000000	7.063167	0.011112	NaN	0.000000	0.001624	0.001725	28.0808	0.048712	0.001952	24.9538	127.78	-162.991	-0.021230	1.061093	-0.086123	-0.087425	0.011112	24.9538	-0.086457	-0.890776	-0.012474	NaN
534	1.000000	1.072419	7.37028e+06	-50389.1	1005.82	-29755.8	0.000000	0.000000	7.073189	-0.051090	NaN	0.000000	0.001612	0.001769	28.081	0.074776	0.001957	38.2168	138.927	12.2819	0.026136	1.071033	-0.076099	-0.077485	-0.051090	38.2168	-0.075096	-0.464523	0.109984	NaN
534	1.000000	1.082420	7.37028e+06	-50389.1	1005.82	-29755.8	0.000000	0.000000	7.083191	-0.034724	NaN	0.000000	0.001652	0.001774	28.0816	0.144059	0.001897	75.9287	111.966	-165.634	-0.094059	1.081125	-0.066098	-0.067393	-0.034724	75.9287	-0.065755	-0.261490	0.132791	NaN
534	1.000000	1.092400	7.37028e+06	-50389.1	1005.82	-29755.8	0.000000	0.000000	7.093172	0.017301	NaN	0.000000	0.001605	0.001735	28.082	0.059897	0.001961	30.5476	-30.9604	13.4157	0.051900	1.091086	-0.056118	-0.057431	0.017301	30.5476	-0.056543	-0.142969	-0.121015	NaN
534	1.000000	1.102410	7.37028e+06	-50389.1	1005.82	-29755.8	0.000000	0.000000	7.103183	0.033319	NaN	0.000000	0.001620	0.001778	28.0821	0.115178	0.001977	58.2674	176.287	-163.133	-0.000697	1.101129	-0.046108	-0.047389	0.033319	58.2674	-0.046537	-0.071607	-0.465301	NaN
534	1.000000	1.112400	7.37028e+06	-50389.1	1005.82	-29755.8	0.000000	0.000000	7.113171	-0.005405	NaN	0.000000	0.001666	0.001725	28.0822	0.065910	0.002048	32.1881	80.6748	16.8293	-0.029660	1.111048	-0.036118	-0.037469	-0.005405	32.1881	-0.035992	-0.034263	0.157751	NaN
534	1.000000	1.122425	7.37028e+06	-50389.1	1005.82	-29755.8	0.000000	0.000000	7.123206	0.201907	NaN	0.000000	0.001677	0.001794	28.082	0.266254	0.001939	137.347	9.241670	-165.515	0.052568	1.121169	-0.026092	-0.027349	0.201907	137.347	-0.027195	-0.019286	-10.4693	NaN
534	1.000000	1.132419	7.37028e+06	-50389.1	1005.82	-29755.8	0.000000	0.000000	7.133291	2.426929	NaN	0.000000	0.001707	0.001772	28.082	1.431381	0.001870	765.259	20.9098	14.292	2.549232	1.131034	-0.016099	-0.017484	2.426929	765.259	-0.018477	-0.011484	-211.33	NaN
534	1.000000	1.142427	7.37028e+06	-50389.1	1005.82	-29755.8	0.000000	0.000000	7.143293	2.275800	NaN	0.000000	0.001661	0.001760	28.0823	2.661282	0.002043	1302.4	22.4998	-165.018	1.986808	1.141069	-0.006091	-0.007449	2.275800	1302.4	-0.007401	-0.004879	-466.454	NaN
534	2.000000	1.151548	7.37028e+06	-50389.1	1005.82	-29755.8	0.000000	0.000000	7.152611	7.082495	NaN	0.000000	0.001702	0.001762	28.0824	7.911743	0.001730	4573.94	15.2814	9.093428	7.398151	1.150973	0.003031	0.002455	7.082495	4573.94	0.001869	0.001449	4886.67	109768
534	2.000000	1.154063	7.37028e+06	-50389.1	1005.82	-29755.8	0.000000	0.000000	7.155206	9.024312	NaN	0.000000	0.001669	0.001756	28.0821	10.5418	0.001802	5848.52	11.8021	-172.639	8.770754	1.153769	0.005545	0.005251	9.024312	5848.52	0.004388	0.003582	2519.53	89283.7
534	2.000000	1.156567	7.37028e+06	-50389.1	1005.82	-29755.8	0.000000	0.000000	7.157941	14.6286	NaN	0.000000	0.001690	0.001727	28.0821	13.6646	0.001703	8024.14	7.905256	7.979195	13.7196	1.156137	0.008050	0.007619	14.6286	8024.14	0.006683	0.005722	2556.58	96917
534	2.000000	1.159002	7.37028e+06	-50389.1	1005.82	-29755.8	0.000000	0.000000	7.160622	20.6282	NaN	0.000000	0.001656	0.001770	28.0821	16.4495	0.001804	9117.09	7.428070	-173.661	20.2395	1.158765	0.010484	0.010247	20.6282	9117.09	0.008787	0.007864	2622.98	93928.2
534	2.000000	1.161504	7.37028e+06	-50389.1	1005.82	-29755.8	0.000000	0.000000	7.163587	31.892	NaN	0.000000	0.001682	0.001743	28.0823	19.7754	0.001679	11778.8	10.1148	-0.714524	30.201	1.161101	0.012986	0.012583	31.892	11778.8	0.010955	0.010263	3107.53	106229
534	2.000000	1.163974	7.37028e+06	-50389.1	1005.82	-29755.8	0.000000	0.000000	7.166539	43.6193	NaN	0.000000	0.001694	0.001756	28.0818	22.7279	0.001747	13009.1	6.725921	-178.191	41.8907	1.163692	0.015456	0.015174	43.6193	13009.1	0.012941	0.012637	3451.65	105729
534	2.000000	1.166456	7.37028e+06	-50389.1	1005.82	-29755.8	0.000000	0.000000	7.169583	57.2559	NaN	0.000000	0.001705	0.001749	28.083	25.4896	0.001768	14416.3	10.9335	-3.460542	54.208	1.166143	0.017939	0.017625	57.2559	14416.3	0.014960	0.015232	3758.91	106720
534	2.000000	1.168934	7.37028e+06	-50389.1	1005.82	-29755.8	0.000000	0.000000	7.172721	73.3088	NaN	0.000000	0.001665	0.001755	28.0807	27.3688	0.001725	15865.2	4.819090	-178.734	71.0611	1.168636	0.020417	0.020118	73.3088	15865.2	0.016951	0.017976	4078.16	108112
534	2.000000	1.171470	7.37028e+06	-50389.1	1005.82	-29755.8	0.000000	0.000000	7.175994	91.2512	NaN	0.000000	0.001637	0.001721	28.0809	29.998	0.001815	16526	4.712605	1.970479	89.1355	1.171057	0.022952	0.022539	91.2512	16526	0.018811	0.020708	4406.58	104924
534	2.000000	1.173931	7.37028e+06	-50389.1	1005.82	-29755.8	0.000000	0.000000	7.179109	107.134	NaN	0.000000	0.001669	0.001769	28.0806	32.6778	0.001714	19067.2	4.554803	-179.637	103.766	1.173602	0.025414	0.025085	107.134	19067.2	0.021199	0.024462	4379.56	111381
534	2.000000	1.176392	7.37028e+06	-50389.1	1005.82	-29755.8	0.000000	0.000000	7.182489	129.491	NaN	0.000000	0.001661	0.001769	28.082	35.1216	0.001613	21767.8	8.189267	-4.903931	123.735	1.176066	0.027875	0.027549	129.491	21767.8	0.023413	0.028192	4593.16	118447
534	2.000000	1.178915	7.37028e+06	-50389.1	1005.82	-29755.8	0.000000	0.000000	7.186089	155.686	NaN	0.000000	0.001681	0.001748	28.0805	38.6141	0.001896	20363.5	8.997628	175.191	151.592	1.178569	0.030398	0.030051	155.686	20363.5	0.024664	0.030406	5120.17	106695
534	2.000000	1.181426	7.37028e+06	-50389.1	1005.82	-29755.8	0.000000	0.000000	7.189472	176.894	NaN	0.000000	0.001677	0.001741	28.0813	40.627	0.001819	22330.5	3.465771	0.001267	172.517	1.181029	0.032909	0.032511	176.894	22330.5	0.026967	0.034692	5098.96	109536
534	2.000000	1.184029	7.37028e+06	-50389.1	1005.82	-29755.8	0.000000	0.000000	7.193162	203.343	NaN	0.000000	0.001689	0.001737	28.0806	43.8403	0.001760	24909.3	10.2749	174.259	204.952	1.183611	0.035511	0.035093	203.343	24909.3	0.029389	0.039486	5149.73	114528
534	2.000000	1.186421	7.37028e+06	-50389.1	1005.82	-29755.8	0.000000	0.000000	7.196406	224.04	NaN	0.000000	0.001670	0.001759	28.0813	44.7581	0.001694	26422	4.838922	-2.876620	218.858	1.186046	0.037903	0.037528	224.04	26422	0.031544	0.044005	5091.31	115077
534	2.000000	1.188804	7.37028e+06	-50389.1	1005.82	-29755.8	0.000000	0.000000	7.199868	250.288	NaN	0.000000	0.001645	0.001749	28.0807	47.5184	0.001803	26348.1	3.088421	178.783	244.023	1.188552	0.040286	0.040034	250.288	26348.1	0.033162	0.047552	5263.49	110392
534	2.000000	1.191382	7.37028e+06	-50389.1	1005.82	-29755.8	0.000000	0.000000	7.203681	280.326	NaN	0.000000	0.001664	0.001736	28.081	51.1399	0.001795	28486.5	7.935457	-6.148200	274.807	1.191016	0.042864	0.042499	280.326	28486.5	0.035484	0.052878	5301.37	113182
534	2.000000	1.193907	7.37028e+06	-50389.1	1005.82	-29755.8	0.000000	0.000000	7.207411	309.62	NaN	0.000000	0.001703	0.001719	28.0809	53.8283	0.001856	28996.3	5.198501	176.006	306.222	1.193600	0.045390	0.045082	309.62	28996.3	0.037381	0.057435	5390.74	110541
534	2.000000	1.196389	7.37028e+06	-50389.1	1005.82	-29755.8	0.000000	0.000000	7.210760	330.706	NaN	0.000000	0.001704	0.001766	28.081	55.618	0.001763	31553.8	6.594751	-6.259542	326.238	1.196132	0.047871	0.047615	330.706	31553.8	0.040011	0.064057	5162.72	113905
534	2.000000	1.198900	7.37028e+06	-50389.1	1005.82	-29755.8	0.000000	0.000000	7.215011	373.041	NaN	0.000000	0.001673	0.001753	28.0807	57.5881	0.001754	32831.5	5.696926	176.097	371.108	1.198476	0.050382	0.049959	373.041	32831.5	0.041860	0.068924	5412.34	114256
534	2.000000	1.201371	7.37028e+06	-50389.1	1005.82	-29755.8	0.000000	0.000000	7.218600	400.227	NaN	0.000000	0.001606	0.001736	28.0808	60.0924	0.001908	31497.7	2.717990	-1.848345	394.385	1.200922	0.052853	0.052404	400.227	31497.7	0.043323	0.072898	5490.22	106584
534	2.000000	1.203786	7.37028e+06	-50389.1	1005.82	-29755.8	0.000000	0.000000	7.222479	435.796	NaN	0.000000	0.001611	0.001756	28.0824	63.4132	0.001705	37191	8.965977	170.09	429.23	1.203551	0.055269	0.055033	435.796	37191	0.046480	0.081846	5324.61	118772
534	2.000000	1.206358	7.37028e+06	-50389.1	1005.82	-29755.8	0.000000	0.000000	7.226057	460.275	NaN	0.000000	0.001617	0.001751	28.082	64.153	0.001802	35601.3	3.006789	-2.928730	455.245	1.205986	0.057841	0.057469	460.275	35601.3	0.048144	0.086763	5304.95	110426
534	2.000000	1.208840	7.37028e+06	-50389.1	1005.82	-29755.8	0.000000	0.000000	7.230120	498.712	NaN	0.000000	0.001635	0.001725	28.0819	66.0256	0.001617	40830.2	5.085693	172.99	493.908	1.208531	0.060323	0.060014	498.712	40830.2	0.051162	0.096039	5192.82	120374
534	2.000000	1.211332	7.37028e+06	-50389.1	1005.82	-29755.8	0.000000	0.000000	7.233323	516.017	NaN	0.000000	0.001628	0.001743	28.0821	70.247	0.001791	39233	6.929298	-7.010811	509.43	1.210930	0.062814	0.062413	516.017	39233	0.052949	0.101747	5071.56	112373
534	2.000000	1.213848	7.37028e+06	-50389.1	1005.82	-29755.8	0.000000	0.000000	7.237335	552.403	NaN	0.000000	0.001566	0.001688	28.0821	73.6241	0.001849	39821.6	6.530340	171.989	547.97	1.213524	0.065330	0.065007	552.403	39821.6	0.054926	0.108246	5103.22	110582
534	2.000000	1.216496	7.37028e+06	-50389.1	1005.82	-29755.8	0.000000	0.000000	7.241505	589.4	NaN	0.000000	0.001633	0.001715	28.082	74.5739	0.001743	42791.9	2.856193	-3.863652	588.454	1.215951	0.067978	0.067433	589.4	42791.9	0.057648	0.117510	5015.75	114051
534	2.000000	1.218878	7.37028e+06	-50389.1	1005.82	-29755.8	0.000000	0.000000	7.244684	608.784	NaN	0.000000	0.001609	0.001706	28.082	77.9084	0.001810	43053.8	6.979535	170.852	604.376	1.218557	0.070360	0.070040	608.784	43053.8	0.059755	0.124932	4872.93	111288
534	2.000000	1.221315	7.37028e+06	-50389.1	1005.82	-29755.8	0.000000	0.000000	7.248357	638.84	NaN	0.000000	0.001601	0.001712	28.0824	79.749	0.001809	44083.1	2.547642	-4.542031	632.626	1.221061	0.072798	0.072543	638.84	44083.1	0.061929	0.132816	4809.96	110515
534	2.000000	1.224133	7.37028e+06	-50389.1	1005.82	-29755.8	0.000000	0.000000	7.252086	661.001	NaN	0.000000	0.001645	0.001699	28.082	83.5074	0.001793	46576	5.318267	172.886	675.371	1.223753	0.075615	0.075235	661.001	46576	0.064971	0.144236	4582.79	112047
534	2.000000	1.226236	7.37028e+06	-50389.1	1005.82	-29755.8	0.000000	0.000000	7.256591	719.412	NaN	0.000000	0.001631	0.001694	28.0822	84.0774	0.001782	47175.9	1.020776	-3.204194	708.443	1.225907	0.077719	0.077389	719.412	47175.9	0.066282	0.149292	4818.83	111552
534	2.000000	1.228853	7.37028e+06	-50389.1	1005.82	-29755.8	0.000000	0.000000	7.259999	738.651	NaN	0.000000	0.001599	0.001669	28.082	85.3622	0.001799	47449.7	-0.996325	178.548	734.041	1.228619	0.080336	0.080101	738.651	47449.7	0.068660	0.158681	4654.94	108829
534	2.000000	1.231228	7.37028e+06	-50389.1	1005.82	-29755.8	0.000000	0.000000	7.265209	807.6	NaN	0.000000	0.001618	0.001699	28.0824	88.7144	0.001711	51836.4	3.220515	-6.135298	797.144	1.230922	0.082710	0.082405	807.6	51836.4	0.071025	0.168284	4799.02	115448
534	2.000000	1.233762	7.37028e+06	-50389.1	1005.82	-29755.8	0.000000	0.000000	7.269102	840.627	NaN	0.000000	0.001631	0.001738	28.082	91.7249	0.001776	51657.9	1.208132	175.937	832.645	1.233418	0.085245	0.084900	840.627	51657.9	0.073040	0.176674	4758.08	112286
534	2.000000	1.236360	7.37028e+06	-50389.1	1005.82	-29755.8	0.000000	0.000000	7.273142	875.694	NaN	0.000000	0.001612	0.001726	28.0812	94.3477	0.001892	49866.8	5.432166	-7.729341	871.432	1.236003	0.087842	0.087485	875.694	49866.8	0.074672	0.183611	4769.3	106325
534	2.000000	1.238878	7.37028e+06	-50389.1	1005.82	-29755.8	0.000000	0.000000	7.277118	911.169	NaN	0.000000	0.001628	0.001719	28.0807	97.2898	0.001787	54455.2	6.231826	170.004	908.561	1.238684	0.090360	0.090167	911.169	54455.2	0.077811	0.197305	4618.08	112007
534	2.000000	1.241253	7.37028e+06	-50389.1	1005.82	-29755.8	0.000000	0.000000	7.281390	957.28	NaN	0.000000	0.001652	0.001694	28.0809	99.1777	0.001800	55083.6	1.625816	-4.859722	949.419	1.241016	0.092735	0.092499	957.28	55083.6	0.079701	0.205776	4652.05	110943
534	2.000000	1.243874	7.37028e+06	-50389.1	1005.82	-29755.8	0.000000	0.000000	7.283941	955.591	NaN	0.000000	0.001635	0.001727	28.0807	103.855	0.001875	55395.9	7.606306	168.218	952.81	1.243791	0.095357	0.095273	955.591	55395.9	0.082419	0.218243	4378.57	108338
534	2.000000	1.246677	7.37028e+06	-50389.1	1005.82	-29755.8	0.000000	0.000000	7.289225	1015.93	NaN	0.000000	0.001622	0.001695	28.0808	107.72	0.001839	58582.8	10.4186	-12.3752	1030.9	1.245879	0.098159	0.097362	1015.93	58582.8	0.085153	0.231131	4395.47	111331
534	2.000000	1.248593	7.37028e+06	-50389.1	1005.82	-29755.8	0.000000	0.000000	7.292757	1055.22	NaN	0.000000	0.001609	0.001747	28.0809	106.034	0.001914	55398.6	4.671466	171.921	1038.89	1.248226	0.100076	0.099708	1055.22	55398.6	0.085790	0.234184	4505.95	104591
534	2.000000	1.250103	7.37028e+06	-50389.1	1005.82	-29755.8	0.000000	0.000000	7.294886	1070.27	NaN	0.000000	0.001607	0.001752	28.0814	109.374	0.001822	60023.5	9.537072	168.609	1078.93	1.249409	0.101585	0.100891	1070.27	60023.5	0.088212	0.245963	4351.35	110576