File: remote_trans/data/nanoindenter/0828-1/data/Data_2025-08-06,11h17m57s/2025-07-22_16-23-58_1_368.txt
2025-07-22, 16:23:58, 1
Index	Phase	Displacement	Time	Pos X	Pos Y	Pos Z	Rot A	Rot B	Piezo Z	Force A	Force B	Gripper	Voltage A	Voltage B	Temperature	Amplitude force	Amplitude pos	Stiffness	Phase shift	Phase excitation	Force A raw	Displacement raw	HMax	HMax raw	Real Force	Real Stiffness	Contact Depth	Area	Hardness	Reduced Mod.
[#]	[#]	[um]	[s]	[um]	[um]	[um]	[m°]	[m°]	[um]	[uN]	[uN]	[V]	[V]	[V]	[°C]	[uN]	[um]	[N/m]	[°]	[°]	[uN]	[um]	[um]	[um]	[uN]	[N/m]	[um]	[um^2]	[MPa]	[MPa]
368	1.000000	0.002616	7.36866e+06	-57039.1	955.818	-29737.8	0.000000	0.000000	6.002836	0.127522	NaN	0.000000	0.001642	0.001712	28.0804	0.028653	0.000946	30.3012	-20.7217	-172.479	0.129175	0.001406	-1.107669	-1.108879	0.127522	30.3012	-1.110825	-7.004278E+14	-1.820627E-16	NaN
368	1.000000	0.012659	7.36866e+06	-57039.1	955.819	-29737.8	0.000000	0.000000	6.012873	0.000243	NaN	0.000000	0.001650	0.001748	28.0804	0.064549	0.001235	52.2504	-118.055	22.7255	-0.014430	0.011210	-1.097626	-1.099075	0.000243	52.2504	-1.097630	-4.658550E+14	-5.220042E-19	NaN
368	1.000000	0.022524	7.36866e+06	-57039.1	955.818	-29737.8	0.000000	0.000000	6.022735	-0.076727	NaN	0.000000	0.001642	0.001750	28.0806	0.073974	0.001653	44.7562	-4.725490	-166.533	-0.065462	0.021231	-1.087761	-1.089054	-0.076727	44.7562	-1.086475	-3.299743E+14	2.325228E-16	NaN
368	1.000000	0.032552	7.36866e+06	-57039.1	955.819	-29737.8	0.000000	0.000000	6.032764	-0.068608	NaN	0.000000	0.001652	0.001738	28.0806	0.087533	0.001960	44.6665	93.0778	17.3081	-0.026697	0.031167	-1.077733	-1.079118	-0.068608	44.6665	-1.076581	-2.429932E+14	2.823474E-16	NaN
368	1.000000	0.042518	7.36866e+06	-57039.1	955.818	-29737.8	0.000000	0.000000	6.042733	0.003184	NaN	0.000000	0.001647	0.001820	28.0805	0.030270	0.002000	15.1318	135.221	-165.007	0.047636	0.041227	-1.067767	-1.069058	0.003184	15.1318	-1.067924	-1.859102E+14	-1.712861E-17	NaN
368	1.000000	0.052532	7.36866e+06	-57039.1	955.819	-29737.8	0.000000	0.000000	6.052743	-0.083770	NaN	0.000000	0.001654	0.001708	28.0805	0.067296	0.001982	33.955	63.911	12.4077	-0.048448	0.051178	-1.057753	-1.059107	-0.083770	33.955	-1.055903	-1.281623E+14	6.536277E-16	NaN
368	1.000000	0.062538	7.36866e+06	-57039.1	955.818	-29737.8	0.000000	0.000000	6.062753	0.027962	NaN	0.000000	0.001623	0.001738	28.0804	0.042332	0.001984	21.3397	84.6366	-163.588	0.008267	0.061234	-1.047747	-1.049051	0.027962	21.3397	-1.048730	-1.026458E+14	-2.724161E-16	NaN
368	1.000000	0.072543	7.36866e+06	-57039.1	955.819	-29737.8	0.000000	0.000000	6.072759	0.034410	NaN	0.000000	0.001628	0.001734	28.0802	0.039827	0.002007	19.8457	164.386	11.7715	0.038658	0.071169	-1.037742	-1.039116	0.034410	19.8457	-1.039042	-7.604846E+13	-4.524781E-16	NaN
368	1.000000	0.082567	7.36866e+06	-57039.1	955.819	-29737.8	0.000000	0.000000	6.082782	0.023914	NaN	0.000000	0.001671	0.001752	28.0815	0.031937	0.001919	16.6382	168.191	-168.486	0.036531	0.081254	-1.027718	-1.029031	0.023914	16.6382	-1.028796	-5.537133E+13	-4.318754E-16	NaN
368	1.000000	0.092574	7.36866e+06	-57039.1	955.818	-29737.8	0.000000	0.000000	6.092788	0.001318	NaN	0.000000	0.001684	0.001734	28.0819	0.033053	0.002012	16.4309	1.905600	16.3092	-0.068988	0.091197	-1.017711	-1.019088	0.001318	16.4309	-1.017771	-3.935177E+13	-3.349183E-17	NaN
368	1.000000	0.102562	7.36866e+06	-57039.1	955.818	-29737.8	0.000000	0.000000	6.102777	0.039835	NaN	0.000000	0.001677	0.001764	28.0816	0.042023	0.002065	20.3539	15.3307	-164.493	-0.001450	0.101308	-1.007724	-1.008977	0.039835	20.3539	-1.009191	-3.016467E+13	-1.320598E-15	NaN
368	1.000000	0.112569	7.36866e+06	-57039.1	955.817	-29737.8	0.000000	0.000000	6.112782	-0.024453	NaN	0.000000	0.001659	0.001758	28.0818	0.073175	0.002026	36.1168	-6.257066	14.1507	-0.058829	0.111142	-0.997716	-0.999143	-0.024453	36.1168	-0.997208	-2.080576E+13	1.175310E-15	NaN
368	1.000000	0.122586	7.36866e+06	-57039.1	955.818	-29737.8	0.000000	0.000000	6.122801	0.017406	NaN	0.000000	0.001693	0.001692	28.0814	0.042225	0.001998	21.1351	110.064	-164.754	0.015841	0.121268	-0.987700	-0.989017	0.017406	21.1351	-0.988317	-1.579238E+13	-1.102196E-15	NaN
368	1.000000	0.132554	7.36866e+06	-57039.1	955.819	-29737.8	0.000000	0.000000	6.132768	-0.009073	NaN	0.000000	0.001662	0.001743	28.0818	0.034315	0.001877	18.2826	22.1744	15.6696	0.057359	0.131184	-0.977731	-0.979101	-0.009073	18.2826	-0.977359	-1.124162E+13	8.070732E-16	NaN
368	1.000000	0.142567	7.36866e+06	-57039.1	955.817	-29737.8	0.000000	0.000000	6.142780	-0.016121	NaN	0.000000	0.001658	0.001724	28.0818	0.065780	0.001956	33.6246	-78.309	-160.566	0.024159	0.141222	-0.967718	-0.969063	-0.016121	33.6246	-0.967359	-8.242655E+12	1.955841E-15	NaN
368	1.000000	0.152575	7.36866e+06	-57039.1	955.819	-29737.8	0.000000	0.000000	6.152790	0.023166	NaN	0.000000	0.001624	0.001736	28.0819	0.119294	0.001930	61.8117	168.788	16.7544	-0.020501	0.151211	-0.957710	-0.959074	0.023166	61.8117	-0.957991	-6.162876E+12	-3.759005E-15	NaN
368	1.000000	0.162573	7.36866e+06	-57039.1	955.818	-29737.8	0.000000	0.000000	6.162786	-0.038415	NaN	0.000000	0.001616	0.001748	28.0819	0.058452	0.002107	27.7428	80.3812	-165.849	-0.010672	0.161281	-0.947712	-0.949004	-0.038415	27.7428	-0.946674	-4.336754E+12	8.857995E-15	NaN
368	1.000000	0.172591	7.36866e+06	-57039.1	955.819	-29737.8	0.000000	0.000000	6.172806	0.012133	NaN	0.000000	0.001658	0.001802	28.0821	0.076874	0.002003	38.3813	57.1483	12.2328	0.018357	0.171261	-0.937694	-0.939024	0.012133	38.3813	-0.937931	-3.305394E+12	-3.670603E-15	NaN
368	1.000000	0.182579	7.36866e+06	-57039.1	955.818	-29737.8	0.000000	0.000000	6.182794	0.012916	NaN	0.000000	0.001685	0.001755	28.0818	0.086041	0.001929	44.6021	125.851	-163.275	0.040617	0.181342	-0.927706	-0.928943	0.012916	44.6021	-0.927923	-2.421964E+12	-5.333007E-15	NaN
368	1.000000	0.192608	7.36866e+06	-57039.1	955.819	-29737.8	0.000000	0.000000	6.192826	0.070240	NaN	0.000000	0.001649	0.001795	28.0819	0.080860	0.001985	40.7308	-45.5136	13.2018	-0.006679	0.191229	-0.917677	-0.919056	0.070240	40.7308	-0.918970	-1.833578E+12	-3.830750E-14	NaN
368	1.000000	0.202618	7.36866e+06	-57039.1	955.819	-29737.8	0.000000	0.000000	6.202831	-0.032325	NaN	0.000000	0.001596	0.001812	28.0819	0.045720	0.002028	22.541	-82.1977	-164.791	0.015011	0.201285	-0.907667	-0.909000	-0.032325	22.541	-0.906591	-1.247724E+12	2.590733E-14	NaN
368	1.000000	0.212615	7.36866e+06	-57039.1	955.819	-29737.8	0.000000	0.000000	6.212827	-0.049937	NaN	0.000000	0.001602	0.001737	28.0819	0.059837	0.001999	29.927	107.694	15.4154	-0.048083	0.211242	-0.897670	-0.899043	-0.049937	29.927	-0.896419	-9.092276E+11	5.492278E-14	NaN
368	1.000000	0.222606	7.36866e+06	-57039.1	955.818	-29737.8	0.000000	0.000000	6.222821	0.034497	NaN	0.000000	0.001622	0.001700	28.0804	0.062569	0.001919	32.6047	147.986	-164.719	0.078257	0.221244	-0.887679	-0.889041	0.034497	32.6047	-0.888473	-7.100218E+11	-4.858650E-14	NaN
368	1.000000	0.232596	7.36866e+06	-57039.1	955.818	-29737.8	0.000000	0.000000	6.232813	0.065341	NaN	0.000000	0.001615	0.001751	28.0804	0.045294	0.001878	24.116	5.258050	17.3754	0.099999	0.231300	-0.877689	-0.878985	0.065341	24.116	-0.879721	-5.406817E+11	-1.208498E-13	NaN
368	1.000000	0.242570	7.36866e+06	-57039.1	955.818	-29737.8	0.000000	0.000000	6.242783	-0.032252	NaN	0.000000	0.001616	0.001757	28.0804	0.079812	0.001979	40.3343	149.791	-163.711	-0.045415	0.241332	-0.867715	-0.868953	-0.032252	40.3343	-0.867115	-3.651003E+11	8.833684E-14	NaN
368	1.000000	0.252622	7.36866e+06	-57039.1	955.818	-29737.8	0.000000	0.000000	6.252837	0.027528	NaN	0.000000	0.001597	0.001760	28.0802	0.124315	0.002047	60.723	-104.796	10.8147	-0.040249	0.251262	-0.857664	-0.859023	0.027528	60.723	-0.858004	-2.748507E+11	-1.001554E-13	NaN
368	1.000000	0.262611	7.36866e+06	-57039.1	955.818	-29737.8	0.000000	0.000000	6.262826	0.030551	NaN	0.000000	0.001656	0.001740	28.0801	0.060454	0.001982	30.5086	143.158	-168.234	-0.010710	0.261282	-0.847674	-0.849003	0.030551	30.5086	-0.848425	-2.038987E+11	-1.498357E-13	NaN
368	1.000000	0.272634	7.36866e+06	-57039.1	955.818	-29737.8	0.000000	0.000000	6.272844	-0.102950	NaN	0.000000	0.001623	0.001736	28.0803	0.051267	0.002182	23.4947	-49.372	12.7744	-0.058357	0.271306	-0.837651	-0.838979	-0.102950	23.4947	-0.834365	-1.315028E+11	7.828721E-13	NaN
368	1.000000	0.282605	7.36866e+06	-57039.1	955.818	-29737.8	0.000000	0.000000	6.282816	-0.079742	NaN	0.000000	0.001600	0.001723	28.0805	0.046288	0.001906	24.2872	1.031283	-167.834	-0.118881	0.281321	-0.827680	-0.828964	-0.079742	24.2872	-0.825217	-9.884421E+10	8.067441E-13	NaN
368	1.000000	0.292653	7.36866e+06	-57039.1	955.818	-29737.8	0.000000	0.000000	6.292866	-0.037595	NaN	0.000000	0.001596	0.001735	28.0803	0.110511	0.002009	55.0038	-8.513317	14.6649	0.023607	0.291217	-0.817632	-0.819068	-0.037595	55.0038	-0.817119	-7.676086E+10	4.897673E-13	NaN
368	1.000000	0.302631	7.36866e+06	-57039.1	955.818	-29737.8	0.000000	0.000000	6.302847	0.040477	NaN	0.000000	0.001619	0.001720	28.0801	0.047060	0.001997	23.5692	177.99	-167.081	-0.038984	0.301364	-0.807654	-0.808921	0.040477	23.5692	-0.808942	-5.945882E+10	-6.807515E-13	NaN
368	1.000000	0.312632	7.36866e+06	-57039.1	955.818	-29737.8	0.000000	0.000000	6.312845	-0.034494	NaN	0.000000	0.001647	0.001729	28.0802	0.120909	0.002044	59.1525	-74.6204	14.1224	0.004850	0.311278	-0.797653	-0.799007	-0.034494	59.1525	-0.797216	-4.121587E+10	8.369116E-13	NaN
368	1.000000	0.322611	7.36866e+06	-57039.1	955.818	-29737.8	0.000000	0.000000	6.322825	-0.018798	NaN	0.000000	0.001626	0.001715	28.0802	0.043018	0.001871	22.9981	112.906	-166.372	-0.041533	0.321361	-0.787674	-0.788925	-0.018798	22.9981	-0.787061	-3.000290E+10	6.265317E-13	NaN
368	1.000000	0.332682	7.36866e+06	-57039.1	955.818	-29737.8	0.000000	0.000000	6.332898	0.053340	NaN	0.000000	0.001613	0.001727	28.0804	0.060979	0.001916	31.8248	-74.1575	11.8247	-0.013298	0.331327	-0.777603	-0.778958	0.053340	31.8248	-0.778860	-2.321354E+10	-2.297809E-12	NaN
368	1.000000	0.342680	7.36866e+06	-57039.1	955.819	-29737.8	0.000000	0.000000	6.342894	-0.011501	NaN	0.000000	0.001616	0.001773	28.0802	0.082010	0.001917	42.7877	-52.1519	-168.852	-0.064491	0.341304	-0.767605	-0.768981	-0.011501	42.7877	-0.767404	-1.621816E+10	7.091339E-13	NaN
368	1.000000	0.352661	7.36866e+06	-57039.1	955.818	-29737.8	0.000000	0.000000	6.352873	-0.039546	NaN	0.000000	0.001587	0.001746	28.0803	0.150160	0.002063	72.8008	170.745	11.5098	-0.072366	0.351295	-0.757625	-0.758990	-0.039546	72.8008	-0.757217	-1.178801E+10	3.354788E-12	NaN
368	1.000000	0.362632	7.36866e+06	-57039.1	955.818	-29737.8	0.000000	0.000000	6.362845	-0.017881	NaN	0.000000	0.001626	0.001760	28.0816	0.061056	0.002115	28.8688	32.6568	-164.086	-0.059490	0.361375	-0.747653	-0.748910	-0.017881	28.8688	-0.747189	-8.608980E+9	2.077008E-12	NaN
368	1.000000	0.372675	7.36866e+06	-57039.1	955.818	-29737.8	0.000000	0.000000	6.372888	-0.051044	NaN	0.000000	0.001621	0.001726	28.0815	0.068536	0.002035	33.6825	-74.8158	14.4215	0.079314	0.371364	-0.737610	-0.738921	-0.051044	33.6825	-0.736473	-6.151919E+9	8.297294E-12	NaN
368	1.000000	0.382693	7.36866e+06	-57039.1	955.818	-29737.8	0.000000	0.000000	6.382909	0.031838	NaN	0.000000	0.001569	0.001723	28.0816	0.071389	0.002044	34.9282	179.914	-165.472	-0.009530	0.381415	-0.727592	-0.728870	0.031838	34.9282	-0.728276	-4.756717E+9	-6.693219E-12	NaN
368	1.000000	0.392663	7.36866e+06	-57039.1	955.82	-29737.8	0.000000	0.000000	6.392878	0.022714	NaN	0.000000	0.001594	0.001732	28.0816	0.041947	0.001990	21.0792	-159.875	16.3813	-0.049631	0.391313	-0.717622	-0.718972	0.022714	21.0792	-0.718431	-3.491945E+9	-6.504737E-12	NaN
368	1.000000	0.402671	7.36866e+06	-57039.1	955.818	-29737.8	0.000000	0.000000	6.402888	0.050822	NaN	0.000000	0.001610	0.001703	28.0818	0.060209	0.001963	30.6772	123.152	-166.48	-0.005409	0.401327	-0.707614	-0.708958	0.050822	30.6772	-0.708856	-2.584865E+9	-1.966138E-11	NaN
368	1.000000	0.412714	7.36866e+06	-57039.1	955.818	-29737.8	0.000000	0.000000	6.412930	0.042967	NaN	0.000000	0.001581	0.001765	28.0815	0.057633	0.001973	29.2113	-128.531	16.763	0.067032	0.411353	-0.697571	-0.698932	0.042967	29.2113	-0.698674	-1.876823E+9	-2.289372E-11	NaN
368	1.000000	0.422716	7.36866e+06	-57039.1	955.818	-29737.8	0.000000	0.000000	6.422931	-0.000255	NaN	0.000000	0.001608	0.001733	28.0816	0.137321	0.001990	68.9889	-62.4589	-164.851	0.044039	0.421363	-0.687569	-0.688922	-0.000255	68.9889	-0.687566	-1.323280E+9	1.925541E-13	NaN
368	1.000000	0.432685	7.36866e+06	-57039.1	955.818	-29737.8	0.000000	0.000000	6.432898	-0.031904	NaN	0.000000	0.001609	0.001776	28.0815	0.102180	0.002070	49.3538	165.736	17.3477	0.008236	0.431325	-0.677600	-0.678960	-0.031904	49.3538	-0.677115	-9.522410E+8	3.350465E-11	NaN
368	1.000000	0.442697	7.36866e+06	-57039.1	955.818	-29737.8	0.000000	0.000000	6.442912	0.013491	NaN	0.000000	0.001632	0.001762	28.0814	0.093330	0.001953	47.7974	-72.1687	-164.346	-0.013205	0.441372	-0.667588	-0.668913	0.013491	47.7974	-0.667800	-7.100310E+8	-1.900090E-11	NaN
368	1.000000	0.452668	7.36866e+06	-57039.1	955.819	-29737.8	0.000000	0.000000	6.452886	0.088101	NaN	0.000000	0.001603	0.001754	28.0814	0.040434	0.001998	20.2351	142.999	15.8363	0.033587	0.451347	-0.657617	-0.658938	0.088101	20.2351	-0.660882	-5.708864E+8	-1.543237E-10	NaN
368	1.000000	0.462698	7.36866e+06	-57039.1	955.818	-29737.8	0.000000	0.000000	6.462914	0.043069	NaN	0.000000	0.001621	0.001758	28.0826	0.090531	0.002128	42.5524	102.871	-165.617	0.051651	0.461385	-0.647587	-0.648900	0.043069	42.5524	-0.648346	-3.843797E+8	-1.120478E-10	NaN
368	1.000000	0.472710	7.36866e+06	-57039.1	955.819	-29737.8	0.000000	0.000000	6.472925	0.017586	NaN	0.000000	0.001617	0.001742	28.0817	0.014068	0.002025	6.948786	-1.143759	15.8772	0.000359	0.471321	-0.637575	-0.638964	0.017586	6.948786	-0.639473	-2.904437E+8	-6.054832E-11	NaN
368	1.000000	0.482702	7.36866e+06	-57039.1	955.819	-29737.8	0.000000	0.000000	6.482918	0.044096	NaN	0.000000	0.001601	0.001726	28.0815	0.046283	0.001964	23.5669	-57.8025	-162.694	0.040176	0.481432	-0.627584	-0.628853	0.044096	23.5669	-0.628987	-2.085018E+8	-2.114920E-10	NaN
368	1.000000	0.492701	7.36866e+06	-57039.1	955.818	-29737.8	0.000000	0.000000	6.492914	-0.027849	NaN	0.000000	0.001639	0.001741	28.0803	0.004034	0.001830	2.204024	-163.218	13.887	0.022801	0.491367	-0.617584	-0.618918	-0.027849	2.204024	-0.608107	-1.076637E+8	2.586692E-10	NaN
368	1.000000	0.502727	7.36866e+06	-57039.1	955.818	-29737.8	0.000000	0.000000	6.502943	0.033478	NaN	0.000000	0.001606	0.001724	28.08	0.089169	0.001924	46.3352	57.7042	-164.263	0.019301	0.501460	-0.607558	-0.608825	0.033478	46.3352	-0.608100	-1.076378E+8	-3.110293E-10	NaN
368	1.000000	0.512702	7.36866e+06	-57039.1	955.819	-29737.8	0.000000	0.000000	6.512914	-0.064603	NaN	0.000000	0.001637	0.001719	28.0802	0.064559	0.001949	33.1318	-154.008	14.4854	-0.025633	0.511353	-0.597583	-0.598932	-0.064603	33.1318	-0.596120	-7.362368E+7	8.774800E-10	NaN
368	1.000000	0.522720	7.36866e+06	-57039.1	955.819	-29737.8	0.000000	0.000000	6.522936	0.020110	NaN	0.000000	0.001637	0.001727	28.08	0.146083	0.002062	70.8378	-129.782	-160.04	-0.015746	0.521451	-0.587565	-0.588834	0.020110	70.8378	-0.587777	-5.649652E+7	-3.559460E-10	NaN
368	1.000000	0.532741	7.36866e+06	-57039.1	955.818	-29737.8	0.000000	0.000000	6.532956	0.009707	NaN	0.000000	0.001624	0.001757	28.0801	0.083479	0.001865	44.7521	135.253	16.9853	0.001655	0.531351	-0.577544	-0.578934	0.009707	44.7521	-0.577706	-4.102670E+7	-2.366063E-10	NaN
368	1.000000	0.542748	7.36866e+06	-57039.1	955.817	-29737.8	0.000000	0.000000	6.542965	0.051286	NaN	0.000000	0.001632	0.001743	28.0801	0.017993	0.001894	9.497977	-121.609	-165.207	0.110735	0.541405	-0.567537	-0.568880	0.051286	9.497977	-0.571587	-3.377157E+7	-1.518607E-9	NaN
368	1.000000	0.552723	7.36866e+06	-57039.1	955.819	-29737.8	0.000000	0.000000	6.552935	-0.046652	NaN	0.000000	0.001616	0.001739	28.0804	0.039277	0.002046	19.1959	131.895	13.9302	-0.030418	0.551426	-0.557562	-0.558859	-0.046652	19.1959	-0.555739	-2.039021E+7	2.287977E-9	NaN
368	1.000000	0.562781	7.36866e+06	-57039.1	955.818	-29737.8	0.000000	0.000000	6.562993	-0.045399	NaN	0.000000	0.001632	0.001737	28.0802	0.088253	0.002002	44.0848	103.22	-164.707	-0.028311	0.561383	-0.547504	-0.548902	-0.045399	44.0848	-0.546732	-1.529970E+7	2.967317E-9	NaN
368	1.000000	0.572713	7.36866e+06	-57039.1	955.818	-29737.8	0.000000	0.000000	6.572928	0.009390	NaN	0.000000	0.001596	0.001723	28.0802	0.072492	0.002109	34.3778	74.1444	14.7773	-0.050282	0.571388	-0.537572	-0.538897	0.009390	34.3778	-0.537777	-1.149539E+7	-8.168355E-10	NaN
368	1.000000	0.582749	7.36866e+06	-57039.1	955.819	-29737.8	0.000000	0.000000	6.582963	-0.016037	NaN	0.000000	0.001622	0.001731	28.0803	0.078064	0.001967	39.689	-147.779	-161.548	-0.026985	0.581470	-0.527536	-0.528815	-0.016037	39.689	-0.527233	-8.20615e+06	1.954288E-9	NaN
368	1.000000	0.592762	7.36866e+06	-57039.1	955.818	-29737.8	0.000000	0.000000	6.592976	-0.002932	NaN	0.000000	0.001661	0.001757	28.0803	0.110260	0.002064	53.4167	40.7233	13.5567	-0.043899	0.591389	-0.517523	-0.518896	-0.002932	53.4167	-0.517482	-6.00587e+06	4.881492E-10	NaN
368	1.000000	0.602772	7.36866e+06	-57039.1	955.818	-29737.8	0.000000	0.000000	6.602986	0.004954	NaN	0.000000	0.001663	0.001745	28.08	0.099599	0.002046	48.6875	153.356	-167.058	-0.039984	0.601480	-0.507513	-0.508805	0.004954	48.6875	-0.507590	-4.37358e+06	-1.132609E-9	NaN
368	1.000000	0.612772	7.36866e+06	-57039.1	955.818	-29737.8	0.000000	0.000000	6.612987	0.018388	NaN	0.000000	0.001658	0.001750	28.0803	0.068517	0.002061	33.2401	-120.791	13.2804	-0.012751	0.611404	-0.497513	-0.498881	0.018388	33.2401	-0.497928	-3.20709e+06	-5.733580E-9	NaN
368	1.000000	0.622755	7.36866e+06	-57039.1	955.818	-29737.8	0.000000	0.000000	6.622971	0.041668	NaN	0.000000	0.001632	0.001775	28.0806	0.007847	0.002084	3.765810	-144.856	-164.912	0.031280	0.621466	-0.487530	-0.488819	0.041668	3.765810	-0.495828	-2.99777e+06	-1.389970E-8	NaN
368	1.000000	0.632769	7.36866e+06	-57039.1	955.818	-29737.8	0.000000	0.000000	6.632982	-0.031264	NaN	0.000000	0.001656	0.001725	28.0817	0.043945	0.002089	21.0331	29.9379	13.231	-0.097049	0.631463	-0.477516	-0.478822	-0.031264	21.0331	-0.476402	-1.60375e+06	1.949409E-8	NaN
368	1.000000	0.642772	7.36866e+06	-57039.1	955.818	-29737.8	0.000000	0.000000	6.642988	0.063668	NaN	0.000000	0.001625	0.001775	28.0818	0.014486	0.001972	7.347309	-162.271	-164.553	0.086218	0.641484	-0.467514	-0.468801	0.063668	7.347309	-0.474013	-1.48479e+06	-4.288023E-8	NaN
368	1.000000	0.652789	7.36866e+06	-57039.1	955.819	-29737.8	0.000000	0.000000	6.653001	-0.047025	NaN	0.000000	0.001643	0.001761	28.0816	0.158668	0.002025	78.3478	169.741	16.1161	0.062251	0.651449	-0.457497	-0.458836	-0.047025	78.3478	-0.457046	-858021	5.480659E-8	NaN
368	1.000000	0.662782	7.36866e+06	-57039.1	955.818	-29737.8	0.000000	0.000000	6.662997	0.008860	NaN	0.000000	0.001627	0.001789	28.0816	0.069454	0.002026	34.2829	130.678	-168.825	-0.059238	0.661455	-0.447503	-0.448830	0.008860	34.2829	-0.447697	-633726	-1.398009E-8	NaN
368	1.000000	0.672808	7.36866e+06	-57039.1	955.819	-29737.8	0.000000	0.000000	6.673019	-0.083288	NaN	0.000000	0.001613	0.001771	28.0816	0.059652	0.002141	27.8623	25.669	13.4518	0.023557	0.671446	-0.437477	-0.438839	-0.083288	27.8623	-0.435235	-422739	1.970203E-7	NaN
368	1.000000	0.682812	7.36866e+06	-57039.1	955.818	-29737.8	0.000000	0.000000	6.683025	-0.031543	NaN	0.000000	0.001641	0.001772	28.0816	0.071681	0.001969	36.3978	148.031	-168.753	-0.079566	0.681517	-0.427473	-0.428768	-0.031543	36.3978	-0.426823	-321443	9.812910E-8	NaN
368	1.000000	0.692823	7.36866e+06	-57039.1	955.818	-29737.8	0.000000	0.000000	6.693040	0.049769	NaN	0.000000	0.001659	0.001764	28.0817	0.060067	0.001929	31.1393	145.99	15.4673	0.057038	0.691481	-0.417462	-0.418804	0.049769	31.1393	-0.418660	-246270	-2.020902E-7	NaN
368	1.000000	0.702809	7.36866e+06	-57039.1	955.818	-29737.8	0.000000	0.000000	6.703024	0.011044	NaN	0.000000	0.001646	0.001755	28.0816	0.096990	0.002111	45.9445	74.4686	-167.229	-0.011109	0.701542	-0.407476	-0.408743	0.011044	45.9445	-0.407657	-171816	-6.427561E-8	NaN
368	1.000000	0.712808	7.36866e+06	-57039.1	955.819	-29737.8	0.000000	0.000000	6.713022	-0.015639	NaN	0.000000	0.001631	0.001756	28.0815	0.036227	0.001969	18.396	141.764	16.9174	0.010944	0.711462	-0.397477	-0.398823	-0.015639	18.396	-0.396839	-120474	1.298131E-7	NaN
368	1.000000	0.722817	7.36866e+06	-57039.1	955.818	-29737.8	0.000000	0.000000	6.723030	-0.029840	NaN	0.000000	0.001632	0.001760	28.0815	0.130739	0.002044	63.9541	-174.909	-166.01	-0.080197	0.721513	-0.387468	-0.388772	-0.029840	63.9541	-0.387118	-87484	3.410896E-7	NaN
368	1.000000	0.732823	7.36866e+06	-57039.1	955.818	-29737.8	0.000000	0.000000	6.733039	0.036354	NaN	0.000000	0.001653	0.001735	28.0817	0.100336	0.002044	49.0887	-124.128	12.8742	-0.091685	0.731468	-0.377462	-0.378818	0.036354	49.0887	-0.378017	-64777.6	-5.612135E-7	NaN
368	1.000000	0.742814	7.36866e+06	-57039.1	955.818	-29737.8	0.000000	0.000000	6.743026	-0.069691	NaN	0.000000	0.001661	0.001752	28.0814	0.073538	0.001923	38.2389	-157.186	-164.695	-0.003506	0.741479	-0.367471	-0.368806	-0.069691	38.2389	-0.366104	-43649.4	1.596613E-6	NaN
368	1.000000	0.752872	7.36866e+06	-57039.1	955.818	-29737.8	0.000000	0.000000	6.753084	-0.058122	NaN	0.000000	0.001621	0.001722	28.0815	0.054231	0.002052	26.4269	-30.6848	15.0819	0.008268	0.751484	-0.357413	-0.358801	-0.058122	26.4269	-0.355764	-30942.4	1.878402E-6	NaN
368	1.000000	0.762844	7.36866e+06	-57039.1	955.818	-29737.8	0.000000	0.000000	6.763056	-0.055344	NaN	0.000000	0.001629	0.001728	28.0816	0.025606	0.001954	13.1039	141.506	-163.962	0.006605	0.761482	-0.347441	-0.348803	-0.055344	13.1039	-0.344274	-21076.1	2.625933E-6	NaN
368	1.000000	0.772861	7.36866e+06	-57039.1	955.819	-29737.8	0.000000	0.000000	6.773078	0.050404	NaN	0.000000	0.001610	0.001718	28.0807	0.055455	0.002017	27.5004	24.4213	13.475	0.004674	0.771473	-0.337424	-0.338812	0.050404	27.5004	-0.338798	-17540.2	-2.873635E-6	NaN
368	1.000000	0.782850	7.36866e+06	-57039.1	955.818	-29737.8	0.000000	0.000000	6.783064	-0.002775	NaN	0.000000	0.001634	0.001777	28.0801	0.041528	0.002195	18.9209	125.811	-165.131	0.043664	0.781534	-0.327435	-0.328751	-0.002775	18.9209	-0.327325	-11919.4	2.328313E-7	NaN
368	1.000000	0.792826	7.36866e+06	-57039.1	955.819	-29737.8	0.000000	0.000000	6.793042	0.037316	NaN	0.000000	0.001610	0.001792	28.0802	0.170094	0.002025	83.9868	54.2919	17.6506	-0.021480	0.791472	-0.317459	-0.318813	0.037316	83.9868	-0.317792	-8632.25	-4.322842E-6	NaN
368	1.000000	0.802876	7.36866e+06	-57039.1	955.818	-29737.8	0.000000	0.000000	6.803089	-0.027808	NaN	0.000000	0.001607	0.001787	28.0804	0.093721	0.002101	44.6104	24.2486	-167.618	0.005151	0.801561	-0.307409	-0.308724	-0.027808	44.6104	-0.306942	-5967.01	4.660211E-6	NaN
368	1.000000	0.812868	7.36866e+06	-57039.1	955.819	-29737.8	0.000000	0.000000	6.813084	0.039346	NaN	0.000000	0.001622	0.001777	28.0802	0.064013	0.002009	31.8637	-74.2742	13.9349	-0.011564	0.811450	-0.297417	-0.298835	0.039346	31.8637	-0.298343	-4445.92	-8.849982E-6	NaN
368	1.000000	0.822859	7.36866e+06	-57039.1	955.818	-29737.8	0.000000	0.000000	6.823073	-0.005576	NaN	0.000000	0.001626	0.001716	28.0802	0.107940	0.001922	56.1696	172.703	-166.795	0.005716	0.821539	-0.287426	-0.288746	-0.005576	56.1696	-0.287351	-3044.98	1.831098E-6	NaN
368	1.000000	0.832874	7.36866e+06	-57039.1	955.817	-29737.8	0.000000	0.000000	6.833089	0.028970	NaN	0.000000	0.001644	0.001788	28.0801	0.070995	0.001976	35.9248	-71.8929	13.856	0.024149	0.831461	-0.277411	-0.278824	0.028970	35.9248	-0.278016	-2203.02	-1.315012E-5	NaN
368	1.000000	0.842859	7.36866e+06	-57039.1	955.819	-29737.8	0.000000	0.000000	6.843071	-0.053938	NaN	0.000000	0.001632	0.001768	28.0807	0.066238	0.001869	35.4326	27.5351	-168.553	-0.058548	0.841634	-0.267426	-0.268651	-0.053938	35.4326	-0.266284	-1462.11	3.689024E-5	NaN
368	1.000000	0.852847	7.36866e+06	-57039.1	955.818	-29737.8	0.000000	0.000000	6.853058	-0.077935	NaN	0.000000	0.001618	0.001748	28.0801	0.019230	0.001964	9.792713	162.626	13.8792	-0.073757	0.851517	-0.257438	-0.258768	-0.077935	9.792713	-0.251469	-866.301	8.996290E-5	NaN
368	1.000000	0.862877	7.36866e+06	-57039.1	955.818	-29737.8	0.000000	0.000000	6.863092	0.008891	NaN	0.000000	0.001638	0.001762	28.0802	0.041557	0.002039	20.3768	-56.0497	-164.984	0.015639	0.861521	-0.247408	-0.248764	0.008891	20.3768	-0.247735	-758.413	-1.172363E-5	NaN
368	1.000000	0.872886	7.36866e+06	-57039.1	955.819	-29737.8	0.000000	0.000000	6.873101	-0.006473	NaN	0.000000	0.001623	0.001749	28.0801	0.057264	0.001886	30.3696	22.6134	12.2545	0.020881	0.871449	-0.237399	-0.238836	-0.006473	30.3696	-0.237239	-520.428	1.243700E-5	NaN
368	1.000000	0.882866	7.36866e+06	-57039.1	955.819	-29737.8	0.000000	0.000000	6.883078	-0.046077	NaN	0.000000	0.001615	0.001751	28.0803	0.073480	0.002053	35.7905	-127.992	-167.372	-0.082528	0.881559	-0.227419	-0.228726	-0.046077	35.7905	-0.226454	-351.89	0.000131	NaN
368	1.000000	0.892882	7.36867e+06	-57039.1	955.818	-29737.8	0.000000	0.000000	6.893095	-0.029479	NaN	0.000000	0.001634	0.001729	28.0802	0.067043	0.001989	33.7062	148.975	14.1435	-0.050288	0.891556	-0.217403	-0.218729	-0.029479	33.7062	-0.216747	-246.365	0.000120	NaN
368	1.000000	0.902892	7.36867e+06	-57039.1	955.818	-29737.8	0.000000	0.000000	6.903107	0.004445	NaN	0.000000	0.001656	0.001738	28.0813	0.035090	0.002022	17.3558	-46.7554	-165.988	0.021259	0.901587	-0.207393	-0.208698	0.004445	17.3558	-0.207585	-175.242	-2.536237E-5	NaN
368	1.000000	0.912920	7.36867e+06	-57039.1	955.819	-29737.8	0.000000	0.000000	6.913134	-0.020843	NaN	0.000000	0.001630	0.001767	28.0813	0.086896	0.002067	42.0403	-85.0688	15.6953	-0.044352	0.911531	-0.197365	-0.198754	-0.020843	42.0403	-0.196993	-117.534	0.000177	NaN
368	1.000000	0.922911	7.36867e+06	-57039.1	955.819	-29737.8	0.000000	0.000000	6.923124	-0.014014	NaN	0.000000	0.001603	0.001767	28.0815	0.112907	0.002029	55.6426	-16.5407	-166.195	0.020275	0.921574	-0.187374	-0.188711	-0.014014	55.6426	-0.187185	-80.704	0.000174	NaN
368	1.000000	0.932903	7.36867e+06	-57039.1	955.818	-29737.8	0.000000	0.000000	6.933116	-0.029459	NaN	0.000000	0.001637	0.001776	28.0812	0.093654	0.001875	49.942	-84.1788	15.0163	-0.013519	0.931590	-0.177382	-0.178695	-0.029459	49.942	-0.176940	-54.1066	0.000544	NaN
368	1.000000	0.942906	7.36867e+06	-57039.1	955.818	-29737.8	0.000000	0.000000	6.943124	0.081625	NaN	0.000000	0.001676	0.001773	28.0813	0.044899	0.001803	24.8956	-117.706	-167.317	0.035467	0.941612	-0.167379	-0.168673	0.081625	24.8956	-0.169838	-40.8132	-0.002000	NaN
368	1.000000	0.952908	7.36867e+06	-57039.1	955.818	-29737.8	0.000000	0.000000	6.953120	-0.049337	NaN	0.000000	0.001645	0.001753	28.0815	0.066645	0.001937	34.4	-60.6895	11.1326	-0.003203	0.951535	-0.157377	-0.158750	-0.049337	34.4	-0.156301	-23.5481	0.002095	NaN
368	1.000000	0.962912	7.36867e+06	-57039.1	955.819	-29737.8	0.000000	0.000000	6.963124	-0.056032	NaN	0.000000	0.001634	0.001766	28.0815	0.054504	0.001931	28.2261	-118.144	-161.61	0.015524	0.961614	-0.147373	-0.148671	-0.056032	28.2261	-0.145884	-15.223	0.003681	NaN
368	1.000000	0.972905	7.36867e+06	-57039.1	955.819	-29737.8	0.000000	0.000000	6.973118	-0.033490	NaN	0.000000	0.001614	0.001743	28.0814	0.050656	0.002129	23.7933	9.382710	12.3774	-0.013841	0.971525	-0.137380	-0.138760	-0.033490	23.7933	-0.136324	-10.0813	0.003322	NaN
368	1.000000	0.982941	7.36867e+06	-57039.1	955.818	-29737.8	0.000000	0.000000	6.983156	0.006392	NaN	0.000000	0.001600	0.001756	28.0816	0.060113	0.002027	29.6626	69.2874	-167.128	0.034017	0.981622	-0.127344	-0.128663	0.006392	29.6626	-0.127505	-6.812959	-0.000938	NaN
368	1.000000	0.992952	7.36867e+06	-57039.1	955.818	-29737.8	0.000000	0.000000	6.993166	0.004006	NaN	0.000000	0.001621	0.001719	28.0817	0.026746	0.002072	12.9072	-95.9875	11.9302	-0.059681	0.991544	-0.117333	-0.118741	0.004006	12.9072	-0.117566	-4.312259	-0.000929	NaN
368	1.000000	1.002939	7.36867e+06	-57039.1	955.819	-29737.8	0.000000	0.000000	7.003150	-0.069056	NaN	0.000000	0.001590	0.001735	28.0812	0.104269	0.001896	54.9866	123.875	-167.743	-0.031541	1.001634	-0.107346	-0.108651	-0.069056	54.9866	-0.106404	-2.520039	0.027403	NaN
368	1.000000	1.012943	7.36867e+06	-57039.1	955.82	-29737.8	0.000000	0.000000	7.013153	-0.116639	NaN	0.000000	0.001639	0.001750	28.0812	0.083841	0.001908	43.9502	85.128	10.0474	-0.050882	1.011582	-0.097342	-0.098703	-0.116639	43.9502	-0.095351	-1.436862	0.081176	NaN
368	1.000000	1.022926	7.36867e+06	-57039.1	955.818	-29737.8	0.000000	0.000000	7.023139	-0.027049	NaN	0.000000	0.001638	0.001747	28.0813	0.056486	0.001893	29.8441	57.2743	-165.496	-0.055330	1.021579	-0.087359	-0.088706	-0.027049	29.8441	-0.086679	-0.901783	0.029995	NaN
368	1.000000	1.032948	7.36867e+06	-57039.1	955.818	-29737.8	0.000000	0.000000	7.033163	0.017340	NaN	0.000000	0.001653	0.001725	28.0814	0.068195	0.002130	32.012	-90.6693	14.0911	0.081962	1.031593	-0.077337	-0.078692	0.017340	32.012	-0.077743	-0.543035	-0.031931	NaN
368	1.000000	1.042979	7.36867e+06	-57039.1	955.818	-29737.8	0.000000	0.000000	7.043192	-0.043854	NaN	0.000000	0.001661	0.001704	28.0801	0.077161	0.001914	40.3122	-178.988	-165.985	-0.062768	1.041636	-0.067306	-0.068649	-0.043854	40.3122	-0.066490	-0.273968	0.160069	NaN
368	1.000000	1.052951	7.36867e+06	-57039.1	955.819	-29737.8	0.000000	0.000000	7.053166	0.020170	NaN	0.000000	0.001646	0.001742	28.0801	0.028220	0.001878	15.0248	-34.3971	12.3662	0.005577	1.051605	-0.057334	-0.058680	0.020170	15.0248	-0.058341	-0.161311	-0.125038	NaN
368	1.000000	1.062970	7.36867e+06	-57039.1	955.819	-29737.8	0.000000	0.000000	7.063182	-0.051096	NaN	0.000000	0.001679	0.001764	28.0801	0.016656	0.001920	8.676092	-64.3772	-163.028	-0.067187	1.061621	-0.047315	-0.048665	-0.051096	8.676092	-0.042898	-0.055427	0.921865	NaN
368	1.000000	1.072943	7.36867e+06	-57039.1	955.819	-29737.8	0.000000	0.000000	7.073156	-0.035089	NaN	0.000000	0.001659	0.001745	28.0804	0.004772	0.001861	2.563614	158.544	16.5029	0.001762	1.071645	-0.037342	-0.038640	-0.035089	2.563614	-0.027077	-0.019145	1.832812	NaN
368	1.000000	1.082954	7.36867e+06	-57039.1	955.819	-29737.8	0.000000	0.000000	7.083169	0.013115	NaN	0.000000	0.001634	0.001754	28.0801	0.030031	0.002078	14.4535	63.7296	-162.961	-0.003010	1.081662	-0.027331	-0.028623	0.013115	14.4535	-0.028012	-0.020290	-0.646385	NaN
368	1.000000	1.092979	7.36867e+06	-57039.1	955.819	-29737.8	0.000000	0.000000	7.093189	-0.093198	NaN	0.000000	0.001617	0.001784	28.0803	0.081186	0.002036	39.8791	-114.523	13.7697	-0.035093	1.091604	-0.017306	-0.018681	-0.093198	39.8791	-0.015554	-0.009610	9.698441	NaN
368	1.000000	1.102982	7.36867e+06	-57039.1	955.82	-29737.8	0.000000	0.000000	7.103195	-0.047215	NaN	0.000000	0.001644	0.001748	28.0802	0.054482	0.001982	27.4847	-179.914	-164.652	-0.028030	1.101645	-0.007303	-0.008641	-0.047215	27.4847	-0.006014	-0.004045	11.672	NaN
368	1.000000	1.112941	7.36867e+06	-57039.1	955.82	-29737.8	0.000000	0.000000	7.113215	1.453841	NaN	0.000000	0.001637	0.001757	28.0803	2.114095	0.001706	1239.55	4.648282	11.9399	0.468474	1.111637	0.002656	0.001352	1.453841	1239.55	0.001776	0.001374	1057.74	30547
368	2.000000	1.119579	7.36867e+06	-57039.1	955.819	-29737.8	0.000000	0.000000	7.120172	9.185039	NaN	0.000000	0.001618	0.001780	28.0801	9.873391	0.001599	6175.43	6.703890	-173.785	9.262207	1.119251	0.009294	0.008966	9.185039	6175.43	0.008179	0.007227	1270.95	66368.8
368	2.000000	1.122036	7.36867e+06	-57039.1	955.819	-29737.8	0.000000	0.000000	7.122766	12.5186	NaN	0.000000	0.001599	0.001777	28.0804	12.0277	0.001731	6946.55	5.208518	7.997178	11.2206	1.121697	0.011751	0.011412	12.5186	6946.55	0.010400	0.009629	1300.1	64677.3
368	2.000000	1.124542	7.36867e+06	-57039.1	955.819	-29737.8	0.000000	0.000000	7.125369	14.9016	NaN	0.000000	0.001609	0.001740	28.0802	15.0984	0.001617	9335.61	5.882120	-177.563	14.868	1.124210	0.014257	0.013925	14.9016	9335.61	0.013060	0.012784	1165.61	75435.4
368	2.000000	1.126957	7.36867e+06	-57039.1	955.819	-29737.8	0.000000	0.000000	7.128017	20.5565	NaN	0.000000	0.001598	0.001753	28.0805	18.512	0.001761	10513.3	1.038806	7.791544	17.8765	1.126558	0.016672	0.016273	20.5565	10513.3	0.015205	0.015560	1321.09	77002.5
368	2.000000	1.129471	7.36867e+06	-57039.1	955.819	-29737.8	0.000000	0.000000	7.130671	23.9623	NaN	0.000000	0.001603	0.001773	28.08	21.3094	0.001968	10827.1	8.807977	-177.761	24.2526	1.129145	0.019186	0.018860	23.9623	10827.1	0.017526	0.018803	1274.42	72140
368	2.000000	1.132012	7.36867e+06	-57039.1	955.82	-29737.8	0.000000	0.000000	7.133381	28.074	NaN	0.000000	0.001619	0.001757	28.0805	23.9178	0.001882	12711.7	7.763884	1.429553	27.2578	1.131657	0.021727	0.021371	28.074	12711.7	0.020070	0.022653	1239.3	77163.6
368	2.000000	1.134490	7.36867e+06	-57039.1	955.819	-29737.8	0.000000	0.000000	7.136048	32.6531	NaN	0.000000	0.001593	0.001752	28.0815	24.7827	0.001759	14086.7	2.266991	-173.819	32.9436	1.134209	0.024205	0.023924	32.6531	14086.7	0.022467	0.026568	1229.05	78959.8
368	2.000000	1.136991	7.36867e+06	-57039.1	955.82	-29737.8	0.000000	0.000000	7.138854	40.0752	NaN	0.000000	0.001641	0.001749	28.0814	27.4383	0.001817	15104.6	6.645716	1.104367	40.2741	1.136746	0.026706	0.026461	40.0752	15104.6	0.024716	0.030501	1313.91	79018.5
368	2.000000	1.139478	7.36867e+06	-57039.1	955.82	-29737.8	0.000000	0.000000	7.141642	47.388	NaN	0.000000	0.001634	0.001759	28.0814	29.8123	0.001780	16748.5	4.891877	-178.308	47.2596	1.139194	0.029193	0.028909	47.388	16748.5	0.027071	0.034891	1358.16	81920.2
368	2.000000	1.141972	7.36867e+06	-57039.1	955.82	-29737.8	0.000000	0.000000	7.144480	55.7458	NaN	0.000000	0.001620	0.001758	28.0813	31.6649	0.001858	17043.3	4.639871	2.303766	54.0193	1.141643	0.031687	0.031358	55.7458	17043.3	0.029234	0.039171	1423.13	78676
368	2.000000	1.144476	7.36867e+06	-57039.1	955.82	-29737.8	0.000000	0.000000	7.147168	60.2214	NaN	0.000000	0.001593	0.001738	28.0814	34.8385	0.001688	20643.8	4.349588	178.124	59.7305	1.144209	0.034191	0.033924	60.2214	20643.8	0.032004	0.044999	1338.29	88912.5
368	2.000000	1.146926	7.36867e+06	-57039.1	955.819	-29737.8	0.000000	0.000000	7.150071	71.2377	NaN	0.000000	0.001618	0.001742	28.0813	37.2803	0.001791	20815.9	7.619314	-3.877105	69.7451	1.146552	0.036641	0.036267	71.2377	20815.9	0.034074	0.049612	1435.9	85383.5
368	2.000000	1.149447	7.36867e+06	-57039.1	955.82	-29737.8	0.000000	0.000000	7.152804	76.3851	NaN	0.000000	0.001610	0.001733	28.0813	39.72	0.001852	21451	6.697316	177.804	76.0629	1.149107	0.039162	0.038822	76.3851	21451	0.036491	0.055275	1381.92	83359.9
368	2.000000	1.151904	7.36867e+06	-57039.1	955.819	-29737.8	0.000000	0.000000	7.155466	81.3583	NaN	0.000000	0.001573	0.001727	28.0813	41.1772	0.001796	22924.7	5.358263	-3.262819	77.8362	1.151609	0.041619	0.041324	81.3583	22924.7	0.038958	0.061362	1325.87	84552.4
368	2.000000	1.154490	7.36867e+06	-57039.1	955.82	-29737.8	0.000000	0.000000	7.158403	89.8918	NaN	0.000000	0.001603	0.001735	28.0815	42.6579	0.001750	24369	4.720509	178.299	93.2412	1.154122	0.044205	0.043837	89.8918	24369	0.041439	0.067799	1325.85	85506.4
368	2.000000	1.156867	7.36867e+06	-57039.1	955.819	-29737.8	0.000000	0.000000	7.161180	99.6214	NaN	0.000000	0.001583	0.001714	28.0821	45.0747	0.001697	26555.3	4.047332	-2.110781	94.8911	1.156550	0.046582	0.046265	99.6214	26555.3	0.043768	0.074129	1343.89	89110.9
368	2.000000	1.159406	7.36867e+06	-57039.1	955.82	-29737.8	0.000000	0.000000	7.164035	107.301	NaN	0.000000	0.001579	0.001737	28.0813	48.8251	0.001830	26686.4	3.068227	178.065	105.982	1.159139	0.049120	0.048854	107.301	26686.4	0.046105	0.080755	1328.72	85798.3
368	2.000000	1.161968	7.36867e+06	-57039.1	955.819	-29737.8	0.000000	0.000000	7.167168	121.165	NaN	0.000000	0.001563	0.001754	28.0814	50.8398	0.001871	27174	6.697514	-4.141693	121.303	1.161493	0.051683	0.051208	121.165	27174	0.048339	0.087348	1387.15	84004
368	2.000000	1.164390	7.36867e+06	-57039.1	955.82	-29737.8	0.000000	0.000000	7.169710	124.108	NaN	0.000000	0.001605	0.001747	28.0817	52.5941	0.001747	30098.1	5.070310	175.368	123.069	1.164071	0.054105	0.053786	124.108	30098.1	0.051012	0.095568	1298.64	88952
368	2.000000	1.166953	7.36867e+06	-57039.1	955.82	-29737.8	0.000000	0.000000	7.172413	127.496	NaN	0.000000	0.001606	0.001730	28.0802	55.7087	0.001807	30827.6	6.941657	-7.279783	126.851	1.166760	0.056668	0.056475	127.496	30827.6	0.053566	0.103754	1228.83	87439.9
368	2.000000	1.169375	7.36867e+06	-57039.1	955.819	-29737.8	0.000000	0.000000	7.175705	148.662	NaN	0.000000	0.001636	0.001719	28.0799	57.787	0.001822	31714.7	5.565367	174.582	145.97	1.169100	0.059090	0.058815	148.662	31714.7	0.055574	0.110418	1346.36	87199.6
368	2.000000	1.172014	7.36867e+06	-57039.1	955.819	-29737.8	0.000000	0.000000	7.178841	160.718	NaN	0.000000	0.001631	0.001728	28.0801	59.4952	0.001722	34558.9	5.224150	-4.481784	163.929	1.171463	0.061729	0.061178	160.718	34558.9	0.058241	0.119577	1344.05	91308.3
368	2.000000	1.174386	7.36867e+06	-57039.1	955.821	-29737.8	0.000000	0.000000	7.181620	170.615	NaN	0.000000	0.001627	0.001763	28.0803	61.4093	0.001799	34129.2	2.204911	177.696	169.632	1.174103	0.064101	0.063818	170.615	34129.2	0.060352	0.127072	1342.66	87473.1
368	2.000000	1.176855	7.36867e+06	-57039.1	955.821	-29737.8	0.000000	0.000000	7.184789	187.627	NaN	0.000000	0.001668	0.001756	28.0802	63.145	0.001725	36606.4	5.551038	-6.557714	183.969	1.176586	0.066570	0.066301	187.627	36606.4	0.062726	0.135764	1382.01	90769.2
368	2.000000	1.179463	7.36867e+06	-57039.1	955.82	-29737.8	0.000000	0.000000	7.187824	198.003	NaN	0.000000	0.001669	0.001702	28.0802	67.5914	0.001712	39476.3	6.512821	171.583	201.944	1.179154	0.069178	0.068869	198.003	39476.3	0.065416	0.145942	1356.72	94410.4
368	2.000000	1.181881	7.36867e+06	-57039.1	955.819	-29737.8	0.000000	0.000000	7.190672	208.461	NaN	0.000000	0.001659	0.001719	28.0802	69.5603	0.001922	36188.2	6.158472	-6.189724	206.339	1.181548	0.071596	0.071263	208.461	36188.2	0.067275	0.153182	1360.87	84476.7
368	2.000000	1.184364	7.36867e+06	-57039.1	955.819	-29737.8	0.000000	0.000000	7.193797	224.076	NaN	0.000000	0.001663	0.001749	28.0803	70.9088	0.001789	39636.1	2.557042	175.904	221.612	1.184162	0.074079	0.073877	224.076	39636.1	0.069839	0.163432	1371.07	89577
368	2.000000	1.186786	7.36867e+06	-57039.1	955.82	-29737.8	0.000000	0.000000	7.196786	237.844	NaN	0.000000	0.001672	0.001769	28.0803	74.1	0.001860	39836.5	-0.800672	-0.851456	228.827	1.186559	0.076501	0.076274	237.844	39836.5	0.072023	0.172414	1379.49	87653.1
368	2.000000	1.189356	7.36867e+06	-57039.1	955.82	-29737.8	0.000000	0.000000	7.200025	254.103	NaN	0.000000	0.001684	0.001729	28.0802	77.1032	0.001789	43089.1	6.580157	171.483	251.472	1.189021	0.079071	0.078736	254.103	43089.1	0.074649	0.183510	1384.68	91898.9
368	2.000000	1.191919	7.36867e+06	-57039.1	955.819	-29737.8	0.000000	0.000000	7.203330	272.146	NaN	0.000000	0.001665	0.001713	28.0804	78.1683	0.001787	43753	2.672182	-4.387268	269.716	1.191437	0.081634	0.081152	272.146	43753	0.076969	0.193585	1405.82	90854.3
368	2.000000	1.194338	7.36867e+06	-57039.1	955.82	-29737.8	0.000000	0.000000	7.206433	288.775	NaN	0.000000	0.001697	0.001757	28.0802	80.6799	0.001659	48626.4	8.614240	168.66	285.58	1.193934	0.084053	0.083649	288.775	48626.4	0.079599	0.205312	1406.52	98047.8
368	2.000000	1.196835	7.36867e+06	-57039.1	955.819	-29737.8	0.000000	0.000000	7.209660	306.512	NaN	0.000000	0.001647	0.001758	28.0802	82.2621	0.001732	47499.4	3.408593	-5.415381	300.099	1.196519	0.086550	0.086234	306.512	47499.4	0.081710	0.214957	1425.92	93602.1
368	2.000000	1.199404	7.36867e+06	-57039.1	955.819	-29737.8	0.000000	0.000000	7.212712	318.256	NaN	0.000000	0.001657	0.001785	28.08	87.2545	0.001920	45437.4	6.201361	171.107	318.305	1.199211	0.089119	0.088926	318.256	45437.4	0.083865	0.225019	1414.35	87513.9
368	2.000000	1.201881	7.36867e+06	-57039.1	955.821	-29737.8	0.000000	0.000000	7.215933	336.324	NaN	0.000000	0.001619	0.001710	28.0815	88.388	0.001877	47086.1	3.871179	-6.437184	334.947	1.201707	0.091596	0.091422	336.324	47086.1	0.086239	0.236346	1423.01	88489.5
368	2.000000	1.204347	7.36867e+06	-57039.1	955.819	-29737.8	0.000000	0.000000	7.219378	360.112	NaN	0.000000	0.001631	0.001730	28.0813	90.2219	0.001817	49652.4	6.605184	170.284	358.757	1.204016	0.094062	0.093731	360.112	49652.4	0.088623	0.247985	1452.15	91096.2
368	2.000000	1.206860	7.36867e+06	-57039.1	955.819	-29737.8	0.000000	0.000000	7.222525	375.528	NaN	0.000000	0.001638	0.001742	28.0814	91.3557	0.001728	52878.1	2.268234	-5.562871	371.131	1.206529	0.096575	0.096243	375.528	52878.1	0.091249	0.261109	1438.2	94545
368	2.000000	1.209413	7.36867e+06	-57039.1	955.82	-29737.8	0.000000	0.000000	7.225732	391.421	NaN	0.000000	0.001667	0.001715	28.0813	96.5315	0.001883	51262.1	5.654532	170.89	390.68	1.209097	0.099128	0.098812	391.421	51262.1	0.093402	0.272104	1438.5	89784.6
368	2.000000	1.211815	7.36867e+06	-57039.1	955.82	-29737.8	0.000000	0.000000	7.229370	421.469	NaN	0.000000	0.001684	0.001733	28.0813	96.6539	0.001749	55270	4.357555	-7.946045	414.922	1.211488	0.101530	0.101203	421.469	55270	0.095811	0.284660	1480.61	94645.5
368	2.000000	1.214361	7.36867e+06	-57039.1	955.819	-29737.8	0.000000	0.000000	7.232789	442.697	NaN	0.000000	0.001680	0.001738	28.0812	98.389	0.001801	54629.1	3.296242	173.153	444.308	1.214060	0.104076	0.103775	442.697	54629.1	0.097998	0.296285	1494.16	91694.3
368	2.000000	1.216851	7.36867e+06	-57039.1	955.82	-29737.8	0.000000	0.000000	7.236315	467.853	NaN	0.000000	0.001713	0.001708	28.0812	101.497	0.001781	56999.6	5.110663	-8.555222	462.99	1.216254	0.106566	0.105969	467.853	56999.6	0.100410	0.309362	1512.31	93629.2