File: remote_trans/data/nanoindenter/0828-1/data/Data_2025-08-06,11h17m57s/2025-07-22_16-23-58_1_1101.txt
2025-07-22, 16:23:58, 1
Index	Phase	Displacement	Time	Pos X	Pos Y	Pos Z	Rot A	Rot B	Piezo Z	Force A	Force B	Gripper	Voltage A	Voltage B	Temperature	Amplitude force	Amplitude pos	Stiffness	Phase shift	Phase excitation	Force A raw	Displacement raw	HMax	HMax raw	Real Force	Real Stiffness	Contact Depth	Area	Hardness	Reduced Mod.
[#]	[#]	[um]	[s]	[um]	[um]	[um]	[m°]	[m°]	[um]	[uN]	[uN]	[V]	[V]	[V]	[°C]	[uN]	[um]	[N/m]	[°]	[°]	[uN]	[um]	[um]	[um]	[uN]	[N/m]	[um]	[um^2]	[MPa]	[MPa]
1101	1.000000	0.002410	7.37582e+06	-55189.1	1055.82	-29742	0.000000	0.000000	6.002811	-0.060303	NaN	0.000000	0.001723	0.001759	28.0841	0.061498	0.000855	71.8971	31.4223	-155.797	-0.126991	0.001133	-1.142919	-1.144196	-0.060303	71.8971	-1.142289	-1.851137E+15	3.257605E-17	NaN
1101	1.000000	0.012476	7.37582e+06	-55189.1	1055.82	-29742	0.000000	0.000000	6.012877	-0.055012	NaN	0.000000	0.001797	0.001727	28.0837	0.135176	0.001319	102.507	152.711	15.5108	-0.040545	0.011060	-1.132853	-1.134269	-0.055012	102.507	-1.132450	-1.366122E+15	4.026870E-17	NaN
1101	1.000000	0.022332	7.37582e+06	-55189.1	1055.82	-29742	0.000000	0.000000	6.022737	0.015531	NaN	0.000000	0.001694	0.001779	28.0837	0.061174	0.001756	34.8422	50.3313	-166.314	0.046432	0.021024	-1.122996	-1.124305	0.015531	34.8422	-1.123331	-1.030763E+15	-1.506770E-17	NaN
1101	1.000000	0.032376	7.37582e+06	-55189.1	1055.82	-29742	0.000000	0.000000	6.032781	0.044769	NaN	0.000000	0.001722	0.001753	28.0837	0.068326	0.001835	37.2433	-105.531	15.7465	0.092266	0.030967	-1.112953	-1.114361	0.044769	37.2433	-1.113854	-7.691512E+14	-5.820617E-17	NaN
1101	1.000000	0.042350	7.37582e+06	-55189.1	1055.82	-29742	0.000000	0.000000	6.042753	-0.028957	NaN	0.000000	0.001716	0.001690	28.084	0.077414	0.001969	39.3175	41.799	-165.438	0.007257	0.040980	-1.102979	-1.104348	-0.028957	39.3175	-1.102426	-5.403018E+14	5.359417E-17	NaN
1101	1.000000	0.052333	7.37582e+06	-55189.1	1055.82	-29742	0.000000	0.000000	6.052733	-0.081292	NaN	0.000000	0.001739	0.001709	28.0837	0.083780	0.002015	41.5835	-65.0906	15.4505	-0.058836	0.050972	-1.092996	-1.094357	-0.081292	41.5835	-1.091530	-3.857916E+14	2.107143E-16	NaN
1101	1.000000	0.062368	7.37582e+06	-55189.1	1055.82	-29742	0.000000	0.000000	6.062771	-0.034042	NaN	0.000000	0.001704	0.001672	28.0841	0.032437	0.002040	15.8999	110.931	-165.529	-0.088555	0.061064	-1.082961	-1.084265	-0.034042	15.8999	-1.081355	-2.816534E+14	1.208640E-16	NaN
1101	1.000000	0.072353	7.37582e+06	-55189.1	1055.82	-29742	0.000000	0.000000	6.072756	-0.032796	NaN	0.000000	0.001694	0.001701	28.084	0.066745	0.002165	30.835	135.548	16.4255	-0.031348	0.070972	-1.072975	-1.074356	-0.032796	30.835	-1.072178	-2.120536E+14	1.546592E-16	NaN
1101	1.000000	0.082366	7.37582e+06	-55189.1	1055.82	-29742	0.000000	0.000000	6.082771	0.024314	NaN	0.000000	0.001723	0.001636	28.0836	0.073867	0.002075	35.6054	-95.4746	-165.608	0.081906	0.081083	-1.062962	-1.064245	0.024314	35.6054	-1.063475	-1.619992E+14	-1.500856E-16	NaN
1101	1.000000	0.092355	7.37582e+06	-55189.1	1055.82	-29742	0.000000	0.000000	6.092761	0.049614	NaN	0.000000	0.001731	0.001720	28.0827	0.098882	0.002019	48.9681	-17.3585	13.3207	0.099510	0.091029	-1.052973	-1.054299	0.049614	48.9681	-1.053733	-1.198383E+14	-4.140093E-16	NaN
1101	1.000000	0.102369	7.37582e+06	-55189.1	1055.82	-29742	0.000000	0.000000	6.102772	-0.031196	NaN	0.000000	0.001688	0.001701	28.0827	0.080750	0.001918	42.1069	147.558	-163.054	-0.030961	0.101048	-1.042959	-1.044280	-0.031196	42.1069	-1.042403	-8.438872E+13	3.696747E-16	NaN
1101	1.000000	0.112373	7.37582e+06	-55189.1	1055.82	-29742	0.000000	0.000000	6.112777	0.006047	NaN	0.000000	0.001657	0.001653	28.0828	0.058274	0.001956	29.7981	54.8566	15.099	0.015382	0.110987	-1.032956	-1.034342	0.006047	29.7981	-1.033108	-6.328207E+13	-9.555613E-17	NaN
1101	1.000000	0.122399	7.37582e+06	-55189.1	1055.82	-29742	0.000000	0.000000	6.122802	-0.021955	NaN	0.000000	0.001640	0.001648	28.0827	0.110303	0.001951	56.5438	-113.73	-166.243	-0.027927	0.121094	-1.022930	-1.024235	-0.021955	56.5438	-1.022639	-4.575648E+13	4.798295E-16	NaN
1101	1.000000	0.132367	7.37582e+06	-55189.1	1055.82	-29742	0.000000	0.000000	6.132770	-0.027787	NaN	0.000000	0.001664	0.001719	28.0827	0.091519	0.002075	44.1156	-163.671	8.171360	-0.092450	0.131016	-1.012961	-1.014312	-0.027787	44.1156	-1.012489	-3.341038E+13	8.316939E-16	NaN
1101	1.000000	0.142375	7.37582e+06	-55189.1	1055.82	-29742	0.000000	0.000000	6.142778	-0.031372	NaN	0.000000	0.001754	0.001671	28.0828	0.033182	0.001989	16.6803	37.9328	-167.102	-0.083136	0.141075	-1.002954	-1.004253	-0.031372	16.6803	-1.001543	-2.379808E+13	1.318241E-15	NaN
1101	1.000000	0.152355	7.37582e+06	-55189.1	1055.82	-29742	0.000000	0.000000	6.152760	0.031518	NaN	0.000000	0.001690	0.001668	28.0829	0.059175	0.002038	29.0332	1.661639	11.769	0.004583	0.151027	-0.992974	-0.994302	0.031518	29.0332	-0.993788	-1.871204E+13	-1.684347E-15	NaN
1101	1.000000	0.162396	7.37582e+06	-55189.1	1055.82	-29742	0.000000	0.000000	6.162799	-0.021048	NaN	0.000000	0.001711	0.001664	28.0828	0.125426	0.001899	66.0653	-109.192	-166.026	0.018645	0.161086	-0.982932	-0.984242	-0.021048	66.0653	-0.982693	-1.326458E+13	1.586772E-15	NaN
1101	1.000000	0.172409	7.37582e+06	-55189.1	1055.82	-29742	0.000000	0.000000	6.172814	0.036632	NaN	0.000000	0.001644	0.001624	28.0824	0.095641	0.002030	47.1131	24.2128	15.0904	0.037332	0.171035	-0.972920	-0.974293	0.036632	47.1131	-0.973503	-9.974001E+12	-3.672783E-15	NaN
1101	1.000000	0.182395	7.37582e+06	-55189.1	1055.82	-29742	0.000000	0.000000	6.182799	0.011966	NaN	0.000000	0.001651	0.001629	28.0827	0.086262	0.002089	41.3024	40.8678	-165.363	-0.023805	0.181094	-0.962934	-0.964235	0.011966	41.3024	-0.963151	-7.233469E+12	-1.654298E-15	NaN
1101	1.000000	0.192370	7.37582e+06	-55189.1	1055.82	-29742	0.000000	0.000000	6.192773	-0.030184	NaN	0.000000	0.001622	0.001691	28.0826	0.042874	0.001943	22.0655	61.8695	15.6804	0.000832	0.191016	-0.952958	-0.954313	-0.030184	22.0655	-0.951932	-5.106093E+12	5.911395E-15	NaN
1101	1.000000	0.202420	7.37582e+06	-55189.1	1055.82	-29742	0.000000	0.000000	6.202820	-0.085415	NaN	0.000000	0.001637	0.001703	28.0826	0.071797	0.001949	36.8469	-173.221	-166.829	-0.032070	0.201121	-0.942909	-0.944208	-0.085415	36.8469	-0.941170	-3.655290E+12	2.336755E-14	NaN
1101	1.000000	0.212424	7.37582e+06	-55189.1	1055.82	-29742	0.000000	0.000000	6.212824	-0.098218	NaN	0.000000	0.001644	0.001697	28.0826	0.030009	0.002070	14.4994	4.491056	12.1512	-0.090552	0.211076	-0.932905	-0.934252	-0.098218	14.4994	-0.927824	-2.414534E+12	4.067768E-14	NaN
1101	1.000000	0.222392	7.37582e+06	-55189.1	1055.82	-29742	0.000000	0.000000	6.222795	-0.029250	NaN	0.000000	0.001645	0.001722	28.084	0.067451	0.002030	33.226	39.7422	-168.017	-0.052055	0.221148	-0.922937	-0.924181	-0.029250	33.226	-0.922276	-2.032070E+12	1.439403E-14	NaN
1101	1.000000	0.232397	7.37582e+06	-55189.1	1055.82	-29742	0.000000	0.000000	6.232803	0.045928	NaN	0.000000	0.001649	0.001715	28.0837	0.024685	0.002026	12.1871	164.966	10.1077	0.086260	0.231041	-0.912931	-0.914287	0.045928	12.1871	-0.915758	-1.659295E+12	-2.767907E-14	NaN
1101	1.000000	0.242451	7.37582e+06	-55189.1	1055.82	-29742	0.000000	0.000000	6.242853	-0.058459	NaN	0.000000	0.001654	0.001760	28.0837	0.027095	0.001981	13.6757	-138.055	-166.765	-0.093497	0.241158	-0.902877	-0.904171	-0.058459	13.6757	-0.899671	-1.006067E+12	5.810693E-14	NaN
1101	1.000000	0.252405	7.37582e+06	-55189.1	1055.82	-29742	0.000000	0.000000	6.252809	0.010803	NaN	0.000000	0.001664	0.001703	28.0838	0.061696	0.001967	31.3732	26.4483	15.6935	-0.059690	0.251060	-0.892924	-0.894269	0.010803	31.3732	-0.893182	-8.221063E+11	-1.314068E-14	NaN
1101	1.000000	0.262408	7.37582e+06	-55189.1	1055.82	-29742	0.000000	0.000000	6.262813	0.034569	NaN	0.000000	0.001653	0.001715	28.0838	0.096278	0.001962	49.0607	151.202	-166.759	0.013947	0.261121	-0.882921	-0.884207	0.034569	49.0607	-0.883449	-6.072228E+11	-5.692956E-14	NaN
1101	1.000000	0.272433	7.37582e+06	-55189.1	1055.82	-29742	0.000000	0.000000	6.272835	-0.058064	NaN	0.000000	0.001650	0.001750	28.0836	0.059765	0.001954	30.5885	-53.0995	13.9011	-0.016323	0.271092	-0.872896	-0.874237	-0.058064	30.5885	-0.871472	-4.181736E+11	1.388521E-13	NaN
1101	1.000000	0.282414	7.37582e+06	-55189.1	1055.82	-29742	0.000000	0.000000	6.282819	0.033215	NaN	0.000000	0.001662	0.001709	28.0835	0.047278	0.002064	22.9026	-116.8	-164.164	0.049406	0.281137	-0.862915	-0.864192	0.033215	22.9026	-0.864002	-3.313517E+11	-1.002400E-13	NaN
1101	1.000000	0.292468	7.37582e+06	-55189.1	1055.82	-29742	0.000000	0.000000	6.292870	-0.029541	NaN	0.000000	0.001665	0.001728	28.0837	0.089082	0.001991	44.7478	-61.2639	15.572	-0.049483	0.291100	-0.852861	-0.854229	-0.029541	44.7478	-0.852366	-2.305544E+11	1.281287E-13	NaN
1101	1.000000	0.302471	7.37582e+06	-55189.1	1055.82	-29742	0.000000	0.000000	6.302874	-0.014200	NaN	0.000000	0.001644	0.001701	28.0838	0.033643	0.002026	16.6099	60.8429	-163.325	0.042272	0.301139	-0.842858	-0.844189	-0.014200	16.6099	-0.842217	-1.680056E+11	8.452383E-14	NaN
1101	1.000000	0.312418	7.37582e+06	-55189.1	1055.82	-29742	0.000000	0.000000	6.312823	0.016057	NaN	0.000000	0.001672	0.001722	28.0836	0.099904	0.002043	48.9091	28.5584	16.2269	0.066388	0.311081	-0.832910	-0.834248	0.016057	48.9091	-0.833156	-1.266374E+11	-1.267965E-13	NaN
1101	1.000000	0.322454	7.37582e+06	-55189.1	1055.82	-29742	0.000000	0.000000	6.322858	0.014740	NaN	0.000000	0.001634	0.001703	28.0835	0.114872	0.002042	56.2627	85.7735	-165.554	-0.038149	0.321130	-0.822875	-0.824198	0.014740	56.2627	-0.823071	-9.243919E+10	-1.594596E-13	NaN
1101	1.000000	0.332481	7.37582e+06	-55189.1	1055.82	-29742	0.000000	0.000000	6.332884	-0.024560	NaN	0.000000	0.001631	0.001711	28.0835	0.038149	0.002011	18.9733	161.874	13.6336	-0.025101	0.331109	-0.812847	-0.814220	-0.024560	18.9733	-0.811876	-6.516709E+10	3.768815E-13	NaN
1101	1.000000	0.342461	7.37582e+06	-55189.1	1055.82	-29742	0.000000	0.000000	6.342867	0.053940	NaN	0.000000	0.001652	0.001714	28.0835	0.038443	0.001936	19.8529	-170.972	-165.111	0.019157	0.341139	-0.802868	-0.804189	0.053940	19.8529	-0.804905	-5.241350E+10	-1.029127E-12	NaN
1101	1.000000	0.352464	7.37582e+06	-55189.1	1055.82	-29742	0.000000	0.000000	6.352867	-0.013645	NaN	0.000000	0.001668	0.001739	28.0835	0.019464	0.002264	8.597885	-89.2296	12.892	-0.064743	0.351046	-0.792865	-0.794282	-0.013645	8.597885	-0.791675	-3.465972E+10	3.936826E-13	NaN
1101	1.000000	0.362503	7.37582e+06	-55189.1	1055.82	-29742	0.000000	0.000000	6.362905	-0.033995	NaN	0.000000	0.001711	0.001700	28.0826	0.053388	0.001938	27.5492	38.8324	-165.377	-0.010424	0.361135	-0.782826	-0.784193	-0.033995	27.5492	-0.781900	-2.553019E+10	1.331574E-12	NaN
1101	1.000000	0.372503	7.37582e+06	-55189.1	1055.82	-29742	0.000000	0.000000	6.372906	-0.019415	NaN	0.000000	0.001674	0.001683	28.0828	0.094133	0.001901	49.527	107.93	14.2831	0.025903	0.371134	-0.772825	-0.774195	-0.019415	49.527	-0.772531	-1.904235E+10	1.019573E-12	NaN
1101	1.000000	0.382483	7.37582e+06	-55189.1	1055.82	-29742	0.000000	0.000000	6.382884	-0.066941	NaN	0.000000	0.001683	0.001705	28.0827	0.050161	0.002003	25.0374	153.425	-167.852	-0.020472	0.381172	-0.762846	-0.764157	-0.066941	25.0374	-0.760841	-1.320495E+10	5.069385E-12	NaN
1101	1.000000	0.392476	7.37582e+06	-55189.1	1055.82	-29742	0.000000	0.000000	6.392881	0.023116	NaN	0.000000	0.001690	0.001753	28.0826	0.055698	0.001932	28.8274	-70.922	12.394	0.039077	0.391178	-0.752852	-0.754150	0.023116	28.8274	-0.753454	-1.047680E+10	-2.206422E-12	NaN
1101	1.000000	0.402484	7.37582e+06	-55189.1	1055.82	-29742	0.000000	0.000000	6.402889	0.039313	NaN	0.000000	0.001686	0.001709	28.0827	0.005872	0.001960	2.996225	5.380938	-166.076	0.031918	0.401102	-0.742845	-0.744227	0.039313	2.996225	-0.752685	-1.022757E+10	-3.843833E-12	NaN
1101	1.000000	0.412474	7.37582e+06	-55189.1	1055.82	-29742	0.000000	0.000000	6.412877	-0.027016	NaN	0.000000	0.001706	0.001680	28.0827	0.023675	0.002049	11.5558	150.568	12.1508	0.029463	0.411129	-0.732854	-0.734199	-0.027016	11.5558	-0.731101	-5.197730E+9	5.197716E-12	NaN
1101	1.000000	0.422501	7.37582e+06	-55189.1	1055.82	-29742	0.000000	0.000000	6.422903	-0.030927	NaN	0.000000	0.001663	0.001687	28.0827	0.055885	0.001981	28.2104	-34.5528	-163.58	0.077301	0.421235	-0.722828	-0.724093	-0.030927	28.2104	-0.722006	-3.906828E+9	7.916187E-12	NaN
1101	1.000000	0.432550	7.37582e+06	-55189.1	1055.82	-29742	0.000000	0.000000	6.432956	0.054035	NaN	0.000000	0.001671	0.001712	28.0827	0.071207	0.001963	36.2674	-174.236	11.428	-0.007817	0.431210	-0.712779	-0.714119	0.054035	36.2674	-0.713896	-3.028419E+9	-1.784274E-11	NaN
1101	1.000000	0.442534	7.37582e+06	-55189.1	1055.82	-29742	0.000000	0.000000	6.442935	-0.079833	NaN	0.000000	0.001684	0.001680	28.0828	0.070028	0.001961	35.7171	16.612	-166.712	-0.069921	0.441191	-0.702794	-0.704138	-0.079833	35.7171	-0.701118	-2.026740E+9	3.939005E-11	NaN
1101	1.000000	0.452506	7.37582e+06	-55189.1	1055.82	-29742	0.000000	0.000000	6.452909	-0.041321	NaN	0.000000	0.001640	0.001708	28.0827	0.045143	0.002030	22.2383	-163.583	13.7069	0.016315	0.451123	-0.692822	-0.694206	-0.041321	22.2383	-0.691429	-1.494314E+9	2.765185E-11	NaN
1101	1.000000	0.462484	7.37582e+06	-55189.1	1055.82	-29742	0.000000	0.000000	6.462885	-0.082584	NaN	0.000000	0.001684	0.001686	28.0828	0.051114	0.001879	27.2023	86.1303	-165.512	-0.098430	0.461165	-0.682844	-0.684164	-0.082584	27.2023	-0.680567	-1.061602E+9	7.779223E-11	NaN
1101	1.000000	0.472515	7.37582e+06	-55189.1	1055.82	-29742	0.000000	0.000000	6.472916	-0.068029	NaN	0.000000	0.001673	0.001730	28.0827	0.096094	0.002069	46.4362	-46.1286	13.2879	-0.144331	0.471152	-0.672814	-0.674177	-0.068029	46.4362	-0.671715	-8.032705E+8	8.469041E-11	NaN
1101	1.000000	0.482498	7.37582e+06	-55189.1	1055.82	-29742	0.000000	0.000000	6.482902	-0.016948	NaN	0.000000	0.001686	0.001695	28.083	0.091775	0.001930	47.5641	11.6083	-168.805	-0.006440	0.481221	-0.662830	-0.664107	-0.016948	47.5641	-0.662563	-6.019631E+8	2.815416E-11	NaN
1101	1.000000	0.492556	7.37582e+06	-55189.1	1055.82	-29742	0.000000	0.000000	6.492958	-0.044136	NaN	0.000000	0.001681	0.001701	28.0834	0.049328	0.001991	24.7762	108.919	14.1316	-0.028429	0.491129	-0.652773	-0.654200	-0.044136	24.7762	-0.651437	-4.237738E+8	1.041493E-10	NaN
1101	1.000000	0.502559	7.37582e+06	-55189.1	1055.82	-29742	0.000000	0.000000	6.502967	0.100045	NaN	0.000000	0.001678	0.001712	28.0839	0.040966	0.002044	20.0431	-172.713	-165.166	0.111113	0.501226	-0.642770	-0.644102	0.100045	20.0431	-0.646513	-3.627692E+8	-2.757821E-10	NaN
1101	1.000000	0.512545	7.37582e+06	-55189.1	1055.82	-29742	0.000000	0.000000	6.512947	-0.051185	NaN	0.000000	0.001680	0.001698	28.0838	0.023777	0.001926	12.3419	7.680812	14.7026	-0.136836	0.511195	-0.632784	-0.634133	-0.051185	12.3419	-0.629673	-2.130759E+8	2.402212E-10	NaN
1101	1.000000	0.522557	7.37583e+06	-55189.1	1055.82	-29742	0.000000	0.000000	6.522961	0.001074	NaN	0.000000	0.001680	0.001672	28.0839	0.074475	0.001905	39.0846	116.969	-164.619	-0.005681	0.521244	-0.622771	-0.624085	0.001074	39.0846	-0.622792	-1.713969E+8	-6.264573E-12	NaN
1101	1.000000	0.532532	7.37583e+06	-55189.1	1055.82	-29742	0.000000	0.000000	6.532936	-0.008095	NaN	0.000000	0.001708	0.001682	28.0836	0.053199	0.002009	26.4811	61.5377	14.5303	-0.028918	0.531228	-0.612796	-0.614101	-0.008095	26.4811	-0.612567	-1.240011E+8	6.528075E-11	NaN
1101	1.000000	0.542537	7.37583e+06	-55189.1	1055.82	-29742	0.000000	0.000000	6.542940	-0.018490	NaN	0.000000	0.001698	0.001698	28.0837	0.104534	0.001991	52.5065	-167.578	-168.285	-0.113316	0.541238	-0.602792	-0.604090	-0.018490	52.5065	-0.602527	-9.021192E+7	2.049672E-10	NaN
1101	1.000000	0.552550	7.37583e+06	-55189.1	1055.82	-29742	0.000000	0.000000	6.552954	-0.010176	NaN	0.000000	0.001668	0.001717	28.0839	0.068184	0.001937	35.1963	41.553	15.2651	0.063741	0.551241	-0.592778	-0.594088	-0.010176	35.1963	-0.592562	-6.576249E+7	1.547389E-10	NaN
1101	1.000000	0.562556	7.37583e+06	-55189.1	1055.82	-29742	0.000000	0.000000	6.562958	-0.033378	NaN	0.000000	0.001685	0.001669	28.0837	0.048445	0.002008	24.1318	54.6884	-165.76	-0.009077	0.561307	-0.582773	-0.584022	-0.033378	24.1318	-0.581735	-4.663096E+7	7.157815E-10	NaN
1101	1.000000	0.572536	7.37583e+06	-55189.1	1055.82	-29742	0.000000	0.000000	6.572942	0.051806	NaN	0.000000	0.001696	0.001660	28.0839	0.054161	0.002018	26.8349	-39.1783	12.4982	-0.036056	0.571258	-0.572793	-0.574071	0.051806	26.8349	-0.574241	-3.674632E+7	-1.409828E-9	NaN
1101	1.000000	0.582588	7.37583e+06	-55189.1	1055.82	-29742	0.000000	0.000000	6.582991	-0.033874	NaN	0.000000	0.001674	0.001655	28.0836	0.089846	0.002041	44.0134	-59.3651	-166.898	-0.095824	0.581278	-0.562740	-0.564051	-0.033874	44.0134	-0.562163	-2.502062E+7	1.353832E-9	NaN
1101	1.000000	0.592581	7.37583e+06	-55189.1	1055.82	-29742	0.000000	0.000000	6.592987	0.062635	NaN	0.000000	0.001666	0.001619	28.0839	0.054861	0.002021	27.1516	6.211424	13.3666	-0.023782	0.591226	-0.552748	-0.554102	0.062635	27.1516	-0.554478	-1.958687E+7	-3.197798E-9	NaN
1101	1.000000	0.602571	7.37583e+06	-55189.1	1055.82	-29742	0.000000	0.000000	6.602975	0.013169	NaN	0.000000	0.001690	0.001715	28.0835	0.073432	0.002024	36.2842	75.8941	-165.8	-0.005440	0.601255	-0.542758	-0.544074	0.013169	36.2842	-0.543030	-1.359480E+7	-9.687053E-10	NaN
1101	1.000000	0.612574	7.37583e+06	-55189.1	1055.82	-29742	0.000000	0.000000	6.612975	-0.072827	NaN	0.000000	0.001684	0.001673	28.0838	0.123066	0.002019	60.9394	77.6214	15.0337	-0.072200	0.611210	-0.532755	-0.534118	-0.072827	60.9394	-0.531858	-9.51442e+06	7.654362E-9	NaN
1101	1.000000	0.622583	7.37583e+06	-55189.1	1055.82	-29742	0.000000	0.000000	6.622985	-0.037006	NaN	0.000000	0.001679	0.001647	28.0838	0.097919	0.001900	51.5298	-66.0123	-167.716	-0.050923	0.621341	-0.522746	-0.523988	-0.037006	51.5298	-0.522207	-6.98702e+06	5.296341E-9	NaN
1101	1.000000	0.632574	7.37583e+06	-55189.1	1055.82	-29742	0.000000	0.000000	6.632978	-0.009361	NaN	0.000000	0.001670	0.001717	28.0826	0.104685	0.002154	48.609	109.214	12.9455	0.051784	0.631255	-0.512754	-0.514074	-0.009361	48.609	-0.512610	-5.13757e+06	1.821996E-9	NaN
1101	1.000000	0.642576	7.37583e+06	-55189.1	1055.82	-29742	0.000000	0.000000	6.642982	0.032248	NaN	0.000000	0.001719	0.001680	28.0825	0.102187	0.001944	52.5635	-77.2142	-165.676	0.011750	0.641276	-0.502752	-0.504052	0.032248	52.5635	-0.503212	-3.80034e+06	-8.485688E-9	NaN
1101	1.000000	0.652602	7.37583e+06	-55189.1	1055.82	-29742	0.000000	0.000000	6.653006	0.007398	NaN	0.000000	0.001716	0.001727	28.0826	0.082855	0.001981	41.8307	121.142	12.3742	0.003488	0.651283	-0.492727	-0.494045	0.007398	41.8307	-0.492859	-2.72483e+06	-2.714922E-9	NaN
1101	1.000000	0.662635	7.37583e+06	-55189.1	1055.82	-29742	0.000000	0.000000	6.663040	0.030038	NaN	0.000000	0.001648	0.001704	28.0827	0.111778	0.002031	55.0223	-53.8302	-168.09	-0.028854	0.661345	-0.482694	-0.483983	0.030038	55.0223	-0.483103	-1.99049e+06	-1.509074E-8	NaN
1101	1.000000	0.672621	7.37583e+06	-55189.1	1055.82	-29742	0.000000	0.000000	6.673022	-0.069346	NaN	0.000000	0.001712	0.001720	28.0824	0.044266	0.001901	23.2891	149.595	13.203	-0.006508	0.671283	-0.472708	-0.474045	-0.069346	23.2891	-0.470475	-1.32453e+06	5.235505E-8	NaN
1101	1.000000	0.682600	7.37583e+06	-55189.1	1055.82	-29742	0.000000	0.000000	6.683003	-0.019680	NaN	0.000000	0.001696	0.001724	28.0823	0.081848	0.002061	39.7129	-151.974	-165.093	0.008366	0.681315	-0.462728	-0.464014	-0.019680	39.7129	-0.462357	-1.01889e+06	1.931485E-8	NaN
1101	1.000000	0.692612	7.37583e+06	-55189.1	1055.82	-29742	0.000000	0.000000	6.693016	0.002870	NaN	0.000000	0.001670	0.001697	28.0824	0.026349	0.001992	13.2298	23.0844	14.2615	0.048886	0.691213	-0.452717	-0.454116	0.002870	13.2298	-0.452879	-749686	-3.828525E-9	NaN
1101	1.000000	0.702605	7.37583e+06	-55189.1	1055.82	-29742	0.000000	0.000000	6.703008	-0.039781	NaN	0.000000	0.001643	0.001699	28.0824	0.045095	0.002028	22.2385	-171.941	-165.982	-0.062533	0.701293	-0.442723	-0.444036	-0.039781	22.2385	-0.441382	-516250	7.705826E-8	NaN
1101	1.000000	0.712648	7.37583e+06	-55189.1	1055.82	-29742	0.000000	0.000000	6.713051	-0.023736	NaN	0.000000	0.001657	0.001706	28.0825	0.125599	0.001993	63.0283	6.496529	15.9025	-0.054647	0.711264	-0.432681	-0.434065	-0.023736	63.0283	-0.432398	-385461	6.157819E-8	NaN
1101	1.000000	0.722640	7.37583e+06	-55189.1	1055.82	-29742	0.000000	0.000000	6.723042	-0.051742	NaN	0.000000	0.001678	0.001654	28.0826	0.061245	0.002032	30.1328	-88.4574	-166.574	-0.018815	0.721304	-0.422688	-0.424025	-0.051742	30.1328	-0.421400	-269322	1.921203E-7	NaN
1101	1.000000	0.732635	7.37583e+06	-55189.1	1055.82	-29742	0.000000	0.000000	6.733037	-0.056668	NaN	0.000000	0.001679	0.001720	28.0827	0.055777	0.001912	29.1726	-169.798	12.6829	0.048171	0.731253	-0.412693	-0.414075	-0.056668	29.1726	-0.411237	-193189	2.933278E-7	NaN
1101	1.000000	0.742670	7.37583e+06	-55189.1	1055.82	-29742	0.000000	0.000000	6.743072	-0.034849	NaN	0.000000	0.001652	0.001715	28.0825	0.028570	0.001955	14.6134	-44.7777	-168.051	-0.019942	0.741373	-0.402659	-0.403955	-0.034849	14.6134	-0.400870	-137531	2.533914E-7	NaN
1101	1.000000	0.752647	7.37583e+06	-55189.1	1055.82	-29742	0.000000	0.000000	6.753053	0.061967	NaN	0.000000	0.001700	0.001684	28.0827	0.056008	0.002050	27.3163	-13.893	13.6186	-0.035849	0.751223	-0.392682	-0.394105	0.061967	27.3163	-0.394383	-111129	-5.576124E-7	NaN
1101	1.000000	0.762637	7.37583e+06	-55189.1	1055.82	-29742	0.000000	0.000000	6.763040	-0.014878	NaN	0.000000	0.001663	0.001647	28.0825	0.073990	0.001940	38.1469	-58.4019	-165.098	-0.055193	0.761349	-0.382692	-0.383980	-0.014878	38.1469	-0.382399	-74870.1	1.987224E-7	NaN
1101	1.000000	0.772657	7.37583e+06	-55189.1	1055.82	-29742	0.000000	0.000000	6.773060	-0.031577	NaN	0.000000	0.001670	0.001632	28.084	0.059061	0.002098	28.1499	-172.336	15.9654	-0.014609	0.771322	-0.372671	-0.374006	-0.031577	28.1499	-0.371830	-52780.3	5.982792E-7	NaN
1101	1.000000	0.782655	7.37583e+06	-55189.1	1055.82	-29742	0.000000	0.000000	6.783058	-0.023395	NaN	0.000000	0.001686	0.001669	28.0836	0.051203	0.002100	24.3852	118.032	-162.717	-0.046746	0.781321	-0.362674	-0.364007	-0.023395	24.3852	-0.361954	-38026.2	6.152440E-7	NaN
1101	1.000000	0.792654	7.37583e+06	-55189.1	1055.82	-29742	0.000000	0.000000	6.793055	-0.063988	NaN	0.000000	0.001687	0.001640	28.0837	0.051934	0.002079	24.9838	86.9018	10.7594	0.001357	0.791309	-0.352675	-0.354020	-0.063988	24.9838	-0.350754	-26178.2	2.444312E-6	NaN
1101	1.000000	0.802630	7.37583e+06	-55189.1	1055.82	-29742	0.000000	0.000000	6.803035	0.020789	NaN	0.000000	0.001675	0.001652	28.0838	0.047549	0.001949	24.3995	129.86	-165.871	-0.054708	0.801357	-0.342698	-0.343972	0.020789	24.3995	-0.343337	-20425.2	-1.017834E-6	NaN
1101	1.000000	0.812651	7.37583e+06	-55189.1	1055.82	-29742	0.000000	0.000000	6.813054	-0.023697	NaN	0.000000	0.001679	0.001685	28.0834	0.042984	0.001770	24.2915	89.7718	13.8704	-0.071435	0.811302	-0.332678	-0.334026	-0.023697	24.2915	-0.331946	-13929.5	1.701211E-6	NaN
1101	1.000000	0.822683	7.37583e+06	-55189.1	1055.82	-29742	0.000000	0.000000	6.823086	-0.024567	NaN	0.000000	0.001682	0.001672	28.0832	0.066812	0.001945	34.3548	3.785312	-170.478	-0.123908	0.821386	-0.322645	-0.323943	-0.024567	34.3548	-0.322109	-9992.17	2.458604E-6	NaN
1101	1.000000	0.832669	7.37583e+06	-55189.1	1055.82	-29742	0.000000	0.000000	6.833070	-0.061986	NaN	0.000000	0.001678	0.001664	28.0832	0.054003	0.002077	26.0059	175.737	12.4522	-0.044737	0.831309	-0.312660	-0.314020	-0.061986	26.0059	-0.310872	-6822.74	9.085267E-6	NaN
1101	1.000000	0.842672	7.37583e+06	-55189.1	1055.82	-29742	0.000000	0.000000	6.843075	-0.021428	NaN	0.000000	0.001697	0.001752	28.0835	0.057410	0.001855	30.9535	95.3538	-167.792	-0.028073	0.841372	-0.302657	-0.303956	-0.021428	30.9535	-0.302138	-5063.34	4.231991E-6	NaN
1101	1.000000	0.852677	7.37583e+06	-55189.1	1055.82	-29742	0.000000	0.000000	6.853080	-0.010378	NaN	0.000000	0.001689	0.001740	28.0829	0.067320	0.001888	35.6523	79.3803	13.2894	0.010244	0.851323	-0.292652	-0.294005	-0.010378	35.6523	-0.292433	-3628.53	2.860151E-6	NaN
1101	1.000000	0.862675	7.37583e+06	-55189.1	1055.82	-29742	0.000000	0.000000	6.863079	-0.005289	NaN	0.000000	0.001692	0.001738	28.0832	0.076271	0.002050	37.2061	31.3182	-166.183	0.051131	0.861379	-0.282653	-0.283949	-0.005289	37.2061	-0.282547	-2578.42	2.051327E-6	NaN
1101	1.000000	0.872695	7.37583e+06	-55189.1	1055.82	-29742	0.000000	0.000000	6.873098	-0.030932	NaN	0.000000	0.001676	0.001753	28.0831	0.081485	0.002021	40.3267	-47.55	14.2032	-0.024615	0.871329	-0.272633	-0.274000	-0.030932	40.3267	-0.272058	-1789.8	1.728256E-5	NaN
1101	1.000000	0.882679	7.37583e+06	-55189.1	1055.82	-29742	0.000000	0.000000	6.883082	-0.026460	NaN	0.000000	0.001678	0.001726	28.0833	0.016178	0.001996	8.103898	65.9659	-168.45	-0.092285	0.881399	-0.262649	-0.263930	-0.026460	8.103898	-0.260200	-1180.29	2.241861E-5	NaN
1101	1.000000	0.892703	7.37583e+06	-55189.1	1055.82	-29742	0.000000	0.000000	6.893104	-0.068238	NaN	0.000000	0.001703	0.001733	28.0829	0.090045	0.002037	44.2037	-150.574	13.4184	-0.014572	0.891302	-0.252626	-0.254026	-0.068238	44.2037	-0.251468	-866.278	7.877136E-5	NaN
1101	1.000000	0.902672	7.37583e+06	-55189.1	1055.82	-29742	0.000000	0.000000	6.903076	-0.000927	NaN	0.000000	0.001690	0.001737	28.0822	0.062869	0.002042	30.7916	-6.355339	-166.542	-0.022000	0.901417	-0.242657	-0.243911	-0.000927	30.7916	-0.242634	-631.894	1.467334E-6	NaN
1101	1.000000	0.912717	7.37583e+06	-55189.1	1055.82	-29742	0.000000	0.000000	6.913121	-0.005708	NaN	0.000000	0.001714	0.001721	28.0818	0.091244	0.002096	43.5285	45.0665	16.1932	-0.040397	0.911345	-0.232611	-0.233983	-0.005708	43.5285	-0.232513	-438.67	1.301211E-5	NaN
1101	1.000000	0.922739	7.37583e+06	-55189.1	1055.82	-29742	0.000000	0.000000	6.923145	0.060479	NaN	0.000000	0.001719	0.001719	28.0821	0.046722	0.002015	23.1899	96.5677	-165.967	0.088892	0.921391	-0.222590	-0.223937	0.060479	23.1899	-0.224546	-328.185	-0.000184	NaN
1101	1.000000	0.932742	7.37583e+06	-55189.1	1055.82	-29742	0.000000	0.000000	6.933146	-0.015112	NaN	0.000000	0.001701	0.001762	28.0821	0.125780	0.002071	60.7297	-177.347	16.0277	0.012372	0.931369	-0.212586	-0.213960	-0.015112	60.7297	-0.212400	-209.708	7.206327E-5	NaN
1101	1.000000	0.942716	7.37583e+06	-55189.1	1055.82	-29742	0.000000	0.000000	6.943119	-0.007714	NaN	0.000000	0.001757	0.001732	28.0823	0.001779	0.002202	0.808045	120.585	-166.231	0.106497	0.941393	-0.202613	-0.203935	-0.007714	0.808045	-0.195453	-110.841	6.959743E-5	NaN
1101	1.000000	0.952725	7.37583e+06	-55189.1	1055.82	-29742	0.000000	0.000000	6.953130	0.022652	NaN	0.000000	0.001780	0.001735	28.0824	0.101902	0.002012	50.6475	152.676	10.0834	-0.096996	0.951354	-0.192603	-0.193974	0.022652	50.6475	-0.192939	-100.692	-0.000225	NaN
1101	1.000000	0.962740	7.37583e+06	-55189.1	1055.82	-29742	0.000000	0.000000	6.963144	-0.000556	NaN	0.000000	0.001745	0.001746	28.0822	0.036084	0.001920	18.7934	-178.356	-164.145	-0.073411	0.961425	-0.182588	-0.183903	-0.000556	18.7934	-0.182566	-67.4559	8.248766E-6	NaN
1101	1.000000	0.972716	7.37583e+06	-55189.1	1055.82	-29742	0.000000	0.000000	6.973118	-0.045865	NaN	0.000000	0.001799	0.001716	28.0819	0.055531	0.001963	28.2946	-68.606	12.9533	-0.015023	0.971375	-0.172612	-0.173954	-0.045865	28.2946	-0.171397	-43.4341	0.001056	NaN
1101	1.000000	0.982733	7.37583e+06	-55189.1	1055.82	-29742	0.000000	0.000000	6.983136	-0.005522	NaN	0.000000	0.001761	0.001762	28.0822	0.147154	0.002041	72.109	-139.45	-166.783	-0.004341	0.981431	-0.162596	-0.163898	-0.005522	72.109	-0.162539	-30.4059	0.000182	NaN
1101	1.000000	0.992749	7.37583e+06	-55189.1	1055.82	-29742	0.000000	0.000000	6.993153	0.011546	NaN	0.000000	0.001753	0.001766	28.0822	0.056040	0.002053	27.3032	-56.9038	13.4151	-0.004945	0.991338	-0.152580	-0.153991	0.011546	27.3032	-0.152897	-20.4468	-0.000565	NaN
1101	1.000000	1.002716	7.37583e+06	-55189.1	1055.82	-29742	0.000000	0.000000	7.003119	-0.039038	NaN	0.000000	0.001791	0.001768	28.0823	0.101696	0.002024	50.2472	3.594678	-168.584	0.038742	1.001467	-0.142612	-0.143861	-0.039038	50.2472	-0.142030	-12.9113	0.003024	NaN
1101	1.000000	1.012767	7.37583e+06	-55189.1	1055.82	-29742	0.000000	0.000000	7.013173	0.040558	NaN	0.000000	0.001786	0.001732	28.0819	0.030207	0.001921	15.724	-153.314	13.4165	0.067590	1.011389	-0.132561	-0.133939	0.040558	15.724	-0.134496	-9.303718	-0.004359	NaN
1101	1.000000	1.022730	7.37583e+06	-55189.1	1055.82	-29742	0.000000	0.000000	7.023134	0.001507	NaN	0.000000	0.001749	0.001755	28.0825	0.034849	0.002045	17.0422	-41.2981	-168.722	-0.009330	1.021440	-0.122599	-0.123888	0.001507	17.0422	-0.122665	-5.464881	-0.000276	NaN
1101	1.000000	1.032756	7.37583e+06	-55189.1	1055.82	-29742	0.000000	0.000000	7.033158	-0.040624	NaN	0.000000	0.001663	0.001737	28.082	0.066680	0.001795	37.1414	-142.639	11.631	-0.026700	1.031370	-0.112573	-0.113959	-0.040624	37.1414	-0.111753	-3.270977	0.012420	NaN
1101	1.000000	1.042779	7.37583e+06	-55189.1	1055.82	-29742	0.000000	0.000000	7.043182	-0.028008	NaN	0.000000	0.001687	0.001721	28.0835	0.074364	0.002124	35.0104	143.767	-169.567	-0.127206	1.041452	-0.102549	-0.103877	-0.028008	35.0104	-0.101949	-2.017275	0.013884	NaN
1101	1.000000	1.052763	7.37583e+06	-55189.1	1055.82	-29742	0.000000	0.000000	7.053166	-0.028214	NaN	0.000000	0.001732	0.001745	28.0833	0.077816	0.002016	38.599	98.4102	13.3251	0.051356	1.051416	-0.092566	-0.093912	-0.028214	38.599	-0.092017	-1.204670	0.023420	NaN
1101	1.000000	1.062762	7.37583e+06	-55189.1	1055.82	-29742	0.000000	0.000000	7.063162	-0.097179	NaN	0.000000	0.001705	0.001763	28.0836	0.042774	0.002069	20.6748	-172.643	-168.966	-0.068192	1.061494	-0.082567	-0.083835	-0.097179	20.6748	-0.079041	-0.585645	0.165936	NaN
1101	1.000000	1.072777	7.37583e+06	-55189.1	1055.82	-29742	0.000000	0.000000	7.073181	0.012512	NaN	0.000000	0.001699	0.001768	28.0833	0.054944	0.002003	27.4322	-43.7004	18.1133	-0.003960	1.071382	-0.072552	-0.073946	0.012512	27.4322	-0.072894	-0.407043	-0.030740	NaN
1101	1.000000	1.082765	7.37583e+06	-55189.1	1055.82	-29742	0.000000	0.000000	7.083169	-0.002034	NaN	0.000000	0.001715	0.001762	28.0833	0.109127	0.002044	53.401	-162.172	-165.946	-0.022660	1.081479	-0.062564	-0.063850	-0.002034	53.401	-0.062535	-0.212626	0.009565	NaN
1101	1.000000	1.092777	7.37583e+06	-55189.1	1055.82	-29742	0.000000	0.000000	7.093183	0.039663	NaN	0.000000	0.001748	0.001753	28.0835	0.077060	0.001860	41.4308	27.7335	12.6606	0.002375	1.091443	-0.052551	-0.053886	0.039663	41.4308	-0.053269	-0.114408	-0.346682	NaN
1101	1.000000	1.102774	7.37583e+06	-55189.1	1055.82	-29742	0.000000	0.000000	7.103178	-0.016829	NaN	0.000000	0.001759	0.001736	28.0834	0.094714	0.001966	48.1676	151.685	-163.536	-0.048753	1.101472	-0.042554	-0.043857	-0.016829	48.1676	-0.042292	-0.053112	0.316848	NaN
1101	1.000000	1.112776	7.37583e+06	-55189.1	1055.82	-29742	0.000000	0.000000	7.113178	-0.042958	NaN	0.000000	0.001713	0.001747	28.0836	0.092602	0.002113	43.8205	41.1962	15.5593	-0.117127	1.111456	-0.032553	-0.033873	-0.042958	43.8205	-0.031817	-0.025894	1.659037	NaN
1101	1.000000	1.122798	7.37583e+06	-55189.1	1055.82	-29742	0.000000	0.000000	7.123201	-0.029140	NaN	0.000000	0.001695	0.001742	28.0835	0.077511	0.001958	39.5928	66.2717	-167.948	-0.060207	1.121474	-0.022530	-0.023855	-0.029140	39.5928	-0.021978	-0.014103	2.066235	NaN
1101	1.000000	1.132795	7.37583e+06	-55189.1	1055.82	-29742	0.000000	0.000000	7.133199	0.004209	NaN	0.000000	0.001671	0.001725	28.0837	0.048655	0.002008	24.2341	-24.0234	15.9193	-0.013295	1.131386	-0.012533	-0.013943	0.004209	24.2341	-0.012663	-0.007909	-0.532148	NaN
1101	1.000000	1.142787	7.37583e+06	-55189.1	1055.82	-29742	0.000000	0.000000	7.143201	0.242417	NaN	0.000000	0.001696	0.001719	28.0835	0.466181	0.001992	234.031	17.7293	-165.562	0.030344	1.141467	-0.002542	-0.003861	0.242417	234.031	-0.003319	-0.002333	-103.925	NaN
1101	2.000000	1.151876	7.37583e+06	-55189.1	1055.82	-29742	0.000000	0.000000	7.152622	8.307608	NaN	0.000000	0.001698	0.001690	28.0835	9.033561	0.001744	5178.86	7.673129	6.473209	7.995678	1.151251	0.006548	0.005922	8.307608	5178.86	0.005345	0.004450	1866.79	70928
1101	2.000000	1.154405	7.37583e+06	-55189.1	1055.82	-29742	0.000000	0.000000	7.155253	10.777	NaN	0.000000	0.001656	0.001741	28.0836	11.7297	0.001691	6938.19	5.002860	-172.559	10.594	1.154071	0.009077	0.008743	10.777	6938.19	0.007912	0.006952	1550.23	76027
1101	2.000000	1.156880	7.37583e+06	-55189.1	1055.82	-29742	0.000000	0.000000	7.157956	16.3359	NaN	0.000000	0.001692	0.001677	28.0835	14.4644	0.001686	8578.36	6.784263	3.787123	15.522	1.156465	0.011551	0.011136	16.3359	8578.36	0.010123	0.009318	1753.06	81190.4
1101	2.000000	1.159322	7.37583e+06	-55189.1	1055.82	-29742	0.000000	0.000000	7.160552	20.0914	NaN	0.000000	0.001705	0.001698	28.0821	16.8284	0.001778	9467.37	5.217656	-176.704	19.1254	1.159031	0.013993	0.013703	20.0914	9467.37	0.012401	0.011975	1677.84	79044.9
1101	2.000000	1.161866	7.37583e+06	-55189.1	1055.82	-29742	0.000000	0.000000	7.163229	23.3049	NaN	0.000000	0.001700	0.001690	28.082	19.1001	0.001744	10953.4	4.382572	5.334771	23.2886	1.161452	0.016538	0.016123	23.3049	10953.4	0.014942	0.015208	1532.41	81149.8
1101	2.000000	1.164295	7.37583e+06	-55189.1	1055.82	-29742	0.000000	0.000000	7.166017	32.0215	NaN	0.000000	0.001713	0.001703	28.0823	22.2721	0.001787	12466.3	10.7438	176.403	30.955	1.163953	0.018967	0.018625	32.0215	12466.3	0.017040	0.018103	1768.83	84651
1101	2.000000	1.166848	7.37583e+06	-55189.1	1055.82	-29742	0.000000	0.000000	7.168850	38.855	NaN	0.000000	0.001684	0.001717	28.0823	23.7332	0.001721	13789.6	5.851544	1.541533	38.7398	1.166467	0.021519	0.021138	38.855	13789.6	0.019406	0.021618	1797.39	85688.5
1101	2.000000	1.169288	7.37583e+06	-55189.1	1055.82	-29742	0.000000	0.000000	7.171542	44.9525	NaN	0.000000	0.001657	0.001730	28.0823	26.4646	0.001765	14995.3	6.242541	-179.756	43.8123	1.168901	0.023960	0.023572	44.9525	14995.3	0.021712	0.025304	1776.53	86126.9
1101	2.000000	1.171782	7.37583e+06	-55189.1	1055.82	-29742	0.000000	0.000000	7.174381	53.3584	NaN	0.000000	0.001681	0.001733	28.0823	28.9869	0.001721	16839.6	7.364152	-3.002034	51.6783	1.171395	0.026454	0.026066	53.3584	16839.6	0.024077	0.029358	1817.5	89792.6
1101	2.000000	1.174256	7.37583e+06	-55189.1	1055.82	-29742	0.000000	0.000000	7.176941	55.4394	NaN	0.000000	0.001668	0.001751	28.0824	31.5507	0.001827	17267.5	-0.665753	-175.415	53.0209	1.174043	0.028928	0.028714	55.4394	17267.5	0.026520	0.033839	1638.34	85761.9
1101	2.000000	1.176774	7.37583e+06	-55189.1	1055.82	-29742	0.000000	0.000000	7.179882	65.7212	NaN	0.000000	0.001682	0.001747	28.0821	33.9396	0.001830	18543.3	5.921123	-1.624344	64.369	1.176466	0.031446	0.031138	65.7212	18543.3	0.028787	0.038268	1717.4	86605
1101	2.000000	1.179266	7.37583e+06	-55189.1	1055.82	-29742	0.000000	0.000000	7.182796	75.992	NaN	0.000000	0.001651	0.001719	28.0823	35.4482	0.001700	20856.2	3.592142	179.009	74.397	1.178952	0.033938	0.033623	75.992	20856.2	0.031205	0.043278	1755.9	91595.6
1101	2.000000	1.181734	7.37583e+06	-55189.1	1055.82	-29742	0.000000	0.000000	7.185578	83.613	NaN	0.000000	0.001655	0.001749	28.0824	38.173	0.001843	20714.4	2.934379	0.631962	81.691	1.181458	0.036406	0.036130	83.613	20714.4	0.033378	0.048037	1740.59	86349
1101	2.000000	1.184327	7.37583e+06	-55189.1	1055.82	-29742	0.000000	0.000000	7.188397	89.1207	NaN	0.000000	0.001707	0.001726	28.0825	41.003	0.001741	23553.3	6.767667	174.522	90.5931	1.184088	0.038999	0.038759	89.1207	23553.3	0.036161	0.054484	1635.73	92191.7
1101	2.000000	1.186752	7.37583e+06	-55189.1	1055.82	-29742	0.000000	0.000000	7.191331	101.488	NaN	0.000000	0.001673	0.001751	28.0824	41.8216	0.001688	24778.2	1.326165	0.103285	99.2682	1.186460	0.041424	0.041132	101.488	24778.2	0.038352	0.059838	1696.05	92545.1
1101	2.000000	1.189255	7.37583e+06	-55189.1	1055.82	-29742	0.000000	0.000000	7.194282	112.382	NaN	0.000000	0.001671	0.001727	28.0825	44.8243	0.001757	25513.8	3.001703	178.581	110.824	1.188904	0.043926	0.043576	112.382	25513.8	0.040623	0.065647	1711.91	90978.9
1101	2.000000	1.191741	7.37583e+06	-55189.1	1055.82	-29742	0.000000	0.000000	7.197178	122.349	NaN	0.000000	0.001657	0.001734	28.0838	48.1086	0.001812	26555.5	4.259054	-3.628101	120.935	1.191504	0.046413	0.046176	122.349	26555.5	0.042957	0.071894	1701.8	90486
1101	2.000000	1.194213	7.37583e+06	-55189.1	1055.82	-29742	0.000000	0.000000	7.200232	136.498	NaN	0.000000	0.001675	0.001748	28.0841	50.7138	0.001834	27652.7	2.844824	177.256	135.414	1.193886	0.048884	0.048558	136.498	27652.7	0.045182	0.078105	1747.63	90400.6
1101	2.000000	1.196785	7.37583e+06	-55189.1	1055.82	-29742	0.000000	0.000000	7.203527	154.077	NaN	0.000000	0.001691	0.001747	28.0837	52.3272	0.001703	30719.2	5.684169	-4.977505	152.336	1.196375	0.051456	0.051047	154.077	30719.2	0.047695	0.085421	1803.74	96028.9
1101	2.000000	1.199295	7.37583e+06	-55189.1	1055.82	-29742	0.000000	0.000000	7.206312	160.772	NaN	0.000000	0.001680	0.001749	28.0839	53.8738	0.001750	30779.1	2.184574	177.509	162.314	1.198935	0.053966	0.053607	160.772	30779.1	0.050049	0.092564	1736.88	92429.2
1101	2.000000	1.201705	7.37583e+06	-55189.1	1055.82	-29742	0.000000	0.000000	7.209168	171.602	NaN	0.000000	0.001658	0.001783	28.0843	57.4552	0.001799	31928.6	3.542798	-4.690648	168.006	1.201402	0.056376	0.056073	171.602	31928.6	0.052345	0.099800	1719.46	92339.5
1101	2.000000	1.204272	7.37583e+06	-55189.1	1055.82	-29742	0.000000	0.000000	7.212235	183.736	NaN	0.000000	0.001679	0.001710	28.084	60.2059	0.001842	32687.8	1.327859	177.545	184.293	1.204015	0.058944	0.058687	183.736	32687.8	0.054728	0.107586	1707.81	91050.4
1101	2.000000	1.206740	7.37583e+06	-55189.1	1055.82	-29742	0.000000	0.000000	7.215462	202.193	NaN	0.000000	0.001668	0.001718	28.084	61.7664	0.001772	34852.5	3.184748	-4.648337	199.759	1.206322	0.061412	0.060994	202.193	34852.5	0.057061	0.115480	1750.9	93703.1
1101	2.000000	1.209203	7.37583e+06	-55189.1	1055.82	-29742	0.000000	0.000000	7.218489	215.93	NaN	0.000000	0.001632	0.001734	28.0839	64.4806	0.001838	35072.8	5.552318	173.235	213.392	1.208851	0.063874	0.063522	215.93	35072.8	0.059257	0.123156	1753.3	91309.4
1101	2.000000	1.211735	7.37583e+06	-55189.1	1055.82	-29742	0.000000	0.000000	7.221501	227.6	NaN	0.000000	0.001666	0.001661	28.084	66.3356	0.001828	36294.2	3.626341	-5.399631	225.803	1.211468	0.066406	0.066139	227.6	36294.2	0.061703	0.131986	1724.43	91274
1101	2.000000	1.214164	7.37583e+06	-55189.1	1055.82	-29742	0.000000	0.000000	7.224406	239.158	NaN	0.000000	0.001660	0.001690	28.0838	68.7563	0.001681	40895.6	3.823085	172.627	235.294	1.213905	0.068835	0.068577	239.158	40895.6	0.064449	0.142245	1681.32	99067.6
1101	2.000000	1.216687	7.37583e+06	-55189.1	1055.82	-29742	0.000000	0.000000	7.227786	259.984	NaN	0.000000	0.001693	0.001670	28.0839	70.6555	0.001723	41005.9	6.215942	-7.830594	254.285	1.216296	0.071358	0.070967	259.984	41005.9	0.066603	0.150546	1726.95	96557.3
1101	2.000000	1.219126	7.37583e+06	-55189.1	1055.82	-29742	0.000000	0.000000	7.230876	275.818	NaN	0.000000	0.001702	0.001674	28.0839	73.0888	0.001802	40550.3	4.969782	172.616	270.35	1.218878	0.073798	0.073550	275.818	40550.3	0.068696	0.158825	1736.62	92962.5
1101	2.000000	1.221746	7.37583e+06	-55189.1	1055.82	-29742	0.000000	0.000000	7.234207	293.083	NaN	0.000000	0.001699	0.001638	28.0839	76.2627	0.001774	42988.5	4.140384	-6.703922	292.77	1.221286	0.076418	0.075958	293.083	42988.5	0.071305	0.169435	1729.77	95416.7
1101	2.000000	1.224249	7.37583e+06	-55189.1	1055.82	-29742	0.000000	0.000000	7.237385	309.52	NaN	0.000000	0.001716	0.001661	28.0839	80.4302	0.001757	45768.3	8.194729	168.481	310.254	1.223878	0.078920	0.078549	309.52	45768.3	0.073848	0.180093	1718.67	98534.8
1101	2.000000	1.226719	7.37583e+06	-55189.1	1055.82	-29742	0.000000	0.000000	7.240614	327.962	NaN	0.000000	0.001672	0.001662	28.0824	81.4397	0.001891	43058.1	4.079853	-6.720806	325.022	1.226380	0.081390	0.081051	327.962	43058.1	0.075678	0.187948	1744.96	90742.2
1101	2.000000	1.229183	7.37583e+06	-55189.1	1055.82	-29742	0.000000	0.000000	7.243829	346.219	NaN	0.000000	0.001692	0.001630	28.0825	83.4654	0.001800	46364.5	4.005170	172.275	343.89	1.228848	0.083854	0.083519	346.219	46364.5	0.078254	0.199274	1737.41	94893
1101	2.000000	1.231711	7.37583e+06	-55189.1	1055.82	-29742	0.000000	0.000000	7.246783	356.546	NaN	0.000000	0.001665	0.001642	28.0823	86.8202	0.001835	47309.8	3.714384	-7.394724	352.875	1.231374	0.086383	0.086045	356.546	47309.8	0.080731	0.210457	1694.15	94219.8
1101	2.000000	1.234213	7.37583e+06	-55189.1	1055.82	-29742	0.000000	0.000000	7.250188	378.524	NaN	0.000000	0.001671	0.001636	28.0824	89.2783	0.001832	48735.6	3.542561	172.512	376.568	1.233916	0.088885	0.088588	378.524	48735.6	0.083059	0.221232	1710.99	94666.5
1101	2.000000	1.236658	7.37583e+06	-55189.1	1055.82	-29742	0.000000	0.000000	7.253554	400.922	NaN	0.000000	0.001672	0.001651	28.0825	90.2534	0.001808	49923.4	1.759207	-5.353431	395.319	1.236323	0.091329	0.090994	400.922	49923.4	0.085306	0.231864	1729.13	94724
1101	2.000000	1.239179	7.37583e+06	-55189.1	1055.82	-29742	0.000000	0.000000	7.256943	422.017	NaN	0.000000	0.001712	0.001654	28.0826	92.0636	0.001682	54723.1	4.073700	171.317	418.974	1.238766	0.093850	0.093438	422.017	54723.1	0.088066	0.245246	1720.79	100959
1101	2.000000	1.241601	7.37583e+06	-55189.1	1055.82	-29742	0.000000	0.000000	7.259968	436.676	NaN	0.000000	0.001726	0.001623	28.0826	96.1774	0.001777	54135.4	3.259020	-8.132044	430.024	1.241376	0.096272	0.096047	436.676	54135.4	0.090223	0.255943	1706.14	97764.8
1101	2.000000	1.244234	7.37583e+06	-55189.1	1055.82	-29742	0.000000	0.000000	7.263733	464.19	NaN	0.000000	0.001717	0.001655	28.0826	98.6861	0.001844	53520	3.267076	172.538	465.468	1.243855	0.098905	0.098526	464.19	53520	0.092401	0.266965	1738.77	94637.2
1101	2.000000	1.246620	7.37583e+06	-55189.1	1055.82	-29742	0.000000	0.000000	7.267031	486.36	NaN	0.000000	0.001704	0.001648	28.0828	98.4203	0.001721	57193.7	1.328059	-6.059955	479.772	1.246278	0.101292	0.100949	486.36	57193.7	0.094914	0.279953	1737.29	98759.5
1101	2.000000	1.249219	7.37583e+06	-55189.1	1055.82	-29742	0.000000	0.000000	7.270281	502.182	NaN	0.000000	0.001695	0.001630	28.0825	101.074	0.001730	58434.6	4.665521	170.453	502.352	1.248845	0.103891	0.103516	502.182	58434.6	0.097445	0.293326	1712.03	98575.3
1101	2.000000	1.250214	7.37583e+06	-55189.1	1055.82	-29742	0.000000	0.000000	7.271743	513.536	NaN	0.000000	0.001696	0.001632	28.0827	103.1	0.001817	56739.9	7.088238	168.666	513.669	1.249798	0.104886	0.104469	513.536	56739.9	0.098098	0.296821	1730.12	95151.2