File: remote_trans/data/nanoindenter/0828-1/data/Data_2025-08-06,11h17m57s/2025-07-22_16-23-58_1_419.txt
2025-07-22, 16:23:58, 1
Index	Phase	Displacement	Time	Pos X	Pos Y	Pos Z	Rot A	Rot B	Piezo Z	Force A	Force B	Gripper	Voltage A	Voltage B	Temperature	Amplitude force	Amplitude pos	Stiffness	Phase shift	Phase excitation	Force A raw	Displacement raw	HMax	HMax raw	Real Force	Real Stiffness	Contact Depth	Area	Hardness	Reduced Mod.
[#]	[#]	[um]	[s]	[um]	[um]	[um]	[m°]	[m°]	[um]	[uN]	[uN]	[V]	[V]	[V]	[°C]	[uN]	[um]	[N/m]	[°]	[°]	[uN]	[um]	[um]	[um]	[uN]	[N/m]	[um]	[um^2]	[MPa]	[MPa]
419	1.000000	0.002671	7.36916e+06	-56139.1	1005.82	-29739.9	0.000000	0.000000	6.002806	-0.037813	NaN	0.000000	0.001677	0.001680	28.0812	0.019974	0.001024	19.5055	-64.3	-171.026	-0.033592	0.001396	-1.117681	-1.118956	-0.037813	19.5055	-1.116227	-8.276445E+14	4.568769E-17	NaN
419	1.000000	0.010626	7.36916e+06	-56139.1	1005.82	-29739.9	0.000000	0.000000	6.010763	0.025444	NaN	0.000000	0.001674	0.001714	28.0808	0.088363	0.000868	101.788	105.831	-159.773	-0.026135	0.009283	-1.109726	-1.111069	0.025444	101.788	-1.109913	-6.809670E+14	-3.736471E-17	NaN
419	1.000000	0.018624	7.36916e+06	-56139.1	1005.82	-29739.9	0.000000	0.000000	6.018760	-0.024121	NaN	0.000000	0.001674	0.001677	28.0806	0.048082	0.001592	30.2079	-136.485	-165.426	0.004775	0.017348	-1.101727	-1.103003	-0.024121	30.2079	-1.101128	-5.190533E+14	4.647170E-17	NaN
419	1.000000	0.026663	7.36916e+06	-56139.1	1005.82	-29739.9	0.000000	0.000000	6.026800	0.005273	NaN	0.000000	0.001707	0.001716	28.0807	0.062860	0.001890	33.2592	-172.892	-164.378	0.003706	0.025263	-1.093688	-1.095089	0.005273	33.2592	-1.093807	-4.139329E+14	-1.273981E-17	NaN
419	1.000000	0.034611	7.36916e+06	-56139.1	1005.82	-29739.9	0.000000	0.000000	6.034747	-0.013562	NaN	0.000000	0.001673	0.001723	28.0805	0.078439	0.001917	40.9182	69.918	-167.393	-0.030833	0.033274	-1.085740	-1.087078	-0.013562	40.9182	-1.085492	-3.200899E+14	4.237042E-17	NaN
419	1.000000	0.042650	7.36916e+06	-56139.1	1005.82	-29739.9	0.000000	0.000000	6.042784	-0.073829	NaN	0.000000	0.001714	0.001697	28.0806	0.027041	0.001954	13.8396	-15.7388	-165.27	-0.027743	0.041278	-1.077701	-1.079073	-0.073829	13.8396	-1.073700	-2.222781E+14	3.321459E-16	NaN
419	1.000000	0.050610	7.36916e+06	-56139.1	1005.82	-29739.9	0.000000	0.000000	6.050745	-0.042997	NaN	0.000000	0.001724	0.001641	28.0805	0.115759	0.002003	57.7805	-94.2318	-164.608	-0.011813	0.049297	-1.069741	-1.071055	-0.042997	57.7805	-1.069183	-1.932928E+14	2.224454E-16	NaN
419	1.000000	0.058600	7.36916e+06	-56139.1	1005.82	-29739.9	0.000000	0.000000	6.058734	-0.040339	NaN	0.000000	0.001696	0.001651	28.0804	0.079251	0.001924	41.1965	132.423	-167.428	-0.060609	0.057332	-1.061752	-1.063019	-0.040339	41.1965	-1.061017	-1.501394E+14	2.686753E-16	NaN
419	1.000000	0.066627	7.36916e+06	-56139.1	1005.82	-29739.9	0.000000	0.000000	6.066764	0.022289	NaN	0.000000	0.001667	0.001672	28.0809	0.080137	0.001989	40.2993	-82.6184	-162.572	-0.039620	0.065297	-1.053724	-1.055054	0.022289	40.2993	-1.054139	-1.213535E+14	-1.836730E-16	NaN
419	1.000000	0.074628	7.36916e+06	-56139.1	1005.82	-29739.9	0.000000	0.000000	6.074765	0.003436	NaN	0.000000	0.001699	0.001644	28.0808	0.109257	0.002198	49.6999	142.746	-165.181	-0.048125	0.073284	-1.045723	-1.047067	0.003436	49.6999	-1.045775	-9.367304E+13	-3.667817E-17	NaN
419	1.000000	0.082621	7.36916e+06	-56139.1	1005.82	-29739.9	0.000000	0.000000	6.082755	-0.051635	NaN	0.000000	0.001710	0.001668	28.0811	0.079397	0.001935	41.0327	-45.2282	-164.63	-0.019020	0.081321	-1.037731	-1.039030	-0.051635	41.0327	-1.036787	-7.091864E+13	7.280848E-16	NaN
419	1.000000	0.090632	7.36916e+06	-56139.1	1005.82	-29739.9	0.000000	0.000000	6.090767	-0.038645	NaN	0.000000	0.001716	0.001665	28.0809	0.028156	0.002135	13.1887	43.3961	-166.737	-0.067000	0.089304	-1.029720	-1.031047	-0.038645	13.1887	-1.027522	-5.322887E+13	7.260123E-16	NaN
419	1.000000	0.098668	7.36916e+06	-56139.1	1005.82	-29739.9	0.000000	0.000000	6.098804	-0.016465	NaN	0.000000	0.001708	0.001632	28.0808	0.120808	0.001889	63.9389	-19.8674	-167.902	-0.032062	0.097391	-1.021683	-1.022960	-0.016465	63.9389	-1.021490	-4.415725E+13	3.728608E-16	NaN
419	1.000000	0.106655	7.36916e+06	-56139.1	1005.82	-29739.9	0.000000	0.000000	6.106792	0.010868	NaN	0.000000	0.001689	0.001652	28.0811	0.074889	0.001935	38.6976	172.683	-162.487	-0.022561	0.105305	-1.013696	-1.015047	0.010868	38.6976	-1.013907	-3.491091E+13	-3.113034E-16	NaN
419	1.000000	0.114674	7.36916e+06	-56139.1	1005.82	-29739.9	0.000000	0.000000	6.114813	0.050081	NaN	0.000000	0.001691	0.001636	28.0808	0.099177	0.001923	51.5634	-135.387	-168.288	0.046399	0.113369	-1.005677	-1.006983	0.050081	51.5634	-1.006406	-2.766957E+13	-1.809962E-15	NaN
419	1.000000	0.122634	7.36916e+06	-56139.1	1005.82	-29739.9	0.000000	0.000000	6.122766	-0.091660	NaN	0.000000	0.001685	0.001670	28.0812	0.100881	0.001990	50.6839	101.227	-165.773	0.037907	0.121329	-0.997718	-0.999022	-0.091660	50.6839	-0.996361	-2.026632E+13	4.522754E-15	NaN
419	1.000000	0.130638	7.36916e+06	-56139.1	1005.82	-29739.9	0.000000	0.000000	6.130775	0.023071	NaN	0.000000	0.001700	0.001650	28.081	0.042785	0.001998	21.4099	0.249353	-167.452	0.005927	0.129306	-0.989713	-0.991046	0.023071	21.4099	-0.990522	-1.690976E+13	-1.364334E-15	NaN
419	1.000000	0.138647	7.36916e+06	-56139.1	1005.82	-29739.9	0.000000	0.000000	6.138785	0.035630	NaN	0.000000	0.001686	0.001651	28.0823	0.094315	0.002009	46.9403	-82.8772	-164.783	0.061941	0.137314	-0.981705	-0.983037	0.035630	46.9403	-0.982274	-1.309315E+13	-2.721232E-15	NaN
419	1.000000	0.146666	7.36916e+06	-56139.1	1005.82	-29739.9	0.000000	0.000000	6.146802	-0.007096	NaN	0.000000	0.001662	0.001682	28.0823	0.083839	0.001902	44.0874	136.405	-165.839	-0.020403	0.145340	-0.973685	-0.975012	-0.007096	44.0874	-0.973565	-9.993132E+12	7.100466E-16	NaN
419	1.000000	0.154669	7.36916e+06	-56139.1	1005.82	-29739.9	0.000000	0.000000	6.154806	0.021603	NaN	0.000000	0.001684	0.001664	28.082	0.104506	0.001880	55.5819	-161.818	-166.325	-0.044615	0.153354	-0.965683	-0.966997	0.021603	55.5819	-0.965974	-7.895888E+12	-2.735929E-15	NaN
419	1.000000	0.162637	7.36916e+06	-56139.1	1005.82	-29739.9	0.000000	0.000000	6.162771	-0.057672	NaN	0.000000	0.001666	0.001628	28.0824	0.100675	0.001877	53.6435	83.6249	-164.747	-0.092860	0.161308	-0.957714	-0.959043	-0.057672	53.6435	-0.956908	-5.959064E+12	9.678063E-15	NaN
419	1.000000	0.170628	7.36916e+06	-56139.1	1005.82	-29739.9	0.000000	0.000000	6.170763	-0.046232	NaN	0.000000	0.001701	0.001635	28.0822	0.057314	0.002078	27.5767	-3.040537	-166.654	-0.052747	0.169341	-0.949723	-0.951011	-0.046232	27.5767	-0.948466	-4.584961E+12	1.008337E-14	NaN
419	1.000000	0.178648	7.36916e+06	-56139.1	1005.82	-29739.9	0.000000	0.000000	6.178783	-0.038786	NaN	0.000000	0.001658	0.001662	28.0822	0.074216	0.002038	36.4182	79.2305	-168.282	-0.046626	0.177379	-0.941703	-0.942973	-0.038786	36.4182	-0.940904	-3.625244E+12	1.069896E-14	NaN
419	1.000000	0.186643	7.36916e+06	-56139.1	1005.82	-29739.9	0.000000	0.000000	6.186777	-0.040954	NaN	0.000000	0.001651	0.001634	28.0821	0.109628	0.002009	54.5764	91.9621	-165.385	-0.013578	0.185402	-0.933709	-0.934949	-0.040954	54.5764	-0.933146	-2.848745E+12	1.437629E-14	NaN
419	1.000000	0.194678	7.36916e+06	-56139.1	1005.82	-29739.9	0.000000	0.000000	6.194814	-0.023955	NaN	0.000000	0.001685	0.001640	28.0821	0.090746	0.001978	45.8885	-55.9176	-164.643	-0.022045	0.193389	-0.925673	-0.926962	-0.023955	45.8885	-0.925282	-2.231047E+12	1.073729E-14	NaN
419	1.000000	0.202683	7.36916e+06	-56139.1	1005.82	-29739.9	0.000000	0.000000	6.202820	0.007203	NaN	0.000000	0.001719	0.001688	28.0822	0.027980	0.001905	14.6878	43.6156	-167.292	-0.012159	0.201376	-0.917668	-0.918975	0.007203	14.6878	-0.918036	-1.781086E+12	-4.043899E-15	NaN
419	1.000000	0.210675	7.36916e+06	-56139.1	1005.82	-29739.9	0.000000	0.000000	6.210812	0.004541	NaN	0.000000	0.001717	0.001643	28.0824	0.100654	0.001942	51.8237	179.307	-164.249	-0.026701	0.209359	-0.909676	-0.910993	0.004541	51.8237	-0.909742	-1.376185E+12	-3.299861E-15	NaN
419	1.000000	0.218692	7.36916e+06	-56139.1	1005.82	-29739.9	0.000000	0.000000	6.218827	-0.040493	NaN	0.000000	0.001704	0.001666	28.0824	0.046741	0.002105	22.2084	-167.165	-165.749	0.020890	0.217347	-0.901659	-0.903004	-0.040493	22.2084	-0.900292	-1.025674E+12	3.947941E-14	NaN
419	1.000000	0.226680	7.36916e+06	-56139.1	1005.82	-29739.9	0.000000	0.000000	6.226814	-0.063361	NaN	0.000000	0.001718	0.001666	28.0823	0.071918	0.002013	35.7249	-130.547	-169.569	-0.106531	0.225379	-0.893671	-0.894972	-0.063361	35.7249	-0.892341	-8.008606E+11	7.911611E-14	NaN
419	1.000000	0.234697	7.36916e+06	-56139.1	1005.82	-29739.9	0.000000	0.000000	6.234831	-0.063891	NaN	0.000000	0.001684	0.001650	28.0822	0.044093	0.001923	22.9272	-4.915504	-165.593	3.914646E-5	0.233385	-0.885654	-0.886967	-0.063891	22.9272	-0.883564	-6.094081E+11	1.048406E-13	NaN
419	1.000000	0.242679	7.36916e+06	-56139.1	1005.82	-29739.9	0.000000	0.000000	6.242817	0.045574	NaN	0.000000	0.001651	0.001618	28.0822	0.059130	0.001877	31.4992	-10.0554	-166.458	0.081284	0.241376	-0.877672	-0.878976	0.045574	31.4992	-0.878757	-5.246883E+11	-8.685979E-14	NaN
419	1.000000	0.250705	7.36916e+06	-56139.1	1005.82	-29739.9	0.000000	0.000000	6.250840	-0.048564	NaN	0.000000	0.001662	0.001698	28.0823	0.089551	0.001982	45.1928	-59.403	-166.732	-0.026979	0.249376	-0.869646	-0.870976	-0.048564	45.1928	-0.868840	-3.852586E+11	1.260562E-13	NaN
419	1.000000	0.258712	7.36916e+06	-56139.1	1005.82	-29739.9	0.000000	0.000000	6.258844	-0.099412	NaN	0.000000	0.001669	0.001633	28.0825	0.029115	0.002049	14.2089	-7.208869	-166.53	-0.052539	0.257436	-0.861640	-0.862915	-0.099412	14.2089	-0.856393	-2.613897E+11	3.803229E-13	NaN
419	1.000000	0.266724	7.36916e+06	-56139.1	1005.82	-29739.9	0.000000	0.000000	6.266859	-0.035548	NaN	0.000000	0.001651	0.001654	28.0822	0.068923	0.001962	35.1236	-136.028	-163.21	-0.006458	0.265438	-0.853628	-0.854913	-0.035548	35.1236	-0.852869	-2.341967E+11	1.517864E-13	NaN
419	1.000000	0.274687	7.36916e+06	-56139.1	1005.82	-29739.9	0.000000	0.000000	6.274823	-0.019727	NaN	0.000000	0.001639	0.001670	28.0812	0.111989	0.002030	55.1575	153.922	-163.735	-0.037675	0.273352	-0.845664	-0.847000	-0.019727	55.1575	-0.845396	-1.855179E+11	1.063363E-13	NaN
419	1.000000	0.282671	7.36916e+06	-56139.1	1005.82	-29739.9	0.000000	0.000000	6.282806	-0.032915	NaN	0.000000	0.001671	0.001658	28.081	0.123657	0.001841	67.1801	128.051	-165.907	-0.113246	0.281384	-0.837681	-0.838968	-0.032915	67.1801	-0.837313	-1.441746E+11	2.282979E-13	NaN
419	1.000000	0.290712	7.36916e+06	-56139.1	1005.82	-29739.9	0.000000	0.000000	6.290846	-0.048022	NaN	0.000000	0.001658	0.001663	28.0808	0.066429	0.002035	32.6508	30.5495	-164.532	0.024288	0.289392	-0.829640	-0.830959	-0.048022	32.6508	-0.828537	-1.096357E+11	4.380171E-13	NaN
419	1.000000	0.298709	7.36916e+06	-56139.1	1005.82	-29739.9	0.000000	0.000000	6.298844	-0.040704	NaN	0.000000	0.001652	0.001684	28.081	0.058415	0.001942	30.0871	-48.1584	-165.988	-0.053938	0.297415	-0.821643	-0.822936	-0.040704	30.0871	-0.820628	-8.564963E+10	4.752423E-13	NaN
419	1.000000	0.306712	7.36916e+06	-56139.1	1005.82	-29739.9	0.000000	0.000000	6.306846	-0.043087	NaN	0.000000	0.001646	0.001647	28.0806	0.054043	0.002087	25.894	-5.600853	-167.003	-0.010441	0.305373	-0.813640	-0.814978	-0.043087	25.894	-0.812392	-6.622474E+10	6.506231E-13	NaN
419	1.000000	0.314733	7.36916e+06	-56139.1	1005.82	-29739.9	0.000000	0.000000	6.314871	0.047015	NaN	0.000000	0.001623	0.001668	28.0814	0.179641	0.002078	86.4626	132.091	-163.434	0.008815	0.313404	-0.805618	-0.806948	0.047015	86.4626	-0.806026	-5.428155E+10	-8.661288E-13	NaN
419	1.000000	0.322754	7.36916e+06	-56139.1	1005.82	-29739.9	0.000000	0.000000	6.322888	-0.046525	NaN	0.000000	0.001639	0.001686	28.0808	0.056272	0.002123	26.509	-26.4826	-167.387	-0.037301	0.321446	-0.797598	-0.798906	-0.046525	26.509	-0.796282	-4.002982E+10	1.162269E-12	NaN
419	1.000000	0.330755	7.36916e+06	-56139.1	1005.82	-29739.9	0.000000	0.000000	6.330890	-0.033534	NaN	0.000000	0.001624	0.001653	28.0809	0.036704	0.001901	19.3031	154.635	-166.138	-0.074823	0.329442	-0.789597	-0.790909	-0.033534	19.3031	-0.788294	-3.118249E+10	1.075423E-12	NaN
419	1.000000	0.338743	7.36916e+06	-56139.1	1005.82	-29739.9	0.000000	0.000000	6.338877	-0.047863	NaN	0.000000	0.001663	0.001705	28.0809	0.062397	0.001946	32.0654	75.7983	-165.361	-0.084001	0.337382	-0.781609	-0.782970	-0.047863	32.0654	-0.780489	-2.442766E+10	1.959371E-12	NaN
419	1.000000	0.346738	7.36916e+06	-56139.1	1005.82	-29739.9	0.000000	0.000000	6.346874	-0.014987	NaN	0.000000	0.001704	0.001650	28.0807	0.076212	0.001975	38.5896	-50.3847	-166.323	0.002458	0.345461	-0.773613	-0.774890	-0.014987	38.5896	-0.773322	-1.951959E+10	7.678154E-13	NaN
419	1.000000	0.354722	7.36916e+06	-56139.1	1005.82	-29739.9	0.000000	0.000000	6.354857	-0.012333	NaN	0.000000	0.001664	0.001666	28.0813	0.054473	0.002036	26.7608	139.525	-165.763	-0.088915	0.353471	-0.765630	-0.766881	-0.012333	26.7608	-0.765284	-1.517680E+10	8.126522E-13	NaN
419	1.000000	0.362741	7.36916e+06	-56139.1	1005.82	-29739.9	0.000000	0.000000	6.362877	-0.013141	NaN	0.000000	0.001650	0.001669	28.0808	0.011665	0.002067	5.643199	9.136556	-164.943	-0.016623	0.361431	-0.757610	-0.758920	-0.013141	5.643199	-0.755864	-1.129872E+10	1.163010E-12	NaN
419	1.000000	0.370746	7.36916e+06	-56139.1	1005.82	-29739.9	0.000000	0.000000	6.370885	0.057197	NaN	0.000000	0.001688	0.001679	28.0811	0.048260	0.002043	23.6221	38.2486	-166.715	0.075263	0.369424	-0.749605	-0.750928	0.057197	23.6221	-0.751421	-9.830307E+9	-5.818435E-12	NaN
419	1.000000	0.378757	7.36916e+06	-56139.1	1005.82	-29739.9	0.000000	0.000000	6.378893	-0.005535	NaN	0.000000	0.001688	0.001641	28.0808	0.109746	0.002147	51.1206	146.339	-165.429	-0.008181	0.377418	-0.741595	-0.742933	-0.005535	51.1206	-0.741513	-7.205585E+9	7.681643E-13	NaN
419	1.000000	0.386744	7.36916e+06	-56139.1	1005.82	-29739.9	0.000000	0.000000	6.386880	-0.014805	NaN	0.000000	0.001719	0.001661	28.0807	0.087351	0.001999	43.6908	113.801	-167.594	-0.039615	0.385464	-0.733608	-0.734888	-0.014805	43.6908	-0.733353	-5.578374E+9	2.654003E-12	NaN
419	1.000000	0.394747	7.36916e+06	-56139.1	1005.82	-29739.9	0.000000	0.000000	6.394881	-0.037622	NaN	0.000000	0.001695	0.001634	28.0809	0.053269	0.002012	26.4779	85.7673	-164.544	-0.067194	0.393463	-0.725605	-0.726889	-0.037622	26.4779	-0.724539	-4.230278E+9	8.893620E-12	NaN
419	1.000000	0.402752	7.36916e+06	-56139.1	1005.82	-29739.9	0.000000	0.000000	6.402886	-0.046470	NaN	0.000000	0.001723	0.001626	28.0808	0.027954	0.002063	13.5507	-8.975862	-165.771	-0.076687	0.401444	-0.717599	-0.718907	-0.046470	13.5507	-0.715027	-3.137951E+9	1.480901E-11	NaN
419	1.000000	0.410762	7.36916e+06	-56139.1	1005.82	-29739.9	0.000000	0.000000	6.410899	0.022064	NaN	0.000000	0.001701	0.001647	28.0822	0.202978	0.001974	102.8	54.5314	-168.042	0.011851	0.409484	-0.709590	-0.710867	0.022064	102.8	-0.709751	-2.658579E+9	-8.299315E-12	NaN
419	1.000000	0.418743	7.36916e+06	-56139.1	1005.82	-29739.9	0.000000	0.000000	6.418880	0.001379	NaN	0.000000	0.001698	0.001687	28.0819	0.089298	0.001966	45.4242	-51.0321	-164.092	-0.019233	0.417419	-0.701608	-0.702932	0.001379	45.4242	-0.701631	-2.059693E+9	-6.694798E-13	NaN
419	1.000000	0.426778	7.36916e+06	-56139.1	1005.82	-29739.9	0.000000	0.000000	6.426914	-0.003348	NaN	0.000000	0.001717	0.001663	28.082	0.066106	0.002102	31.4502	-34.2461	-164.013	-0.055255	0.425463	-0.693574	-0.694889	-0.003348	31.4502	-0.693494	-1.594624E+9	2.099353E-12	NaN
419	1.000000	0.434812	7.36916e+06	-56139.1	1005.82	-29739.9	0.000000	0.000000	6.434946	-0.074399	NaN	0.000000	0.001727	0.001689	28.082	0.114294	0.001974	57.8955	80.2228	-164.101	-0.026157	0.433486	-0.685539	-0.686866	-0.074399	57.8955	-0.684575	-1.204391E+9	6.177326E-11	NaN
419	1.000000	0.442801	7.36916e+06	-56139.1	1005.82	-29739.9	0.000000	0.000000	6.442938	0.018279	NaN	0.000000	0.001716	0.001627	28.0821	0.030955	0.001981	15.6273	101.773	-163.221	-0.002014	0.441480	-0.677550	-0.678871	0.018279	15.6273	-0.678428	-9.924267E+8	-1.841840E-11	NaN
419	1.000000	0.450790	7.36916e+06	-56139.1	1005.82	-29739.9	0.000000	0.000000	6.450926	-0.001791	NaN	0.000000	0.001724	0.001646	28.0821	0.086603	0.001928	44.9099	-156.533	-165.943	-0.047524	0.449454	-0.669561	-0.670897	-0.001791	44.9099	-0.669531	-7.498560E+8	2.388454E-12	NaN
419	1.000000	0.458778	7.36916e+06	-56139.1	1005.82	-29739.9	0.000000	0.000000	6.458911	-0.074635	NaN	0.000000	0.001689	0.001683	28.082	0.031254	0.001938	16.1255	-100.4	-167.226	-0.088946	0.457458	-0.661573	-0.662893	-0.074635	16.1255	-0.658102	-5.229625E+8	1.427150E-10	NaN
419	1.000000	0.466799	7.36916e+06	-56139.1	1005.82	-29739.9	0.000000	0.000000	6.466935	-0.002200	NaN	0.000000	0.001669	0.001678	28.082	0.046733	0.002002	23.3402	-53.3165	-165.756	0.059820	0.465472	-0.653552	-0.654879	-0.002200	23.3402	-0.653482	-4.520234E+8	4.867269E-12	NaN
419	1.000000	0.474796	7.36916e+06	-56139.1	1005.82	-29739.9	0.000000	0.000000	6.474932	-0.003155	NaN	0.000000	0.001717	0.001700	28.0819	0.114352	0.002129	53.7212	-177.01	-169.11	-0.047342	0.473499	-0.645556	-0.646852	-0.003155	53.7212	-0.645511	-3.514732E+8	8.977024E-12	NaN
419	1.000000	0.482790	7.36916e+06	-56139.1	1005.82	-29739.9	0.000000	0.000000	6.482926	-0.017119	NaN	0.000000	0.001706	0.001657	28.0819	0.083106	0.002002	41.517	160.927	-168.422	-0.011150	0.481477	-0.637561	-0.638874	-0.017119	41.517	-0.637252	-2.707599E+8	6.322414E-11	NaN
419	1.000000	0.490784	7.36916e+06	-56139.1	1005.82	-29739.9	0.000000	0.000000	6.490917	-0.074233	NaN	0.000000	0.001678	0.001642	28.082	0.160751	0.002054	78.2602	69.5132	-166.772	-0.018971	0.489504	-0.629567	-0.630847	-0.074233	78.2602	-0.628856	-2.076408E+8	3.575047E-10	NaN
419	1.000000	0.498769	7.36916e+06	-56139.1	1005.82	-29739.9	0.000000	0.000000	6.498907	0.041584	NaN	0.000000	0.001699	0.001676	28.0819	0.103614	0.002067	50.124	67.9383	-163.766	-0.027325	0.497471	-0.621583	-0.622880	0.041584	50.124	-0.622205	-1.682430E+8	-2.471652E-10	NaN
419	1.000000	0.506772	7.36916e+06	-56139.1	1005.82	-29739.9	0.000000	0.000000	6.506909	0.025886	NaN	0.000000	0.001670	0.001676	28.082	0.091235	0.001906	47.8741	-179.045	-165.966	-0.021273	0.505476	-0.613579	-0.614876	0.025886	47.8741	-0.613985	-1.296973E+8	-1.995863E-10	NaN
419	1.000000	0.514803	7.36916e+06	-56139.1	1005.82	-29739.9	0.000000	0.000000	6.514939	0.003898	NaN	0.000000	0.001678	0.001675	28.0819	0.116474	0.002027	57.4649	-170.238	-166.594	-0.078800	0.513535	-0.605549	-0.606817	0.003898	57.4649	-0.605600	-9.943945E+7	-3.920410E-11	NaN
419	1.000000	0.522807	7.36916e+06	-56139.1	1005.82	-29739.9	0.000000	0.000000	6.522943	-0.007618	NaN	0.000000	0.001709	0.001694	28.0818	0.061299	0.001894	32.367	-14.7343	-165.416	-0.032337	0.521493	-0.597544	-0.598858	-0.007618	32.367	-0.597367	-7.659486E+7	9.946098E-11	NaN
419	1.000000	0.530806	7.36916e+06	-56139.1	1005.82	-29739.9	0.000000	0.000000	6.530941	-0.014747	NaN	0.000000	0.001692	0.001706	28.0819	0.058952	0.002002	29.4461	32.1322	-170.145	0.049855	0.529483	-0.589546	-0.590869	-0.014747	29.4461	-0.589170	-5.905059E+7	2.497290E-10	NaN
419	1.000000	0.538845	7.36916e+06	-56139.1	1005.82	-29739.9	0.000000	0.000000	6.538984	0.058344	NaN	0.000000	0.001684	0.001658	28.0819	0.068842	0.001970	34.947	146.485	-169.222	-0.054483	0.537477	-0.581506	-0.582874	0.058344	34.947	-0.582758	-4.817133E+7	-1.211171E-9	NaN
419	1.000000	0.546827	7.36916e+06	-56139.1	1005.82	-29739.9	0.000000	0.000000	6.546960	-0.078440	NaN	0.000000	0.001702	0.001670	28.0808	0.062527	0.002024	30.8973	-44.363	-165.511	-0.008936	0.545484	-0.573524	-0.574868	-0.078440	30.8973	-0.571620	-3.380780E+7	2.320188E-9	NaN
419	1.000000	0.554786	7.36916e+06	-56139.1	1005.82	-29739.9	0.000000	0.000000	6.554923	0.020531	NaN	0.000000	0.001743	0.001687	28.0805	0.061909	0.002002	30.917	-88.1602	-167.035	0.002869	0.553527	-0.565566	-0.566824	0.020531	30.917	-0.566064	-2.832893E+7	-7.247444E-10	NaN
419	1.000000	0.562846	7.36916e+06	-56139.1	1005.82	-29739.9	0.000000	0.000000	6.562980	-0.042193	NaN	0.000000	0.001733	0.001674	28.0808	0.078469	0.001941	40.4209	85.0547	-167.635	-0.082517	0.561559	-0.557506	-0.558792	-0.042193	40.4209	-0.556723	-2.103937E+7	2.005408E-9	NaN
419	1.000000	0.570841	7.36916e+06	-56139.1	1005.82	-29739.9	0.000000	0.000000	6.570976	-0.019584	NaN	0.000000	0.001690	0.001660	28.0808	0.012409	0.002069	5.997733	-82.7522	-165.382	-0.043114	0.569541	-0.549511	-0.550811	-0.019584	5.997733	-0.547062	-1.546152E+7	1.266656E-9	NaN
419	1.000000	0.578836	7.36916e+06	-56139.1	1005.82	-29739.9	0.000000	0.000000	6.578970	-0.064306	NaN	0.000000	0.001676	0.001657	28.0806	0.124629	0.001973	63.1531	151.273	-165.626	-0.011448	0.577496	-0.541516	-0.542856	-0.064306	63.1531	-0.540752	-1.264110E+7	5.087083E-9	NaN
419	1.000000	0.586847	7.36916e+06	-56139.1	1005.82	-29739.9	0.000000	0.000000	6.586982	-0.026145	NaN	0.000000	0.001684	0.001661	28.0808	0.053642	0.001933	27.7551	-135.581	-166.021	-0.048128	0.585523	-0.533504	-0.534829	-0.026145	27.7551	-0.532798	-9.80442e+06	2.666631E-9	NaN
419	1.000000	0.594825	7.36916e+06	-56139.1	1005.82	-29739.9	0.000000	0.000000	6.594960	-0.034373	NaN	0.000000	0.001700	0.001649	28.0805	0.057783	0.002025	28.5303	116.642	-164.55	-0.000270	0.593561	-0.525527	-0.526791	-0.034373	28.5303	-0.524623	-7.54875e+06	4.553476E-9	NaN
419	1.000000	0.602835	7.36916e+06	-56139.1	1005.82	-29739.9	0.000000	0.000000	6.602972	0.018663	NaN	0.000000	0.001648	0.001638	28.0809	0.055922	0.002003	27.9158	-163.351	-164.826	0.005123	0.601502	-0.517516	-0.518850	0.018663	27.9158	-0.518018	-6.10976e+06	-3.054661E-9	NaN
419	1.000000	0.610852	7.36916e+06	-56139.1	1005.82	-29739.9	0.000000	0.000000	6.610988	-0.024877	NaN	0.000000	0.001686	0.001657	28.0805	0.030466	0.001944	15.6711	-75.3471	-164.953	-0.072296	0.609545	-0.509499	-0.510806	-0.024877	15.6711	-0.508308	-4.4756e+06	5.558399E-9	NaN
419	1.000000	0.618833	7.36916e+06	-56139.1	1005.82	-29739.9	0.000000	0.000000	6.618971	0.050673	NaN	0.000000	0.001698	0.001633	28.0805	0.031830	0.002009	15.8459	-151.599	-169.154	0.020301	0.617517	-0.501519	-0.502835	0.050673	15.8459	-0.503917	-3.88733e+06	-1.303548E-8	NaN
419	1.000000	0.626848	7.36916e+06	-56139.1	1005.82	-29739.9	0.000000	0.000000	6.626983	-0.027438	NaN	0.000000	0.001685	0.001631	28.0807	0.066591	0.001995	33.3862	20.2191	-170.689	-0.007052	0.625520	-0.493504	-0.494831	-0.027438	33.3862	-0.492887	-2.7273e+06	1.006060E-8	NaN
419	1.000000	0.634881	7.36916e+06	-56139.1	1005.82	-29739.9	0.000000	0.000000	6.635017	0.000616	NaN	0.000000	0.001674	0.001668	28.0805	0.063819	0.001904	33.5214	5.857399	-166.069	-0.039159	0.633593	-0.485470	-0.486758	0.000616	33.5214	-0.485484	-2.14913e+06	-2.864825E-10	NaN
419	1.000000	0.642840	7.36916e+06	-56139.1	1005.82	-29739.9	0.000000	0.000000	6.642977	0.003812	NaN	0.000000	0.001700	0.001666	28.081	0.026661	0.002036	13.0953	105.62	-160.478	0.015281	0.641589	-0.477511	-0.478762	0.003812	13.0953	-0.477729	-1.67392e+06	-2.277292E-9	NaN
419	1.000000	0.650874	7.36916e+06	-56139.1	1005.82	-29739.9	0.000000	0.000000	6.651008	-0.051992	NaN	0.000000	0.001739	0.001627	28.0805	0.032013	0.002021	15.8405	-174.351	-166.975	-0.005583	0.649517	-0.469478	-0.470835	-0.051992	15.8405	-0.467016	-1.18453e+06	4.389302E-8	NaN
419	1.000000	0.658886	7.36916e+06	-56139.1	1005.82	-29739.9	0.000000	0.000000	6.659023	0.016141	NaN	0.000000	0.001662	0.001651	28.0806	0.111320	0.001896	58.7095	-82.0205	-168.412	0.047448	0.657566	-0.461465	-0.462786	0.016141	58.7095	-0.461671	-996559	-1.619639E-8	NaN
419	1.000000	0.666871	7.36916e+06	-56139.1	1005.82	-29739.9	0.000000	0.000000	6.667007	-0.023089	NaN	0.000000	0.001625	0.001652	28.0807	0.043661	0.001991	21.9244	-63.853	-166.704	-0.085648	0.665586	-0.453480	-0.454766	-0.023089	21.9244	-0.452690	-745106	3.098757E-8	NaN
419	1.000000	0.674886	7.36916e+06	-56139.1	1005.82	-29739.9	0.000000	0.000000	6.675021	-0.040732	NaN	0.000000	0.001669	0.001635	28.0806	0.016424	0.002120	7.747298	21.4394	-164.588	-0.047209	0.673561	-0.445465	-0.446791	-0.040732	7.747298	-0.441522	-518610	7.854000E-8	NaN
419	1.000000	0.682879	7.36916e+06	-56139.1	1005.82	-29739.9	0.000000	0.000000	6.683015	-0.014737	NaN	0.000000	0.001634	0.001652	28.082	0.033103	0.002036	16.2579	116.362	-166.278	-0.022083	0.681571	-0.437473	-0.438781	-0.014737	16.2579	-0.436793	-444713	3.313800E-8	NaN
419	1.000000	0.690868	7.36916e+06	-56139.1	1005.82	-29739.9	0.000000	0.000000	6.691007	0.053120	NaN	0.000000	0.001657	0.001625	28.0819	0.111079	0.002081	53.373	118.816	-163.5	0.013603	0.689563	-0.429483	-0.430789	0.053120	53.373	-0.430230	-359179	-1.478942E-7	NaN
419	1.000000	0.698881	7.36916e+06	-56139.1	1005.82	-29739.9	0.000000	0.000000	6.699018	0.009313	NaN	0.000000	0.001638	0.001635	28.0821	0.085204	0.002056	41.4394	-166.584	-165.502	0.034507	0.697564	-0.421470	-0.422788	0.009313	41.4394	-0.421639	-271429	-3.431203E-8	NaN
419	1.000000	0.706885	7.36916e+06	-56139.1	1005.82	-29739.9	0.000000	0.000000	6.707021	-0.004598	NaN	0.000000	0.001611	0.001629	28.0821	0.055557	0.001961	28.3329	-160.328	-167.598	0.056120	0.705530	-0.413467	-0.414822	-0.004598	28.3329	-0.413345	-206990	2.221527E-8	NaN
419	1.000000	0.714897	7.36916e+06	-56139.1	1005.82	-29739.9	0.000000	0.000000	6.715034	0.012351	NaN	0.000000	0.001617	0.001615	28.0819	0.070766	0.001896	37.318	-62.7945	-168.187	0.123088	0.713570	-0.405454	-0.406781	0.012351	37.318	-0.405702	-161157	-7.664042E-8	NaN
419	1.000000	0.722898	7.36916e+06	-56139.1	1005.82	-29739.9	0.000000	0.000000	6.723033	-0.016395	NaN	0.000000	0.001628	0.001619	28.0822	0.074679	0.002047	36.4862	111.801	-167.681	-0.023892	0.721551	-0.397454	-0.398800	-0.016395	36.4862	-0.397117	-121579	1.348522E-7	NaN
419	1.000000	0.730896	7.36916e+06	-56139.1	1005.82	-29739.9	0.000000	0.000000	6.731034	0.043132	NaN	0.000000	0.001642	0.001641	28.0816	0.026085	0.001979	13.1792	0.398706	-165.952	0.027304	0.729627	-0.389455	-0.390724	0.043132	13.1792	-0.391910	-102442	-4.210331E-7	NaN
419	1.000000	0.738888	7.36916e+06	-56139.1	1005.82	-29739.9	0.000000	0.000000	6.739023	-0.029549	NaN	0.000000	0.001662	0.001659	28.082	0.160721	0.001914	83.957	83.4265	-166.048	-0.107542	0.737531	-0.381464	-0.382821	-0.029549	83.957	-0.381200	-71961.9	4.106140E-7	NaN
419	1.000000	0.746914	7.36916e+06	-56139.1	1005.82	-29739.9	0.000000	0.000000	6.747050	-0.006843	NaN	0.000000	0.001665	0.001636	28.082	0.130072	0.002048	63.5129	136.125	-163.022	-0.036691	0.745593	-0.373437	-0.374759	-0.006843	63.5129	-0.373356	-55518.3	1.232604E-7	NaN
419	1.000000	0.754908	7.36916e+06	-56139.1	1005.82	-29739.9	0.000000	0.000000	6.755043	-0.033200	NaN	0.000000	0.001652	0.001623	28.0819	0.027185	0.002191	12.4053	113.61	-166.369	0.035664	0.753575	-0.365444	-0.366777	-0.033200	12.4053	-0.363437	-39947.5	8.310823E-7	NaN
419	1.000000	0.762906	7.36916e+06	-56139.1	1005.82	-29739.9	0.000000	0.000000	6.763041	-0.034046	NaN	0.000000	0.001622	0.001640	28.0821	0.089035	0.002009	44.3226	-127.566	-167.701	0.008898	0.761624	-0.357445	-0.358727	-0.034046	44.3226	-0.356869	-32104.1	1.060490E-6	NaN
419	1.000000	0.770959	7.36916e+06	-56139.1	1005.82	-29739.9	0.000000	0.000000	6.771096	0.013565	NaN	0.000000	0.001631	0.001621	28.0821	0.047265	0.001793	26.365	36.8431	-166.432	0.059654	0.769614	-0.349392	-0.350738	0.013565	26.365	-0.349778	-25338.7	-5.353383E-7	NaN
419	1.000000	0.778910	7.36916e+06	-56139.1	1005.82	-29739.9	0.000000	0.000000	6.779047	0.017981	NaN	0.000000	0.001590	0.001638	28.082	0.089120	0.001940	45.9418	37.1466	-163.378	0.066300	0.777655	-0.341442	-0.342696	0.017981	45.9418	-0.341735	-19357.1	-9.288947E-7	NaN
419	1.000000	0.786916	7.36916e+06	-56139.1	1005.82	-29739.9	0.000000	0.000000	6.787053	0.005187	NaN	0.000000	0.001624	0.001643	28.0819	0.033222	0.002041	16.2814	139.282	-168.765	0.005544	0.785617	-0.333435	-0.334735	0.005187	16.2814	-0.333674	-14764.3	-3.513111E-7	NaN
419	1.000000	0.794961	7.36916e+06	-56139.1	1005.82	-29739.9	0.000000	0.000000	6.795097	0.009593	NaN	0.000000	0.001701	0.001612	28.0822	0.085179	0.002006	42.468	116.779	-167.537	0.059342	0.793653	-0.325391	-0.326698	0.009593	42.468	-0.325560	-11229.5	-8.542642E-7	NaN
419	1.000000	0.802952	7.36916e+06	-56139.1	1005.82	-29739.9	0.000000	0.000000	6.803088	-0.002952	NaN	0.000000	0.001730	0.001591	28.082	0.079762	0.002164	36.8506	14.3422	-167.271	0.036420	0.801639	-0.317399	-0.318713	-0.002952	36.8506	-0.317339	-8500.62	3.472630E-7	NaN
419	1.000000	0.810924	7.36916e+06	-56139.1	1005.82	-29739.9	0.000000	0.000000	6.811060	0.006985	NaN	0.000000	0.001684	0.001621	28.0823	0.084847	0.002008	42.2546	30.3719	-167.407	0.005054	0.809634	-0.309428	-0.310717	0.006985	42.2546	-0.309552	-6522.6	-1.070932E-6	NaN
419	1.000000	0.818938	7.36916e+06	-56139.1	1005.82	-29739.9	0.000000	0.000000	6.819073	-0.042281	NaN	0.000000	0.001728	0.001637	28.0811	0.092801	0.001901	48.8281	96.5829	-164.947	-0.049546	0.817641	-0.301413	-0.302711	-0.042281	48.8281	-0.300764	-4830.64	8.752611E-6	NaN
419	1.000000	0.826914	7.36916e+06	-56139.1	1005.82	-29739.9	0.000000	0.000000	6.827048	-0.046755	NaN	0.000000	0.001727	0.001642	28.0807	0.097760	0.001998	48.9299	-22.5167	-165.604	-0.014030	0.825647	-0.293438	-0.294704	-0.046755	48.9299	-0.292721	-3664.63	1.275840E-5	NaN
419	1.000000	0.834934	7.36916e+06	-56139.1	1005.82	-29739.9	0.000000	0.000000	6.835070	-0.002526	NaN	0.000000	0.001635	0.001649	28.0809	0.044402	0.002058	21.5708	126.976	-167.299	-0.037691	0.833556	-0.285418	-0.286796	-0.002526	21.5708	-0.285330	-2839.38	8.895524E-7	NaN
419	1.000000	0.842935	7.36916e+06	-56139.1	1005.82	-29739.9	0.000000	0.000000	6.843070	-0.038917	NaN	0.000000	0.001654	0.001630	28.0807	0.124889	0.002095	59.6139	54.4832	-168.473	-0.045339	0.841646	-0.277416	-0.278705	-0.038917	59.6139	-0.276927	-2121.05	1.834812E-5	NaN
419	1.000000	0.850942	7.36916e+06	-56139.1	1005.82	-29739.9	0.000000	0.000000	6.851077	-0.030520	NaN	0.000000	0.001638	0.001647	28.0808	0.057158	0.001995	28.6489	-96.0342	-168.251	0.008537	0.849656	-0.269409	-0.270695	-0.030520	28.6489	-0.268610	-1586.38	1.923852E-5	NaN
419	1.000000	0.858960	7.36916e+06	-56139.1	1005.82	-29739.9	0.000000	0.000000	6.859094	-0.047850	NaN	0.000000	0.001653	0.001608	28.0811	0.030244	0.002031	14.8894	59.492	-169.086	-0.015649	0.857668	-0.261391	-0.262684	-0.047850	14.8894	-0.258981	-1130.56	4.232452E-5	NaN
419	1.000000	0.866972	7.36916e+06	-56139.1	1005.82	-29739.9	0.000000	0.000000	6.867108	-0.010895	NaN	0.000000	0.001666	0.001637	28.0809	0.045684	0.001825	25.0332	-164.072	-164.004	0.016406	0.865686	-0.253379	-0.254665	-0.010895	25.0332	-0.253053	-916.457	1.188801E-5	NaN
419	1.000000	0.874943	7.36916e+06	-56139.1	1005.82	-29739.9	0.000000	0.000000	6.875079	-0.010142	NaN	0.000000	0.001618	0.001625	28.0813	0.014578	0.001913	7.619067	70.5694	-164.504	0.054165	0.873679	-0.245408	-0.246673	-0.010142	7.619067	-0.244410	-673.404	1.506048E-5	NaN
419	1.000000	0.882981	7.36916e+06	-56139.1	1005.82	-29739.9	0.000000	0.000000	6.883117	0.013456	NaN	0.000000	0.001590	0.001655	28.0807	0.052845	0.002046	25.8284	4.577165	-162.338	-0.019015	0.881644	-0.237371	-0.238708	0.013456	25.8284	-0.237762	-530.333	-2.537260E-5	NaN
419	1.000000	0.890960	7.36916e+06	-56139.1	1005.82	-29739.9	0.000000	0.000000	6.891097	0.035479	NaN	0.000000	0.001598	0.001694	28.0809	0.143706	0.002086	68.8845	-17.6903	-166.508	0.000411	0.889682	-0.229392	-0.230669	0.035479	68.8845	-0.229778	-397.205	-8.932257E-5	NaN
419	1.000000	0.898964	7.36916e+06	-56139.1	1005.82	-29739.9	0.000000	0.000000	6.899110	0.219662	NaN	0.000000	0.001645	0.001634	28.081	0.076715	0.002016	38.0463	-7.075359	-166.218	0.213535	0.897697	-0.221387	-0.222655	0.219662	38.0463	-0.225717	-342.549	-0.000641	NaN
419	1.000000	0.906949	7.36916e+06	-56139.1	1005.82	-29739.9	0.000000	0.000000	6.907097	0.293471	NaN	0.000000	0.001653	0.001691	28.0809	0.174749	0.001969	88.7567	21.8091	-167.796	0.227184	0.905647	-0.213402	-0.214705	0.293471	88.7567	-0.215882	-238.615	-0.001230	NaN
419	1.000000	0.914972	7.36916e+06	-56139.1	1005.82	-29739.9	0.000000	0.000000	6.915125	0.402042	NaN	0.000000	0.001672	0.001643	28.0813	0.213059	0.001897	112.327	4.454719	-163.544	0.407501	0.913686	-0.205379	-0.206665	0.402042	112.327	-0.208064	-178.409	-0.002253	NaN
419	1.000000	0.922988	7.36916e+06	-56139.1	1005.82	-29739.9	0.000000	0.000000	6.923151	0.651255	NaN	0.000000	0.001680	0.001641	28.0808	0.192814	0.001915	100.673	13.0076	-169.048	0.631326	0.921686	-0.197364	-0.198666	0.651255	100.673	-0.202216	-143.235	-0.004547	NaN
419	1.000000	0.930978	7.36916e+06	-56139.1	1005.82	-29739.9	0.000000	0.000000	6.931154	0.956778	NaN	0.000000	0.001678	0.001649	28.081	0.368319	0.001954	188.512	15.1431	-167.149	0.844299	0.929662	-0.189373	-0.190690	0.956778	188.512	-0.193180	-101.625	-0.009415	NaN
419	1.000000	0.938995	7.36916e+06	-56139.1	1005.82	-29739.9	0.000000	0.000000	6.939177	1.132281	NaN	0.000000	0.001680	0.001664	28.0808	0.367682	0.002062	178.288	14.0536	-169.276	1.100323	0.937632	-0.181357	-0.182720	1.132281	178.288	-0.186120	-77.4447	-0.014621	NaN
419	1.000000	0.947019	7.36916e+06	-56139.1	1005.82	-29739.9	0.000000	0.000000	6.947211	1.337302	NaN	0.000000	0.001683	0.001626	28.0808	0.373626	0.001860	200.883	6.230080	-167.093	1.272633	0.945650	-0.173332	-0.174701	1.337302	200.883	-0.178325	-57.1377	-0.023405	NaN
419	1.000000	0.954998	7.36916e+06	-56139.1	1005.82	-29739.9	0.000000	0.000000	6.955195	1.474463	NaN	0.000000	0.001658	0.001639	28.0821	0.365259	0.002044	178.697	1.389316	-167.243	1.446350	0.953677	-0.165353	-0.166675	1.474463	178.697	-0.171541	-43.6854	-0.033752	NaN
419	1.000000	0.962976	7.36916e+06	-56139.1	1005.82	-29739.9	0.000000	0.000000	6.963179	1.616697	NaN	0.000000	0.001702	0.001687	28.0821	0.497196	0.001833	271.289	9.893357	-169.569	1.598065	0.961683	-0.157376	-0.158669	1.616697	271.289	-0.161845	-29.5597	-0.054693	NaN
419	1.000000	0.970981	7.36916e+06	-56139.1	1005.82	-29739.9	0.000000	0.000000	6.971193	1.831453	NaN	0.000000	0.001611	0.001656	28.0832	0.562816	0.002010	279.955	19.7466	-167.348	1.748711	0.969659	-0.149371	-0.150692	1.831453	279.955	-0.154277	-21.655	-0.084574	NaN
419	1.000000	0.978988	7.36916e+06	-56139.1	1005.82	-29739.9	0.000000	0.000000	6.979211	2.111654	NaN	0.000000	0.001668	0.001683	28.0823	0.760304	0.001973	385.358	17.9074	-167.895	2.070146	0.977626	-0.141364	-0.142726	2.111654	385.358	-0.145474	-14.9597	-0.141157	NaN
419	1.000000	0.987019	7.36916e+06	-56139.1	1005.82	-29739.9	0.000000	0.000000	6.987259	2.530163	NaN	0.000000	0.001696	0.001623	28.0822	0.750270	0.001987	377.499	12.0369	-167.872	2.495953	0.985692	-0.133332	-0.134659	2.530163	377.499	-0.138359	-11.0171	-0.229658	NaN
419	1.000000	0.994990	7.36916e+06	-56139.1	1005.82	-29739.9	0.000000	0.000000	6.995249	2.985530	NaN	0.000000	0.001687	0.001626	28.0822	1.004138	0.002059	487.641	19.7652	-167.926	2.876320	0.993656	-0.125362	-0.126695	2.985530	487.641	-0.129954	-7.605220	-0.392563	NaN
419	1.000000	1.003008	7.36916e+06	-56139.1	1005.82	-29739.9	0.000000	0.000000	7.003283	3.382176	NaN	0.000000	0.001703	0.001616	28.082	1.002263	0.001896	528.608	10.4725	-166.948	3.400124	1.001692	-0.117344	-0.118659	3.382176	528.608	-0.122142	-5.335012	-0.633959	NaN
419	1.000000	1.011006	7.36916e+06	-56139.1	1005.82	-29739.9	0.000000	0.000000	7.011300	3.837373	NaN	0.000000	0.001726	0.001657	28.0829	1.145065	0.002057	556.537	10.9822	-166.342	3.908687	1.009694	-0.109346	-0.110658	3.837373	556.537	-0.114517	-3.733719	-1.027762	NaN
419	1.000000	1.019016	7.36916e+06	-56139.1	1005.82	-29739.9	0.000000	0.000000	7.019333	4.383114	NaN	0.000000	0.001718	0.001633	28.0822	1.279227	0.001957	653.764	12.5977	-169.726	4.382032	1.017704	-0.101335	-0.102648	4.383114	653.764	-0.106364	-2.514950	-1.742823	NaN
419	1.000000	1.027040	7.36916e+06	-56139.1	1005.82	-29739.9	0.000000	0.000000	7.027387	5.124919	NaN	0.000000	0.001698	0.001658	28.082	1.507868	0.002042	738.605	13.6715	-165.318	4.998309	1.025716	-0.093312	-0.094636	5.124919	738.605	-0.098516	-1.693307	-3.026574	NaN
419	1.000000	1.035022	7.36916e+06	-56139.1	1005.82	-29739.9	0.000000	0.000000	7.035406	6.033236	NaN	0.000000	0.001698	0.001637	28.0821	1.581047	0.002056	768.837	16.8229	-168.473	5.868591	1.033727	-0.085330	-0.086625	6.033236	768.837	-0.091215	-1.154044	-5.227906	NaN
419	1.000000	1.043029	7.36916e+06	-56139.1	1005.82	-29739.9	0.000000	0.000000	7.043440	6.687009	NaN	0.000000	0.001701	0.001657	28.082	1.656559	0.001948	850.216	14.3792	-167.462	6.665892	1.041722	-0.077323	-0.078629	6.687009	850.216	-0.083222	-0.743686	-8.991711	NaN
419	1.000000	1.051059	7.36916e+06	-56139.1	1005.82	-29739.9	0.000000	0.000000	7.051506	7.564116	NaN	0.000000	0.001707	0.001602	28.0824	1.939248	0.001951	994.074	13.5214	-164.651	7.483414	1.049750	-0.069293	-0.070601	7.564116	994.074	-0.074999	-0.461856	-16.3777	NaN
419	1.000000	1.059016	7.36916e+06	-56139.1	1005.82	-29739.9	0.000000	0.000000	7.059504	8.540048	NaN	0.000000	0.001723	0.001706	28.0822	2.254083	0.001943	1160.03	10.9566	-168.846	8.434418	1.057694	-0.061335	-0.062658	8.540048	1160.03	-0.066857	-0.280382	-30.4586	NaN
419	2.000000	1.065601	7.36916e+06	-56139.1	1005.82	-29739.9	0.000000	0.000000	7.066091	8.596771	NaN	0.000000	0.001734	0.001639	28.0823	2.537104	0.002068	1226.92	15.6136	-168.528	8.967092	1.065158	-0.054750	-0.055194	8.596771	1226.92	-0.060005	-0.180157	-47.7181	NaN
419	2.000000	1.067568	7.36916e+06	-56139.1	1005.82	-29739.9	0.000000	0.000000	7.068041	8.185049	NaN	0.000000	0.001721	0.001614	28.0821	2.667071	0.002076	1284.56	9.556861	-165.351	8.112311	1.067218	-0.052784	-0.053133	8.185049	1284.56	-0.057563	-0.153122	-53.4544	NaN
419	2.000000	1.069564	7.36916e+06	-56139.1	1005.82	-29739.9	0.000000	0.000000	7.070040	8.261726	NaN	0.000000	0.001759	0.001632	28.0821	2.560737	0.001999	1280.81	8.873103	-165.647	8.291440	1.069204	-0.050788	-0.051147	8.261726	1280.81	-0.055625	-0.134367	-61.4865	NaN
419	2.000000	1.071509	7.36916e+06	-56139.1	1005.82	-29739.9	0.000000	0.000000	7.072003	8.695217	NaN	0.000000	0.001722	0.001659	28.081	2.791706	0.001994	1400.34	14.8332	-169.585	8.570070	1.071245	-0.048842	-0.049107	8.695217	1400.34	-0.053499	-0.116226	-74.8128	NaN
419	2.000000	1.073501	7.36916e+06	-56139.1	1005.82	-29739.9	0.000000	0.000000	7.074003	8.887692	NaN	0.000000	0.001801	0.001641	28.0806	2.994104	0.001950	1535.42	12.0032	-169.013	8.846952	1.073216	-0.046851	-0.047136	8.887692	1535.42	-0.051192	-0.099131	-89.6559	NaN
419	2.000000	1.075509	7.36916e+06	-56139.1	1005.82	-29739.9	0.000000	0.000000	7.076025	9.245196	NaN	0.000000	0.001750	0.001647	28.081	3.115081	0.002128	1463.59	12.5108	-168.556	9.151448	1.075183	-0.044843	-0.045169	9.245196	1463.59	-0.049581	-0.088622	-104.322	NaN
419	2.000000	1.077521	7.36916e+06	-56139.1	1005.82	-29739.9	0.000000	0.000000	7.078048	9.493180	NaN	0.000000	0.001737	0.001628	28.0808	3.141168	0.002007	1564.79	11.7012	-167.996	9.479609	1.077213	-0.042831	-0.043139	9.493180	1564.79	-0.047381	-0.075980	-124.943	NaN
419	2.000000	1.079479	7.36916e+06	-56139.1	1005.82	-29739.9	0.000000	0.000000	7.080022	9.875308	NaN	0.000000	0.001745	0.001633	28.0809	3.364511	0.002056	1636.65	14.4515	-170.156	9.882607	1.079212	-0.040872	-0.041140	9.875308	1636.65	-0.045398	-0.066093	-149.416	NaN
419	2.000000	1.081493	7.36916e+06	-56139.1	1005.82	-29739.9	0.000000	0.000000	7.082050	10.2179	NaN	0.000000	0.001737	0.001637	28.0807	3.249545	0.002180	1490.67	13.5264	-169	10.1901	1.081169	-0.038858	-0.039183	10.2179	1490.67	-0.043999	-0.059893	-170.601	NaN
419	2.000000	1.083498	7.36916e+06	-56139.1	1005.82	-29739.9	0.000000	0.000000	7.084066	10.5098	NaN	0.000000	0.001708	0.001697	28.0808	3.416270	0.001960	1742.77	13.4665	-170.965	10.617	1.083214	-0.036854	-0.037138	10.5098	1742.77	-0.041377	-0.049803	-211.028	NaN
419	2.000000	1.085463	7.36916e+06	-56139.1	1005.82	-29739.9	0.000000	0.000000	7.086044	10.8246	NaN	0.000000	0.001702	0.001672	28.0811	3.445965	0.001918	1796.4	9.477587	-167.992	10.6732	1.085171	-0.034889	-0.035180	10.8246	1796.4	-0.039408	-0.043390	-249.474	NaN
419	2.000000	1.087463	7.36916e+06	-56139.1	1005.82	-29739.9	0.000000	0.000000	7.088054	11.0581	NaN	0.000000	0.001682	0.001640	28.0808	3.589790	0.002082	1724.08	15.2446	-170.988	10.9376	1.087150	-0.032889	-0.033202	11.0581	1724.08	-0.037699	-0.038532	-286.982	NaN
419	2.000000	1.089506	7.36916e+06	-56139.1	1005.82	-29739.9	0.000000	0.000000	7.090104	11.2064	NaN	0.000000	0.001704	0.001670	28.0811	3.701145	0.002013	1838.43	14.2356	-171.311	11.1976	1.089107	-0.030845	-0.031244	11.2064	1838.43	-0.035417	-0.032945	-340.159	NaN
419	2.000000	1.091483	7.36916e+06	-56139.1	1005.82	-29739.9	0.000000	0.000000	7.092097	11.617	NaN	0.000000	0.001701	0.001703	28.0809	3.747454	0.001985	1888.26	11.7374	-170.072	11.7185	1.091130	-0.028869	-0.029222	11.617	1888.26	-0.033483	-0.028914	-401.778	NaN
419	2.000000	1.093475	7.36916e+06	-56139.1	1005.82	-29739.9	0.000000	0.000000	7.094100	11.869	NaN	0.000000	0.001682	0.001673	28.0809	4.056815	0.002027	2001.55	12.5993	-169.537	11.9728	1.093177	-0.026876	-0.027174	11.869	2001.55	-0.031324	-0.025071	-473.419	NaN
419	2.000000	1.095476	7.36916e+06	-56139.1	1005.82	-29739.9	0.000000	0.000000	7.096107	12.0314	NaN	0.000000	0.001694	0.001692	28.0809	3.931253	0.002009	1956.83	13.7118	-170.175	12.1821	1.095180	-0.024876	-0.025171	12.0314	1956.83	-0.029487	-0.022270	-540.252	NaN
419	2.000000	1.097459	7.36916e+06	-56139.1	1005.82	-29739.9	0.000000	0.000000	7.098104	12.3644	NaN	0.000000	0.001656	0.001678	28.0808	4.134970	0.001920	2153.4	12.3466	-168.127	12.406	1.097174	-0.022892	-0.023178	12.3644	2153.4	-0.027199	-0.019290	-640.972	NaN
419	2.000000	1.099469	7.36916e+06	-56139.1	1005.82	-29739.9	0.000000	0.000000	7.100122	12.545	NaN	0.000000	0.001681	0.001687	28.081	4.499686	0.002187	2057.01	18.3277	-171.392	12.4825	1.099126	-0.020882	-0.021225	12.545	2057.01	-0.025456	-0.017341	-723.439	NaN
419	2.000000	1.101497	7.36916e+06	-56139.1	1005.82	-29739.9	0.000000	0.000000	7.102167	12.9949	NaN	0.000000	0.001692	0.001632	28.0808	4.489718	0.002075	2164.22	12.6073	-167.92	13.1901	1.101123	-0.018855	-0.019229	12.9949	2164.22	-0.023358	-0.015297	-849.509	NaN
419	2.000000	1.103462	7.36916e+06	-56139.1	1005.82	-29739.9	0.000000	0.000000	7.104147	13.3291	NaN	0.000000	0.001689	0.001668	28.081	5.031615	0.002001	2514.4	15.3151	-171.415	13.2776	1.103180	-0.016890	-0.017171	13.3291	2514.4	-0.020865	-0.013213	-1008.75	NaN
419	2.000000	1.105438	7.36916e+06	-56139.1	1005.82	-29739.9	0.000000	0.000000	7.106170	14.4774	NaN	0.000000	0.001695	0.001647	28.082	6.003085	0.001849	3247.06	9.751996	-167.681	14.2554	1.105130	-0.014913	-0.015221	14.4774	3247.06	-0.018257	-0.011335	-1277.23	NaN
419	2.000000	1.107452	7.36916e+06	-56139.1	1005.82	-29739.9	0.000000	0.000000	7.108283	16.8782	NaN	0.000000	0.001694	0.001673	28.0819	8.223312	0.001738	4730.93	11.6782	-175.136	16.8192	1.107126	-0.012899	-0.013225	16.8782	4730.93	-0.015575	-0.009623	-1754	NaN
419	2.000000	1.109439	7.36916e+06	-56139.1	1005.82	-29739.9	0.000000	0.000000	7.110338	18.5329	NaN	0.000000	0.001680	0.001673	28.0824	10.1698	0.001909	5326.44	13.6008	-176.242	18.3285	1.109155	-0.010912	-0.011196	18.5329	5326.44	-0.013522	-0.008404	-2205.19	NaN
419	2.000000	1.111446	7.36916e+06	-56139.1	1005.82	-29739.9	0.000000	0.000000	7.112433	20.6946	NaN	0.000000	0.001674	0.001682	28.0821	12.1476	0.001940	6260.81	13.0387	-177.662	20.4342	1.111172	-0.008906	-0.009180	20.6946	6260.81	-0.011385	-0.007177	-2883.29	NaN
419	2.000000	1.113408	7.36916e+06	-56139.1	1005.82	-29739.9	0.000000	0.000000	7.114511	23.5104	NaN	0.000000	0.001686	0.001665	28.0822	13.7632	0.001762	7810.68	7.017342	-172.9	23.2675	1.113183	-0.006944	-0.007169	23.5104	7810.68	-0.009201	-0.005929	-3965.32	NaN
419	2.000000	1.115472	7.36916e+06	-56139.1	1005.82	-29739.9	0.000000	0.000000	7.116672	25.8635	NaN	0.000000	0.001681	0.001648	28.0824	16.1428	0.001863	8664.11	8.311238	-175.044	25.7811	1.115143	-0.004880	-0.005208	25.8635	8664.11	-0.007119	-0.004711	-5489.69	NaN
419	2.000000	1.117436	7.36916e+06	-56139.1	1005.82	-29739.9	0.000000	0.000000	7.118794	29.6858	NaN	0.000000	0.001678	0.001653	28.0821	17.7371	0.001772	10008.1	6.095641	-174.545	29.455	1.117100	-0.002915	-0.003252	29.6858	10008.1	-0.005140	-0.003504	-8471.32	NaN
419	2.000000	1.119411	7.36916e+06	-56139.1	1005.82	-29739.9	0.000000	0.000000	7.120911	33.1356	NaN	0.000000	0.001664	0.001646	28.0824	20.9396	0.001894	11053.2	7.509391	-176.741	32.4571	1.119111	-0.000940	-0.001240	33.1356	11053.2	-0.003189	-0.002246	-14751	NaN
419	2.000000	1.121460	7.36916e+06	-56139.1	1005.82	-29739.9	0.000000	0.000000	7.123124	37.1152	NaN	0.000000	0.001672	0.001645	28.0822	22.3698	0.001806	12385.9	11.1074	178.058	38.1521	1.121133	0.001109	0.000781	37.1152	12385.9	-0.001139	-0.000833	-44580.5	NaN
419	2.000000	1.123432	7.36916e+06	-56139.1	1005.82	-29739.9	0.000000	0.000000	7.125191	39.4324	NaN	0.000000	0.001681	0.001631	28.0825	25.1872	0.001939	12987.1	10.4723	179.091	39.3577	1.123166	0.003081	0.002815	39.4324	12987.1	0.000804	0.000610	64642	480415
419	2.000000	1.125459	7.36916e+06	-56139.1	1005.82	-29739.9	0.000000	0.000000	7.127484	45.9264	NaN	0.000000	0.001670	0.001683	28.0827	26.762	0.001784	15003.3	7.097430	-179.653	46.2507	1.125087	0.005107	0.004735	45.9264	15003.3	0.002811	0.002222	20671.5	290815
419	2.000000	1.127367	7.36916e+06	-56139.1	1005.82	-29739.9	0.000000	0.000000	7.129631	51.7169	NaN	0.000000	0.001680	0.001697	28.0821	28.0596	0.001761	15931.4	7.745498	178.858	50.1022	1.127059	0.007015	0.006707	51.7169	15931.4	0.004581	0.003754	13777	237568
419	2.000000	1.129413	7.36916e+06	-56139.1	1005.82	-29739.9	0.000000	0.000000	7.131853	56.0075	NaN	0.000000	0.001713	0.001672	28.0825	30.1358	0.001727	17454.2	4.639146	-178.742	55.577	1.129079	0.009061	0.008728	56.0075	17454.2	0.006655	0.005695	9834.94	211317
419	2.000000	1.131389	7.36916e+06	-56139.1	1005.82	-29739.9	0.000000	0.000000	7.134120	63.0795	NaN	0.000000	0.001662	0.001687	28.0822	31.5866	0.001767	17878.3	4.314177	-178.136	61.5673	1.131096	0.011037	0.010744	63.0795	17878.3	0.008391	0.007448	8469.86	189275
419	2.000000	1.133417	7.36916e+06	-56139.1	1005.82	-29739.9	0.000000	0.000000	7.136231	65.0731	NaN	0.000000	0.001677	0.001678	28.0826	34.2617	0.001790	19145.6	5.500420	179.067	65.7913	1.133110	0.013066	0.012758	65.0731	19145.6	0.010517	0.009761	6666.43	177047
419	2.000000	1.135397	7.36916e+06	-56139.1	1005.82	-29739.9	0.000000	0.000000	7.138511	72.3827	NaN	0.000000	0.001680	0.001656	28.0825	36.0434	0.001796	20069.8	5.958062	178.102	70.857	1.135138	0.015046	0.014786	72.3827	20069.8	0.012341	0.011901	6082.03	168083
419	2.000000	1.137409	7.36916e+06	-56139.1	1005.82	-29739.9	0.000000	0.000000	7.140879	81.0368	NaN	0.000000	0.001704	0.001667	28.0823	37.6705	0.001719	21909.8	5.236837	178.658	82.4124	1.137114	0.017058	0.016762	81.0368	21909.8	0.014284	0.014342	5650.24	167149
419	2.000000	1.139414	7.36916e+06	-56139.1	1005.82	-29739.9	0.000000	0.000000	7.143156	87.6493	NaN	0.000000	0.001667	0.001668	28.0818	41.1142	0.001938	21213.9	6.149803	178.371	86.2087	1.139022	0.019062	0.018671	87.6493	21213.9	0.015963	0.016591	5282.8	150471
419	2.000000	1.141371	7.36916e+06	-56139.1	1005.82	-29739.9	0.000000	0.000000	7.145541	98.0333	NaN	0.000000	0.001661	0.001713	28.0809	41.453	0.001653	25084	5.288760	176.877	96.1679	1.141018	0.021020	0.020667	98.0333	25084	0.018089	0.019627	4994.72	163583
419	2.000000	1.143376	7.36916e+06	-56139.1	1005.82	-29739.9	0.000000	0.000000	7.147765	103.356	NaN	0.000000	0.001672	0.001698	28.0809	44.2074	0.001686	26224.9	2.662731	178.751	102.576	1.143053	0.023025	0.022701	103.356	26224.9	0.020069	0.022651	4562.99	159201
419	2.000000	1.145395	7.36916e+06	-56139.1	1005.82	-29739.9	0.000000	0.000000	7.150085	110.675	NaN	0.000000	0.001737	0.001686	28.0809	47.2032	0.001778	26549.2	5.425430	175.915	108.419	1.145079	0.025044	0.024727	110.675	26549.2	0.021917	0.025645	4315.63	151468
419	2.000000	1.147387	7.36916e+06	-56139.1	1005.82	-29739.9	0.000000	0.000000	7.152358	117.521	NaN	0.000000	0.001652	0.001697	28.0808	49.5713	0.001939	25558.9	8.392674	173.41	117.914	1.147104	0.027035	0.026753	117.521	25558.9	0.023587	0.028495	4124.26	138335
419	2.000000	1.149338	7.36916e+06	-56139.1	1005.82	-29739.9	0.000000	0.000000	7.154711	127.298	NaN	0.000000	0.001637	0.001705	28.0813	50.2621	0.001749	28739.5	4.271232	176.745	124.599	1.149068	0.028986	0.028717	127.298	28739.5	0.025664	0.032235	3949.06	146247
419	2.000000	1.151372	7.36916e+06	-56139.1	1005.82	-29739.9	0.000000	0.000000	7.157095	135.798	NaN	0.000000	0.001744	0.001686	28.0809	51.8348	0.001735	29869.3	4.441993	175.619	135.151	1.151103	0.031021	0.030752	135.798	29869.3	0.027611	0.035937	3778.78	143955
419	2.000000	1.153374	7.36916e+06	-56139.1	1005.82	-29739.9	0.000000	0.000000	7.159514	145.933	NaN	0.000000	0.001780	0.001686	28.0811	54.0071	0.001722	31364.9	5.293895	174.869	143.786	1.153003	0.033022	0.032651	145.933	31364.9	0.029533	0.039781	3668.38	143674
419	2.000000	1.155410	7.36916e+06	-56139.1	1005.82	-29739.9	0.000000	0.000000	7.161991	156.652	NaN	0.000000	0.001768	0.001650	28.081	56.2367	0.001778	31625.9	5.034045	175.477	156.306	1.155046	0.035059	0.034694	156.652	31625.9	0.031344	0.043575	3594.97	138419
419	2.000000	1.157382	7.36916e+06	-56139.1	1005.82	-29739.9	0.000000	0.000000	7.164345	165.942	NaN	0.000000	0.001747	0.001662	28.0811	57.7126	0.001799	32083.5	5.562212	175.262	165.694	1.156961	0.037031	0.036610	165.942	32083.5	0.033152	0.047530	3491.33	134453
419	2.000000	1.159425	7.36916e+06	-56139.1	1005.82	-29739.9	0.000000	0.000000	7.166658	172.488	NaN	0.000000	0.001746	0.001674	28.0812	60.7841	0.001899	32004.1	3.787491	176.246	173.166	1.159091	0.039074	0.038739	172.488	32004.1	0.035032	0.051820	3328.59	128449
419	2.000000	1.161374	7.36916e+06	-56139.1	1005.82	-29739.9	0.000000	0.000000	7.169036	182.91	NaN	0.000000	0.001725	0.001670	28.0811	60.7979	0.001698	35806.4	3.730077	175.177	182.407	1.161116	0.041023	0.040765	182.91	35806.4	0.037192	0.056972	3210.53	137058
419	2.000000	1.163339	7.36916e+06	-56139.1	1005.82	-29739.9	0.000000	0.000000	7.171380	192.142	NaN	0.000000	0.001732	0.001654	28.0811	64.7506	0.001830	35387.1	4.722582	173.947	190.361	1.163050	0.042987	0.042698	192.142	35387.1	0.038915	0.061254	3136.79	130632