File: remote_trans/data/nanoindenter/0828-1/data/Data_2025-08-06,11h17m57s/2025-07-22_16-23-58_1_807.txt
2025-07-22, 16:23:58, 1
Index	Phase	Displacement	Time	Pos X	Pos Y	Pos Z	Rot A	Rot B	Piezo Z	Force A	Force B	Gripper	Voltage A	Voltage B	Temperature	Amplitude force	Amplitude pos	Stiffness	Phase shift	Phase excitation	Force A raw	Displacement raw	HMax	HMax raw	Real Force	Real Stiffness	Contact Depth	Area	Hardness	Reduced Mod.
[#]	[#]	[um]	[s]	[um]	[um]	[um]	[m°]	[m°]	[um]	[uN]	[uN]	[V]	[V]	[V]	[°C]	[uN]	[um]	[N/m]	[°]	[°]	[uN]	[um]	[um]	[um]	[uN]	[N/m]	[um]	[um^2]	[MPa]	[MPa]
807	1.000000	0.002028	7.37295e+06	-40489.1	1055.82	-29789.8	0.000000	0.000000	6.002801	0.033071	NaN	0.000000	0.001661	0.001753	28.0836	0.022105	0.001042	21.2238	172.04	-170.964	0.001119	0.000713	-1.114024	-1.115339	0.033071	21.2238	-1.115192	-8.016155E+14	-4.125545E-17	NaN
807	1.000000	0.012110	7.37295e+06	-40489.1	1055.82	-29789.8	0.000000	0.000000	6.012884	0.037912	NaN	0.000000	0.001676	0.001697	28.0833	0.042234	0.001181	35.7756	-109.303	16.2803	0.049296	0.010675	-1.103942	-1.105377	0.037912	35.7756	-1.104736	-5.802895E+14	-6.533365E-17	NaN
807	1.000000	0.021975	7.37295e+06	-40489.1	1055.82	-29789.8	0.000000	0.000000	6.022745	-0.026854	NaN	0.000000	0.001627	0.001728	28.0834	0.092579	0.001678	55.1752	-133.9	-164.325	-0.033751	0.020621	-1.094077	-1.095431	-0.026854	55.1752	-1.093712	-4.127188E+14	6.506693E-17	NaN
807	1.000000	0.031978	7.37295e+06	-40489.1	1055.82	-29789.8	0.000000	0.000000	6.032750	0.001707	NaN	0.000000	0.001610	0.001750	28.0834	0.084215	0.001787	47.1382	69.9743	14.868	0.083740	0.030625	-1.084074	-1.085427	0.001707	47.1382	-1.084101	-3.066166E+14	-5.566235E-18	NaN
807	1.000000	0.041975	7.37295e+06	-40489.1	1055.82	-29789.8	0.000000	0.000000	6.042746	-0.005632	NaN	0.000000	0.001592	0.001738	28.0835	0.076503	0.002110	36.2512	-177.781	-165.28	-0.008898	0.040634	-1.074077	-1.075418	-0.005632	36.2512	-1.073961	-2.240779E+14	2.513436E-17	NaN
807	1.000000	0.051968	7.37295e+06	-40489.1	1055.82	-29789.8	0.000000	0.000000	6.052738	-0.028881	NaN	0.000000	0.001625	0.001779	28.0835	0.064709	0.001937	33.4106	-30.0618	11.2196	0.000907	0.050607	-1.064084	-1.065445	-0.028881	33.4106	-1.063436	-1.618048E+14	1.784925E-16	NaN
807	1.000000	0.062002	7.37295e+06	-40489.1	1055.82	-29789.8	0.000000	0.000000	6.062774	-0.014212	NaN	0.000000	0.001597	0.001713	28.0833	0.033493	0.002134	15.6983	142.121	-166.155	-0.002290	0.060653	-1.054049	-1.055399	-0.014212	15.6983	-1.053370	-1.185005E+14	1.199354E-16	NaN
807	1.000000	0.072010	7.37295e+06	-40489.1	1055.82	-29789.8	0.000000	0.000000	6.072780	-0.037514	NaN	0.000000	0.001599	0.001727	28.0835	0.119392	0.001847	64.6237	37.877	14.327	0.017833	0.070635	-1.044042	-1.045417	-0.037514	64.6237	-1.043607	-8.759168E+13	4.282795E-16	NaN
807	1.000000	0.081984	7.37295e+06	-40489.1	1055.82	-29789.8	0.000000	0.000000	6.082757	0.016302	NaN	0.000000	0.001600	0.001761	28.0834	0.080088	0.002090	38.3202	162.185	-164.908	0.042015	0.080702	-1.034068	-1.035350	0.016302	38.3202	-1.034387	-6.583856E+13	-2.476116E-16	NaN
807	1.000000	0.091995	7.37295e+06	-40489.1	1055.82	-29789.8	0.000000	0.000000	6.092768	0.019261	NaN	0.000000	0.001624	0.001696	28.0836	0.020688	0.002011	10.2891	-87.0957	13.8627	-0.051605	0.090653	-1.024057	-1.025399	0.019261	10.2891	-1.025461	-4.993709E+13	-3.857148E-16	NaN
807	1.000000	0.102020	7.37295e+06	-40489.1	1055.82	-29789.8	0.000000	0.000000	6.102792	0.000157	NaN	0.000000	0.001574	0.001716	28.0836	0.124064	0.001944	63.8199	-163.458	-167.627	-0.033717	0.100723	-1.014032	-1.015328	0.000157	63.8199	-1.014034	-3.504861E+13	-4.475545E-18	NaN
807	1.000000	0.112029	7.37295e+06	-40489.1	1055.82	-29789.8	0.000000	0.000000	6.112803	0.048549	NaN	0.000000	0.001615	0.001715	28.0836	0.029162	0.002012	14.491	159.563	11.5645	-0.005666	0.110567	-1.004023	-1.005485	0.048549	14.491	-1.006535	-2.778094E+13	-1.747557E-15	NaN
807	1.000000	0.121977	7.37295e+06	-40489.1	1055.82	-29789.8	0.000000	0.000000	6.122750	0.011240	NaN	0.000000	0.001616	0.001725	28.0833	0.088533	0.001978	44.7581	151.81	-168.455	-0.009357	0.120676	-0.994074	-0.995376	0.011240	44.7581	-0.994263	-1.898976E+13	-5.919102E-16	NaN
807	1.000000	0.132017	7.37295e+06	-40489.1	1055.82	-29789.8	0.000000	0.000000	6.132790	0.024280	NaN	0.000000	0.001598	0.001682	28.0821	0.110862	0.002017	54.9644	168.962	15.8189	-0.011207	0.130607	-0.984035	-0.985444	0.024280	54.9644	-0.984366	-1.397094E+13	-1.737892E-15	NaN
807	1.000000	0.142020	7.37295e+06	-40489.1	1055.82	-29789.8	0.000000	0.000000	6.142794	0.055063	NaN	0.000000	0.001639	0.001711	28.082	0.005513	0.002022	2.725853	50.5481	-167.48	0.090126	0.140676	-0.974032	-0.975376	0.055063	2.725853	-0.989182	-1.622173E+13	-3.394369E-15	NaN
807	1.000000	0.152028	7.37295e+06	-40489.1	1055.82	-29789.8	0.000000	0.000000	6.152799	-0.011640	NaN	0.000000	0.001603	0.001707	28.0821	0.079425	0.002051	38.7281	-20.0343	15.3045	-0.018925	0.150618	-0.964024	-0.965434	-0.011640	38.7281	-0.963799	-7.380372E+12	1.577209E-15	NaN
807	1.000000	0.162030	7.37295e+06	-40489.1	1055.82	-29789.8	0.000000	0.000000	6.162804	0.042893	NaN	0.000000	0.001641	0.001721	28.082	0.079401	0.002048	38.7692	88.8592	-167.026	0.071225	0.160707	-0.954022	-0.955345	0.042893	38.7692	-0.954851	-5.590511E+12	-7.672501E-15	NaN
807	1.000000	0.172021	7.37295e+06	-40489.1	1055.82	-29789.8	0.000000	0.000000	6.172794	0.015108	NaN	0.000000	0.001594	0.001768	28.082	0.046678	0.001904	24.52	-48.1668	18.1102	0.040158	0.170693	-0.944031	-0.945359	0.015108	24.52	-0.944493	-4.052738E+12	-3.727911E-15	NaN
807	1.000000	0.182020	7.37295e+06	-40489.1	1055.82	-29789.8	0.000000	0.000000	6.182792	0.000449	NaN	0.000000	0.001566	0.001723	28.082	0.032399	0.001965	16.488	172.808	-165.188	0.017853	0.180741	-0.934032	-0.935311	0.000449	16.488	-0.934052	-2.930130E+12	-1.533635E-16	NaN
807	1.000000	0.192024	7.37295e+06	-40489.1	1055.82	-29789.8	0.000000	0.000000	6.192798	0.026649	NaN	0.000000	0.001602	0.001774	28.0819	0.101262	0.002052	49.343	-47.3087	16.6648	-0.052847	0.190679	-0.924027	-0.925372	0.026649	49.343	-0.924432	-2.172930E+12	-1.226413E-14	NaN
807	1.000000	0.202017	7.37295e+06	-40489.1	1055.82	-29789.8	0.000000	0.000000	6.202788	-0.027280	NaN	0.000000	0.001595	0.001733	28.0819	0.087900	0.002117	41.5265	-101.257	-165.795	0.018223	0.200770	-0.914035	-0.915282	-0.027280	41.5265	-0.913542	-1.548816E+12	1.761356E-14	NaN
807	1.000000	0.212045	7.37295e+06	-40489.1	1055.82	-29789.8	0.000000	0.000000	6.212814	-0.065386	NaN	0.000000	0.001588	0.001757	28.082	0.132574	0.001994	66.4946	96.4317	14.9474	-0.073381	0.210700	-0.904007	-0.905352	-0.065386	66.4946	-0.903269	-1.125226E+12	5.810898E-14	NaN
807	1.000000	0.222021	7.37295e+06	-40489.1	1055.82	-29789.8	0.000000	0.000000	6.222792	-0.041045	NaN	0.000000	0.001587	0.001760	28.0818	0.096650	0.002014	47.9799	-133.969	-163.464	-0.066083	0.220718	-0.894030	-0.895334	-0.041045	47.9799	-0.893389	-8.274125E+11	4.960670E-14	NaN
807	1.000000	0.232025	7.37295e+06	-40489.1	1055.82	-29789.8	0.000000	0.000000	6.232798	0.007872	NaN	0.000000	0.001591	0.001748	28.0817	0.075046	0.002057	36.4793	32.5357	12.7689	0.021590	0.230718	-0.884027	-0.885334	0.007872	36.4793	-0.884188	-6.213633E+11	-1.266940E-14	NaN
807	1.000000	0.242081	7.37295e+06	-40489.1	1055.82	-29789.8	0.000000	0.000000	6.242851	-0.052715	NaN	0.000000	0.001611	0.001718	28.0817	0.063579	0.001986	32.0208	125.366	-163.354	-0.050913	0.240732	-0.873971	-0.875320	-0.052715	32.0208	-0.872736	-4.349715E+11	1.211928E-13	NaN
807	1.000000	0.252057	7.37295e+06	-40489.1	1055.82	-29789.8	0.000000	0.000000	6.252830	0.023393	NaN	0.000000	0.001596	0.001746	28.0821	0.024680	0.002045	12.0682	105.824	13.9956	0.006453	0.250691	-0.863994	-0.865361	0.023393	12.0682	-0.865448	-3.466206E+11	-6.748960E-14	NaN
807	1.000000	0.262070	7.37295e+06	-40489.1	1055.82	-29789.8	0.000000	0.000000	6.262841	-0.018720	NaN	0.000000	0.001668	0.001744	28.0823	0.091664	0.002096	43.7287	-40.828	-165.216	-0.023397	0.260775	-0.853982	-0.855277	-0.018720	43.7287	-0.853661	-2.400538E+11	7.798215E-14	NaN
807	1.000000	0.272073	7.37295e+06	-40489.1	1055.82	-29789.8	0.000000	0.000000	6.272846	0.021334	NaN	0.000000	0.001641	0.001718	28.0832	0.060775	0.001929	31.5123	-155.885	15.8206	0.033353	0.270712	-0.843979	-0.845340	0.021334	31.5123	-0.844486	-1.803293E+11	-1.183031E-13	NaN
807	1.000000	0.282064	7.37295e+06	-40489.1	1055.82	-29789.8	0.000000	0.000000	6.282835	-0.024251	NaN	0.000000	0.001689	0.001748	28.0832	0.005011	0.002119	2.365279	-38.553	-164.026	-0.007266	0.280790	-0.833988	-0.835262	-0.024251	2.365279	-0.826298	-1.022366E+11	2.372046E-13	NaN
807	1.000000	0.292059	7.37295e+06	-40489.1	1055.82	-29789.8	0.000000	0.000000	6.292828	-0.064871	NaN	0.000000	0.001668	0.001721	28.0834	0.033378	0.002035	16.3997	27.269	13.0298	-0.045737	0.290749	-0.823993	-0.825302	-0.064871	16.3997	-0.821026	-8.672130E+10	7.480425E-13	NaN
807	1.000000	0.302053	7.37295e+06	-40489.1	1055.82	-29789.8	0.000000	0.000000	6.302825	-0.009626	NaN	0.000000	0.001674	0.001743	28.0834	0.061613	0.001923	32.0358	54.5869	-163.561	0.045075	0.300819	-0.813999	-0.815233	-0.009626	32.0358	-0.813773	-6.914485E+10	1.392198E-13	NaN
807	1.000000	0.312061	7.37295e+06	-40489.1	1055.82	-29789.8	0.000000	0.000000	6.312832	-0.011425	NaN	0.000000	0.001623	0.001740	28.083	0.054963	0.002011	27.3378	51.9958	13.088	0.013294	0.310724	-0.803991	-0.805327	-0.011425	27.3378	-0.803678	-5.044062E+10	2.265026E-13	NaN
807	1.000000	0.322084	7.37295e+06	-40489.1	1055.82	-29789.8	0.000000	0.000000	6.322855	-0.015379	NaN	0.000000	0.001598	0.001778	28.083	0.070468	0.001950	36.1287	74.0013	-165.015	0.013159	0.320815	-0.793968	-0.795237	-0.015379	36.1287	-0.793649	-3.686688E+10	4.171432E-13	NaN
807	1.000000	0.332097	7.37295e+06	-40489.1	1055.82	-29789.8	0.000000	0.000000	6.332869	0.004571	NaN	0.000000	0.001583	0.001751	28.0829	0.033621	0.002049	16.4062	-53.559	17.0444	0.030000	0.330759	-0.783955	-0.785293	0.004571	16.4062	-0.784164	-2.740357E+10	-1.668146E-13	NaN
807	1.000000	0.342097	7.37295e+06	-40489.1	1055.82	-29789.8	0.000000	0.000000	6.342868	-0.010284	NaN	0.000000	0.001584	0.001780	28.083	0.092737	0.002100	44.1609	153.873	-166.06	0.034489	0.340816	-0.773955	-0.775236	-0.010284	44.1609	-0.773780	-1.980162E+10	5.193498E-13	NaN
807	1.000000	0.352068	7.37295e+06	-40489.1	1055.82	-29789.8	0.000000	0.000000	6.352839	-0.029720	NaN	0.000000	0.001636	0.001798	28.083	0.020645	0.001974	10.4589	41.4204	14.9619	-0.013240	0.350766	-0.763984	-0.765286	-0.029720	10.4589	-0.761853	-1.363023E+10	2.180443E-12	NaN
807	1.000000	0.362108	7.37295e+06	-40489.1	1055.82	-29789.8	0.000000	0.000000	6.362882	0.054537	NaN	0.000000	0.001576	0.001817	28.0832	0.113118	0.002057	54.9996	-34.496	-163.524	0.081614	0.360845	-0.753944	-0.755207	0.054537	54.9996	-0.754688	-1.088978E+10	-5.008067E-12	NaN
807	1.000000	0.372118	7.37295e+06	-40489.1	1055.82	-29789.8	0.000000	0.000000	6.372890	-0.013291	NaN	0.000000	0.001601	0.001822	28.0829	0.023958	0.001881	12.7379	-44.9548	12.4466	0.004422	0.370807	-0.743934	-0.745245	-0.013291	12.7379	-0.743151	-7.585281E+9	1.752233E-12	NaN
807	1.000000	0.382093	7.37295e+06	-40489.1	1055.82	-29789.8	0.000000	0.000000	6.382865	-0.017989	NaN	0.000000	0.001613	0.001806	28.0828	0.112281	0.001813	61.9261	-179.869	-163.289	-0.063065	0.380793	-0.733958	-0.735259	-0.017989	61.9261	-0.733741	-5.646547E+9	3.185818E-12	NaN
807	1.000000	0.392134	7.37295e+06	-40489.1	1055.82	-29789.8	0.000000	0.000000	6.392904	-0.032801	NaN	0.000000	0.001586	0.001779	28.0828	0.057382	0.001971	29.1125	11.3595	15.7536	0.004809	0.390803	-0.723918	-0.725249	-0.032801	29.1125	-0.723073	-4.040005E+9	8.119080E-12	NaN
807	1.000000	0.402142	7.37295e+06	-40489.1	1055.82	-29789.8	0.000000	0.000000	6.402914	-0.008278	NaN	0.000000	0.001628	0.001816	28.0819	0.066475	0.001923	34.5735	-47.9201	-164.415	0.098960	0.400817	-0.713910	-0.715235	-0.008278	34.5735	-0.713730	-3.012661E+9	2.747576E-12	NaN
807	1.000000	0.412136	7.37295e+06	-40489.1	1055.82	-29789.8	0.000000	0.000000	6.412909	0.020915	NaN	0.000000	0.001650	0.001801	28.0813	0.072729	0.001960	37.1043	69.9203	12.9081	-0.017675	0.410745	-0.703916	-0.705307	0.020915	37.1043	-0.704339	-2.242701E+9	-9.325750E-12	NaN
807	1.000000	0.422128	7.37295e+06	-40489.1	1055.82	-29789.8	0.000000	0.000000	6.422898	-0.055401	NaN	0.000000	0.001554	0.001751	28.0814	0.026038	0.002030	12.828	-61.7363	-165.872	-0.084525	0.420821	-0.693924	-0.695231	-0.055401	12.828	-0.690685	-1.459739E+9	3.795296E-11	NaN
807	1.000000	0.432136	7.37295e+06	-40489.1	1055.82	-29789.8	0.000000	0.000000	6.432906	-0.059861	NaN	0.000000	0.001584	0.001771	28.0816	0.073662	0.001990	37.0085	49.8118	14.1447	-0.017215	0.430778	-0.683915	-0.685273	-0.059861	37.0085	-0.682702	-1.135429E+9	5.272101E-11	NaN
807	1.000000	0.442152	7.37295e+06	-40489.1	1055.82	-29789.8	0.000000	0.000000	6.442924	0.021063	NaN	0.000000	0.001571	0.001766	28.0815	0.045110	0.002077	21.7221	-46.0917	-165.797	0.038771	0.440807	-0.673900	-0.675245	0.021063	21.7221	-0.674627	-8.804682E+8	-2.392266E-11	NaN
807	1.000000	0.452135	7.37295e+06	-40489.1	1055.82	-29789.8	0.000000	0.000000	6.452909	0.035813	NaN	0.000000	0.001598	0.001743	28.0815	0.100542	0.002020	49.7782	62.8352	16.7571	0.010349	0.450799	-0.663916	-0.665252	0.035813	49.7782	-0.664456	-6.389900E+8	-5.604681E-11	NaN
807	1.000000	0.462164	7.37295e+06	-40489.1	1055.82	-29789.8	0.000000	0.000000	6.462937	0.033768	NaN	0.000000	0.001665	0.001816	28.0814	0.089381	0.002159	41.3966	105.632	-168.165	0.035725	0.460844	-0.653888	-0.655208	0.033768	41.3966	-0.654500	-4.667841E+8	-7.234189E-11	NaN
807	1.000000	0.472169	7.37295e+06	-40489.1	1055.82	-29789.8	0.000000	0.000000	6.472940	-0.016952	NaN	0.000000	0.001691	0.001752	28.0818	0.046882	0.001820	25.755	-154.461	16.0089	0.045740	0.470827	-0.643883	-0.645225	-0.016952	25.755	-0.643389	-3.286915E+8	5.157520E-11	NaN
807	1.000000	0.482158	7.37295e+06	-40489.1	1055.82	-29789.8	0.000000	0.000000	6.482930	-0.014346	NaN	0.000000	0.001650	0.001728	28.0815	0.058788	0.002056	28.5936	-149.955	-165.812	-0.008753	0.480805	-0.633893	-0.635246	-0.014346	28.5936	-0.633517	-2.406113E+8	5.962374E-11	NaN
807	1.000000	0.492139	7.37295e+06	-40489.1	1055.82	-29789.8	0.000000	0.000000	6.492913	0.038709	NaN	0.000000	0.001641	0.001775	28.0816	0.123657	0.002090	59.1581	-42.5844	14.8144	0.007261	0.490778	-0.623912	-0.625274	0.038709	59.1581	-0.624403	-1.803615E+8	-2.146178E-10	NaN
807	1.000000	0.502157	7.37295e+06	-40489.1	1055.82	-29789.8	0.000000	0.000000	6.502931	0.058146	NaN	0.000000	0.001637	0.001740	28.0819	0.050969	0.002049	24.8727	131.787	-169.554	0.063596	0.500834	-0.613895	-0.615218	0.058146	24.8727	-0.615648	-1.367114E+8	-4.253185E-10	NaN
807	1.000000	0.512173	7.37295e+06	-40489.1	1055.82	-29789.8	0.000000	0.000000	6.512945	-0.001106	NaN	0.000000	0.001651	0.001745	28.0818	0.152204	0.002055	74.0703	-43.6252	16.2235	-0.029101	0.510782	-0.603878	-0.605270	-0.001106	74.0703	-0.603867	-9.412613E+7	1.174920E-11	NaN
807	1.000000	0.522188	7.37295e+06	-40489.1	1055.82	-29789.8	0.000000	0.000000	6.522961	0.030746	NaN	0.000000	0.001599	0.001749	28.0816	0.063542	0.001983	32.0476	69.9035	-166.31	0.043797	0.520844	-0.593864	-0.595208	0.030746	32.0476	-0.594583	-7.011965E+7	-4.384822E-10	NaN
807	1.000000	0.532158	7.37295e+06	-40489.1	1055.82	-29789.8	0.000000	0.000000	6.532931	0.037704	NaN	0.000000	0.001577	0.001735	28.0818	0.077240	0.001981	38.995	-25.3957	16.1779	0.052230	0.530807	-0.583894	-0.585244	0.037704	38.995	-0.584619	-5.110525E+7	-7.377757E-10	NaN
807	1.000000	0.542224	7.37295e+06	-40489.1	1055.82	-29789.8	0.000000	0.000000	6.542994	-0.029135	NaN	0.000000	0.001606	0.001770	28.083	0.110075	0.001940	56.7351	-159.668	-167.665	0.053348	0.540846	-0.573828	-0.575206	-0.029135	56.7351	-0.573443	-3.582567E+7	8.132437E-10	NaN
807	1.000000	0.552193	7.37295e+06	-40489.1	1055.82	-29789.8	0.000000	0.000000	6.552964	-0.025354	NaN	0.000000	0.001559	0.001732	28.083	0.059583	0.001964	30.3332	128.89	16.0072	-0.080778	0.550889	-0.563859	-0.565163	-0.025354	30.3332	-0.563232	-2.588678E+7	9.794231E-10	NaN
807	1.000000	0.562221	7.37295e+06	-40489.1	1055.82	-29789.8	0.000000	0.000000	6.562991	-0.036785	NaN	0.000000	0.001620	0.001734	28.083	0.052742	0.001929	27.3457	-129.028	-165.369	0.011494	0.560931	-0.553831	-0.555121	-0.036785	27.3457	-0.552822	-1.857975E+7	1.979870E-9	NaN
807	1.000000	0.572184	7.37295e+06	-40489.1	1055.82	-29789.8	0.000000	0.000000	6.572956	0.002555	NaN	0.000000	0.001609	0.001718	28.0827	0.050093	0.002066	24.2449	-62.1344	16.086	-0.073750	0.570802	-0.543868	-0.545250	0.002555	24.2449	-0.543947	-1.399864E+7	-1.825373E-10	NaN
807	1.000000	0.582204	7.37295e+06	-40489.1	1055.82	-29789.8	0.000000	0.000000	6.582976	-0.004137	NaN	0.000000	0.001625	0.001741	28.083	0.125306	0.002112	59.3275	5.357529	-163.366	0.002060	0.580874	-0.533848	-0.535178	-0.004137	59.3275	-0.533795	-1.012208E+7	4.087293E-10	NaN
807	1.000000	0.592192	7.37295e+06	-40489.1	1055.82	-29789.8	0.000000	0.000000	6.592964	0.013082	NaN	0.000000	0.001660	0.001766	28.0831	0.096777	0.002143	45.1524	146.48	14.6214	-0.003632	0.590846	-0.523860	-0.525206	0.013082	45.1524	-0.524077	-7.41798e+06	-1.763599E-9	NaN
807	1.000000	0.602212	7.37295e+06	-40489.1	1055.82	-29789.8	0.000000	0.000000	6.602983	-0.004589	NaN	0.000000	0.001641	0.001728	28.0828	0.064597	0.002078	31.0922	-127.656	-167.633	0.079216	0.600955	-0.513840	-0.515096	-0.004589	31.0922	-0.513730	-5.32536e+06	8.617305E-10	NaN
807	1.000000	0.612220	7.37295e+06	-40489.1	1055.82	-29789.8	0.000000	0.000000	6.612993	0.029532	NaN	0.000000	0.001652	0.001760	28.083	0.023619	0.001827	12.9305	-36.9269	14.6211	0.026258	0.610855	-0.503832	-0.505196	0.029532	12.9305	-0.505545	-4.09576e+06	-7.210331E-9	NaN
807	1.000000	0.622220	7.37295e+06	-40489.1	1055.82	-29789.8	0.000000	0.000000	6.622989	-0.084892	NaN	0.000000	0.001678	0.001784	28.0828	0.100735	0.002104	47.8843	169.521	-167.19	-0.114589	0.620902	-0.493832	-0.495150	-0.084892	47.8843	-0.492502	-2.69371e+06	3.151488E-8	NaN
807	1.000000	0.632256	7.37295e+06	-40489.1	1055.82	-29789.8	0.000000	0.000000	6.633027	-0.027709	NaN	0.000000	0.001652	0.001738	28.0828	0.034332	0.002083	16.4786	13.0305	17.3824	-0.035004	0.630890	-0.483796	-0.485162	-0.027709	16.4786	-0.482535	-1.95434e+06	1.417795E-8	NaN
807	1.000000	0.642196	7.37295e+06	-40489.1	1055.82	-29789.8	0.000000	0.000000	6.642965	-0.079252	NaN	0.000000	0.001659	0.001769	28.0828	0.072981	0.002030	35.9493	-122.186	-167.327	0.016604	0.640895	-0.473855	-0.475156	-0.079252	35.9493	-0.472202	-1.4005e+06	5.658864E-8	NaN
807	1.000000	0.652185	7.37295e+06	-40489.1	1055.82	-29789.8	0.000000	0.000000	6.652955	-0.052365	NaN	0.000000	0.001655	0.001799	28.0832	0.034194	0.001972	17.3378	2.028215	15.4229	-0.097207	0.650860	-0.463867	-0.465192	-0.052365	17.3378	-0.461602	-994318	5.266409E-8	NaN
807	1.000000	0.662186	7.37295e+06	-40489.1	1055.82	-29789.8	0.000000	0.000000	6.662960	0.046325	NaN	0.000000	0.001603	0.001736	28.0828	0.056637	0.001874	30.2146	-142.366	-165.91	-0.011061	0.660943	-0.453866	-0.455109	0.046325	30.2146	-0.455016	-803418	-5.765939E-8	NaN
807	1.000000	0.672244	7.37295e+06	-40489.1	1055.82	-29789.8	0.000000	0.000000	6.673014	-0.046067	NaN	0.000000	0.001597	0.001739	28.0822	0.052535	0.001953	26.9064	-152.099	14.6242	0.032778	0.670858	-0.443808	-0.445193	-0.046067	26.9064	-0.442524	-535770	8.598219E-8	NaN
807	1.000000	0.682267	7.37295e+06	-40489.1	1055.82	-29789.8	0.000000	0.000000	6.683038	-0.019137	NaN	0.000000	0.001606	0.001748	28.0815	0.054725	0.002054	26.6385	-34.4747	-164.618	-0.044131	0.680939	-0.433785	-0.435113	-0.019137	26.6385	-0.433246	-396249	4.829607E-8	NaN
807	1.000000	0.692262	7.37295e+06	-40489.1	1055.82	-29789.8	0.000000	0.000000	6.693036	0.048121	NaN	0.000000	0.001595	0.001748	28.0819	0.095172	0.002073	45.9198	-92.1959	16.3932	0.001295	0.690907	-0.423790	-0.425145	0.048121	45.9198	-0.424576	-298725	-1.610889E-7	NaN
807	1.000000	0.702238	7.37295e+06	-40489.1	1055.82	-29789.8	0.000000	0.000000	6.703008	-0.038060	NaN	0.000000	0.001584	0.001713	28.0817	0.084180	0.001982	42.474	-57.4104	-163.133	-0.039229	0.700931	-0.413814	-0.415121	-0.038060	42.474	-0.413142	-205617	1.851029E-7	NaN
807	1.000000	0.712266	7.37295e+06	-40489.1	1055.82	-29789.8	0.000000	0.000000	6.713038	0.004962	NaN	0.000000	0.001622	0.001718	28.0816	0.029061	0.001967	14.7752	-106.422	13.1747	-0.022638	0.710921	-0.403786	-0.405130	0.004962	14.7752	-0.404038	-152595	-3.251975E-8	NaN
807	1.000000	0.722220	7.37295e+06	-40489.1	1055.82	-29789.8	0.000000	0.000000	6.722992	-0.013889	NaN	0.000000	0.001621	0.001719	28.0817	0.037226	0.002113	17.6156	-64.3432	-161.088	-0.071589	0.720928	-0.393831	-0.395124	-0.013889	17.6156	-0.393240	-107027	1.297682E-7	NaN
807	1.000000	0.732289	7.37295e+06	-40489.1	1055.82	-29789.8	0.000000	0.000000	6.733060	-0.027957	NaN	0.000000	0.001557	0.001744	28.0816	0.056967	0.002094	27.2063	-103.262	14.8818	-0.048587	0.730873	-0.383763	-0.385178	-0.027957	27.2063	-0.382992	-76350.3	3.661681E-7	NaN
807	1.000000	0.742241	7.37295e+06	-40489.1	1055.82	-29789.8	0.000000	0.000000	6.743012	-0.022290	NaN	0.000000	0.001598	0.001715	28.0816	0.056104	0.002002	28.0307	78.3085	-165.221	-0.065407	0.741006	-0.373810	-0.375046	-0.022290	28.0307	-0.373214	-55257	4.033798E-7	NaN
807	1.000000	0.752255	7.37295e+06	-40489.1	1055.82	-29789.8	0.000000	0.000000	6.753026	-0.035898	NaN	0.000000	0.001584	0.001765	28.0814	0.089913	0.002040	44.082	64.5835	16.0364	-0.052777	0.750884	-0.363797	-0.365167	-0.035898	44.082	-0.363186	-39615.9	9.061515E-7	NaN
807	1.000000	0.762284	7.37295e+06	-40489.1	1055.82	-29789.8	0.000000	0.000000	6.763057	0.014840	NaN	0.000000	0.001580	0.001717	28.0816	0.018733	0.002050	9.139500	71.8743	-168.746	0.038303	0.760929	-0.353768	-0.355123	0.014840	9.139500	-0.354985	-30149.9	-4.922180E-7	NaN
807	1.000000	0.772259	7.37295e+06	-40489.1	1055.82	-29789.8	0.000000	0.000000	6.773029	-0.062594	NaN	0.000000	0.001559	0.001722	28.0816	0.010909	0.001858	5.872063	-82.042	16.7024	0.005863	0.770937	-0.343793	-0.345115	-0.062594	5.872063	-0.335798	-15857.7	3.947240E-6	NaN
807	1.000000	0.782287	7.37295e+06	-40489.1	1055.82	-29789.8	0.000000	0.000000	6.783059	-0.001740	NaN	0.000000	0.001570	0.001725	28.0818	0.076139	0.001978	38.4976	-65.6531	-166.997	-0.047541	0.780999	-0.333765	-0.335053	-0.001740	38.4976	-0.333731	-14792.4	1.176602E-7	NaN
807	1.000000	0.792264	7.37295e+06	-40489.1	1055.82	-29789.8	0.000000	0.000000	6.793036	-0.003468	NaN	0.000000	0.001603	0.001740	28.0815	0.116958	0.002028	57.6735	164.053	15.125	0.018497	0.790986	-0.323788	-0.325066	-0.003468	57.6735	-0.323743	-10560.2	3.284492E-7	NaN
807	1.000000	0.802300	7.37295e+06	-40489.1	1055.82	-29789.8	0.000000	0.000000	6.803073	0.023979	NaN	0.000000	0.001563	0.001747	28.0818	0.076432	0.002100	36.3875	-153.292	-166.758	0.111096	0.800964	-0.313752	-0.315087	0.023979	36.3875	-0.314246	-7652.8	-3.133391E-6	NaN
807	1.000000	0.812290	7.37295e+06	-40489.1	1055.82	-29789.8	0.000000	0.000000	6.813059	-0.072490	NaN	0.000000	0.001541	0.001748	28.0828	0.060455	0.001990	30.3788	-48.5841	14.1787	-0.082422	0.810900	-0.303762	-0.305152	-0.072490	30.3788	-0.301972	-5034.7	1.439810E-5	NaN
807	1.000000	0.822280	7.37295e+06	-40489.1	1055.82	-29789.8	0.000000	0.000000	6.823049	-0.075013	NaN	0.000000	0.001516	0.001746	28.0828	0.087223	0.001880	46.4043	-167.064	-165.479	0.068312	0.820967	-0.293772	-0.295085	-0.075013	46.4043	-0.292560	-3644.33	2.058349E-5	NaN
807	1.000000	0.832318	7.37295e+06	-40489.1	1055.82	-29789.8	0.000000	0.000000	6.833091	0.033831	NaN	0.000000	0.001581	0.001748	28.0829	0.091879	0.002066	44.471	-153.598	15.1849	0.037175	0.830962	-0.283734	-0.285090	0.033831	44.471	-0.284305	-2740.37	-1.234530E-5	NaN
807	1.000000	0.842293	7.37295e+06	-40489.1	1055.82	-29789.8	0.000000	0.000000	6.843066	0.025769	NaN	0.000000	0.001602	0.001757	28.083	0.067390	0.001993	33.8207	-59.7499	-163.947	-0.002407	0.840943	-0.273759	-0.275109	0.025769	33.8207	-0.274330	-1937.58	-1.329980E-5	NaN
807	1.000000	0.852306	7.37295e+06	-40489.1	1055.82	-29789.8	0.000000	0.000000	6.853077	-0.026904	NaN	0.000000	0.001672	0.001747	28.0828	0.076797	0.001990	38.5995	63.1908	13.359	0.011793	0.850937	-0.263746	-0.265114	-0.026904	38.5995	-0.263223	-1312.94	2.049172E-5	NaN
807	1.000000	0.862321	7.37295e+06	-40489.1	1055.82	-29789.8	0.000000	0.000000	6.863093	-0.009255	NaN	0.000000	0.001662	0.001767	28.0829	0.001541	0.002018	0.763251	78.3049	-169.593	0.002819	0.861050	-0.253731	-0.255002	-0.009255	0.763251	-0.244636	-678.885	1.363296E-5	NaN
807	1.000000	0.872325	7.37295e+06	-40489.1	1055.82	-29789.8	0.000000	0.000000	6.873096	-0.024474	NaN	0.000000	0.001648	0.001760	28.083	0.065995	0.001959	33.681	25.3757	16.3884	-0.022430	0.870947	-0.243727	-0.245105	-0.024474	33.681	-0.243182	-644.426	3.797819E-5	NaN
807	1.000000	0.882317	7.37295e+06	-40489.1	1055.82	-29789.8	0.000000	0.000000	6.883088	-0.036886	NaN	0.000000	0.001695	0.001771	28.0831	0.097190	0.002008	48.4101	-131.089	-165.906	0.038807	0.881022	-0.233734	-0.235030	-0.036886	48.4101	-0.233163	-449.131	8.212849E-5	NaN
807	1.000000	0.892342	7.37295e+06	-40489.1	1055.82	-29789.8	0.000000	0.000000	6.893116	0.052300	NaN	0.000000	0.001673	0.001765	28.0829	0.138307	0.001946	71.0741	123.089	14.8498	0.013305	0.890995	-0.223709	-0.225057	0.052300	71.0741	-0.224261	-324.786	-0.000161	NaN
807	1.000000	0.902306	7.37295e+06	-40489.1	1055.82	-29789.8	0.000000	0.000000	6.903077	-0.016209	NaN	0.000000	0.001643	0.001762	28.0834	0.067641	0.001993	33.9397	-113.714	-169.551	-0.023159	0.901072	-0.213746	-0.214980	-0.016209	33.9397	-0.213388	-217.546	7.450850E-5	NaN
807	1.000000	0.912355	7.37295e+06	-40489.1	1055.82	-29789.8	0.000000	0.000000	6.913125	-0.045724	NaN	0.000000	0.001620	0.001740	28.0829	0.094023	0.002020	46.5558	-175.255	13.9675	-0.019220	0.910937	-0.203697	-0.205115	-0.045724	46.5558	-0.202960	-147.312	0.000310	NaN
807	1.000000	0.922334	7.37295e+06	-40489.1	1055.82	-29789.8	0.000000	0.000000	6.923107	0.016436	NaN	0.000000	0.001607	0.001759	28.0831	0.056235	0.001954	28.7828	-142.473	-164.905	-0.027954	0.920998	-0.193717	-0.195054	0.016436	28.7828	-0.194146	-105.448	-0.000156	NaN
807	1.000000	0.932359	7.37295e+06	-40489.1	1055.82	-29789.8	0.000000	0.000000	6.933134	0.079130	NaN	0.000000	0.001614	0.001788	28.0829	0.063331	0.001922	32.9517	-114.697	12.2193	0.011051	0.931020	-0.183693	-0.185032	0.079130	32.9517	-0.185494	-75.5882	-0.001047	NaN
807	1.000000	0.942347	7.37295e+06	-40489.1	1055.82	-29789.8	0.000000	0.000000	6.943116	-0.060523	NaN	0.000000	0.001609	0.001756	28.0833	0.005791	0.002111	2.742909	43.9077	-164.849	-0.061077	0.941044	-0.173705	-0.175008	-0.060523	2.742909	-0.157157	-24.3938	0.002481	NaN
807	1.000000	0.952359	7.37295e+06	-40489.1	1055.82	-29789.8	0.000000	0.000000	6.953132	0.023015	NaN	0.000000	0.001601	0.001772	28.0814	0.062497	0.002020	30.9443	-132.166	14.86	0.010521	0.950952	-0.163693	-0.165100	0.023015	30.9443	-0.164250	-32.5936	-0.000706	NaN
807	1.000000	0.962377	7.37295e+06	-40489.1	1055.82	-29789.8	0.000000	0.000000	6.963147	-0.025195	NaN	0.000000	0.001598	0.001761	28.0817	0.036667	0.001999	18.3443	57.2761	-167.169	-0.026203	0.960997	-0.153675	-0.155055	-0.025195	18.3443	-0.152645	-20.2336	0.001245	NaN
807	1.000000	0.972372	7.37295e+06	-40489.1	1055.82	-29789.8	0.000000	0.000000	6.973144	0.000175	NaN	0.000000	0.001595	0.001763	28.0816	0.060000	0.001896	31.6424	136.091	13.2775	-0.031195	0.971036	-0.143679	-0.145016	0.000175	31.6424	-0.143684	-13.86	-1.259510E-5	NaN
807	1.000000	0.982358	7.37295e+06	-40489.1	1055.82	-29789.8	0.000000	0.000000	6.983129	-0.028694	NaN	0.000000	0.001577	0.001736	28.0817	0.014071	0.002023	6.955584	-46.407	-165.084	-0.083459	0.981021	-0.133694	-0.135031	-0.028694	6.955584	-0.130600	-7.827969	0.003666	NaN
807	1.000000	0.992358	7.37295e+06	-40489.1	1055.82	-29789.8	0.000000	0.000000	6.993131	0.012783	NaN	0.000000	0.001590	0.001736	28.0817	0.010605	0.002025	5.235504	-159.251	16.2312	0.010870	0.990973	-0.123694	-0.125079	0.012783	5.235504	-0.125525	-6.228296	-0.002052	NaN
807	1.000000	1.002356	7.37295e+06	-40489.1	1055.82	-29789.8	0.000000	0.000000	7.003129	0.038979	NaN	0.000000	0.001597	0.001735	28.0816	0.022014	0.001956	11.2535	81.4761	-165.32	0.069717	1.001034	-0.113696	-0.115017	0.038979	11.2535	-0.116294	-4.061614	-0.009597	NaN
807	1.000000	1.012390	7.37295e+06	-40489.1	1055.82	-29789.8	0.000000	0.000000	7.013163	0.038900	NaN	0.000000	0.001559	0.001770	28.0818	0.132673	0.002076	63.9228	-47.9339	12.0637	0.037767	1.011038	-0.103662	-0.105014	0.038900	63.9228	-0.104119	-2.249546	-0.017293	NaN
807	1.000000	1.022394	7.37295e+06	-40489.1	1055.82	-29789.8	0.000000	0.000000	7.023168	0.062791	NaN	0.000000	0.001604	0.001731	28.0815	0.040391	0.002054	19.6631	36.0796	-166.098	0.076799	1.021104	-0.093658	-0.094948	0.062791	19.6631	-0.096053	-1.490542	-0.042127	NaN
807	1.000000	1.032402	7.37295e+06	-40489.1	1055.82	-29789.8	0.000000	0.000000	7.033174	0.001235	NaN	0.000000	0.001611	0.001736	28.0816	0.109669	0.002045	53.617	45.6231	11.3089	-0.002016	1.031042	-0.083650	-0.085010	0.001235	53.617	-0.083667	-0.762568	-0.001619	NaN
807	1.000000	1.042383	7.37295e+06	-40489.1	1055.82	-29789.8	0.000000	0.000000	7.043154	-0.024289	NaN	0.000000	0.001603	0.001742	28.0814	0.052184	0.002066	25.2596	-152.222	-164.435	-0.059945	1.041122	-0.073669	-0.074930	-0.024289	25.2596	-0.072948	-0.408368	0.059478	NaN
807	1.000000	1.052410	7.37295e+06	-40489.1	1055.82	-29789.8	0.000000	0.000000	7.053181	-0.006094	NaN	0.000000	0.001566	0.001712	28.0819	0.068337	0.001926	35.4834	33.9534	14.0485	-0.023935	1.051080	-0.063642	-0.064972	-0.006094	35.4834	-0.063513	-0.226528	0.026903	NaN
807	1.000000	1.062377	7.37295e+06	-40489.1	1055.82	-29789.8	0.000000	0.000000	7.063148	-0.036484	NaN	0.000000	0.001600	0.001735	28.0815	0.067153	0.002056	32.665	88.0359	-166.916	0.004215	1.061068	-0.053675	-0.054984	-0.036484	32.665	-0.052837	-0.111056	0.328517	NaN
807	1.000000	1.072393	7.37295e+06	-40489.1	1055.82	-29789.8	0.000000	0.000000	7.073164	-0.027352	NaN	0.000000	0.001611	0.001737	28.0815	0.080766	0.001847	43.7394	-157.072	15.4172	-0.083362	1.071034	-0.043659	-0.045018	-0.027352	43.7394	-0.043190	-0.056575	0.483474	NaN
807	1.000000	1.082432	7.37295e+06	-40489.1	1055.82	-29789.8	0.000000	0.000000	7.083204	0.001530	NaN	0.000000	0.001604	0.001738	28.0822	0.140700	0.001952	72.0885	155.854	-164.624	0.005785	1.081094	-0.033619	-0.034957	0.001530	72.0885	-0.033635	-0.029211	-0.052372	NaN
807	1.000000	1.092385	7.37295e+06	-40489.1	1055.82	-29789.8	0.000000	0.000000	7.093156	-0.003351	NaN	0.000000	0.001625	0.001717	28.0829	0.080773	0.002006	40.2612	179.716	14.766	-0.037640	1.091030	-0.023667	-0.025022	-0.003351	40.2612	-0.023605	-0.015522	0.215858	NaN
807	1.000000	1.102416	7.37295e+06	-40489.1	1055.82	-29789.8	0.000000	0.000000	7.103189	0.010329	NaN	0.000000	0.001595	0.001695	28.0828	0.028971	0.002038	14.2168	-124.453	-167.277	-0.043338	1.101102	-0.013636	-0.014950	0.010329	14.2168	-0.014181	-0.008789	-1.175202	NaN
807	1.000000	1.112413	7.37295e+06	-40489.1	1055.82	-29789.8	0.000000	0.000000	7.113231	1.111833	NaN	0.000000	0.001595	0.001710	28.0825	1.696317	0.001866	908.925	6.178115	13.392	0.444376	1.111016	-0.003639	-0.005036	1.111833	908.925	-0.004556	-0.003136	-354.528	NaN
807	2.000000	1.120974	7.37295e+06	-40489.1	1055.82	-29789.8	0.000000	0.000000	7.122106	8.746792	NaN	0.000000	0.001595	0.001725	28.0827	9.120865	0.001744	5230.75	12.5313	-176.221	9.624790	1.120543	0.004922	0.004491	8.746792	5230.75	0.003668	0.002950	2964.93	87987.3
807	2.000000	1.123438	7.37295e+06	-40489.1	1055.82	-29789.8	0.000000	0.000000	7.124750	13.1465	NaN	0.000000	0.001561	0.001700	28.0831	11.7231	0.001743	6725.29	8.435343	4.125802	12.0471	1.123095	0.007386	0.007043	13.1465	6725.29	0.005920	0.004988	2635.4	86996.7
807	2.000000	1.125932	7.37295e+06	-40489.1	1055.82	-29789.8	0.000000	0.000000	7.127427	17.5946	NaN	0.000000	0.001629	0.001760	28.0825	14.8919	0.001846	8067.64	9.028717	-176.892	17.3867	1.125568	0.009880	0.009516	17.5946	8067.64	0.008245	0.007295	2411.76	86297.3
807	2.000000	1.128418	7.37295e+06	-40489.1	1055.82	-29789.8	0.000000	0.000000	7.130080	21.6689	NaN	0.000000	0.001628	0.001707	28.083	17.7625	0.001883	9433.09	7.808423	2.868087	20.5321	1.128044	0.012366	0.011992	21.6689	9433.09	0.010643	0.009905	2187.64	86595.8
807	2.000000	1.130899	7.37295e+06	-40489.1	1055.82	-29789.8	0.000000	0.000000	7.132822	28.0231	NaN	0.000000	0.001561	0.001725	28.0828	19.9397	0.001681	11861.7	2.201570	-175.108	27.1905	1.130564	0.014847	0.014512	28.0231	11861.7	0.013075	0.012804	2188.68	95775.7
807	2.000000	1.133401	7.37295e+06	-40489.1	1055.82	-29789.8	0.000000	0.000000	7.135642	35.7455	NaN	0.000000	0.001552	0.001742	28.0829	21.9094	0.001740	12589	4.520004	4.810790	34.6237	1.133047	0.017349	0.016995	35.7455	12589	0.015220	0.015579	2294.43	92149.2
807	2.000000	1.135848	7.37295e+06	-40489.1	1055.82	-29789.8	0.000000	0.000000	7.138265	40.027	NaN	0.000000	0.001549	0.001731	28.0825	24.8782	0.001695	14673.7	3.755303	-179.149	38.7369	1.135606	0.019796	0.019554	40.027	14673.7	0.017751	0.019130	2092.36	96929.4
807	2.000000	1.138335	7.37295e+06	-40489.1	1055.82	-29789.8	0.000000	0.000000	7.141182	50.513	NaN	0.000000	0.001534	0.001712	28.0831	27.0668	0.001755	15424.6	2.477222	2.892279	48.3712	1.138025	0.022283	0.021973	50.513	15424.6	0.019827	0.022271	2268.14	94432.4
807	2.000000	1.140919	7.37295e+06	-40489.1	1055.82	-29789.8	0.000000	0.000000	7.143939	54.7223	NaN	0.000000	0.001575	0.001712	28.0827	29.7757	0.001716	17350.4	3.403921	-179.05	57.2411	1.140482	0.024867	0.024431	54.7223	17350.4	0.022501	0.026626	2055.2	97146.4
807	2.000000	1.143373	7.37295e+06	-40489.1	1055.82	-29789.8	0.000000	0.000000	7.147042	70.4981	NaN	0.000000	0.001558	0.001744	28.083	31.8421	0.001671	19050.4	3.366072	-0.183453	68.9522	1.143011	0.027321	0.026959	70.4981	19050.4	0.024545	0.030194	2334.86	100166
807	2.000000	1.145919	7.37295e+06	-40489.1	1055.82	-29789.8	0.000000	0.000000	7.149785	75.285	NaN	0.000000	0.001571	0.001698	28.0813	35.471	0.001778	19952.7	9.131950	173.006	78.2009	1.145611	0.029867	0.029559	75.285	19952.7	0.027038	0.034827	2161.68	97682.4
807	2.000000	1.148355	7.37295e+06	-40489.1	1055.82	-29789.8	0.000000	0.000000	7.152651	85.7705	NaN	0.000000	0.001543	0.001711	28.0813	37.8373	0.001794	21088.6	4.059229	-1.320447	84.7695	1.148010	0.032303	0.031958	85.7705	21088.6	0.029252	0.039209	2187.54	97303.8
807	2.000000	1.150824	7.37295e+06	-40489.1	1055.82	-29789.8	0.000000	0.000000	7.155707	100.04	NaN	0.000000	0.001572	0.001714	28.0815	40.888	0.001936	21124.8	5.276601	177.14	97.5866	1.150526	0.034772	0.034474	100.04	21124.8	0.031221	0.043311	2309.79	92739.6
807	2.000000	1.153349	7.37295e+06	-40489.1	1055.82	-29789.8	0.000000	0.000000	7.158579	108.464	NaN	0.000000	0.001566	0.001718	28.0815	41.787	0.001782	23448.2	3.470658	-1.488983	105.123	1.153013	0.037297	0.036961	108.464	23448.2	0.033828	0.049052	2211.18	96728.1
807	2.000000	1.155798	7.37295e+06	-40489.1	1055.82	-29789.8	0.000000	0.000000	7.161430	118.277	NaN	0.000000	0.001612	0.001688	28.0812	43.4894	0.001703	25535	4.052886	177.251	115.622	1.155498	0.039746	0.039446	118.277	25535	0.036272	0.054749	2160.34	99705.9
807	2.000000	1.158360	7.37295e+06	-40489.1	1055.82	-29789.8	0.000000	0.000000	7.164330	126.479	NaN	0.000000	0.001556	0.001729	28.0815	47.1731	0.001766	26714.1	5.296502	-5.480688	124.524	1.158034	0.042308	0.041982	126.479	26714.1	0.038757	0.060856	2078.32	98937.6
807	2.000000	1.160812	7.37295e+06	-40489.1	1055.82	-29789.8	0.000000	0.000000	7.167518	144.387	NaN	0.000000	0.001568	0.001726	28.0815	50.1818	0.001855	27057.3	6.196507	175.25	142.828	1.160366	0.044760	0.044314	144.387	27057.3	0.040758	0.066003	2187.59	96222.7
807	2.000000	1.163380	7.37295e+06	-40489.1	1055.82	-29789.8	0.000000	0.000000	7.170556	155.853	NaN	0.000000	0.001604	0.001708	28.0815	51.2753	0.001752	29272.1	6.744419	-5.490263	157.631	1.162868	0.047328	0.046816	155.853	29272.1	0.043334	0.072930	2137.04	99032
807	2.000000	1.165804	7.37295e+06	-40489.1	1055.82	-29789.8	0.000000	0.000000	7.173409	166.271	NaN	0.000000	0.001633	0.001735	28.0816	53.2334	0.001859	28639.6	5.468093	175.03	164.959	1.165429	0.049752	0.049377	166.271	28639.6	0.045398	0.078720	2112.17	93260.3
807	2.000000	1.168292	7.37295e+06	-40489.1	1055.82	-29789.8	0.000000	0.000000	7.176395	178.395	NaN	0.000000	0.001569	0.001716	28.0817	56.7962	0.001703	33356.7	6.093503	-7.195628	175.924	1.167961	0.052240	0.051909	178.395	33356.7	0.048229	0.087017	2050.12	103313
807	2.000000	1.170808	7.37295e+06	-40489.1	1055.82	-29789.8	0.000000	0.000000	7.179423	190.859	NaN	0.000000	0.001597	0.001733	28.0814	60.02	0.001819	32987.7	3.735639	175.097	189.356	1.170497	0.054756	0.054446	190.859	32987.7	0.050417	0.093705	2036.8	98456.3
807	2.000000	1.173311	7.37295e+06	-40489.1	1055.82	-29789.8	0.000000	0.000000	7.182587	206.95	NaN	0.000000	0.001603	0.001692	28.0814	62.322	0.001925	32370.3	7.378140	-8.281324	203.291	1.172980	0.057259	0.056928	206.95	32370.3	0.052464	0.100181	2065.75	93438.7
807	2.000000	1.175788	7.37295e+06	-40489.1	1055.82	-29789.8	0.000000	0.000000	7.185545	218.623	NaN	0.000000	0.001603	0.001680	28.0811	64.7561	0.001919	33736.9	8.423345	169.951	216.124	1.175492	0.059737	0.059440	218.623	33736.9	0.054876	0.108080	2022.79	93757.5
807	2.000000	1.178253	7.37295e+06	-40489.1	1055.82	-29789.8	0.000000	0.000000	7.188817	238.264	NaN	0.000000	0.001602	0.001712	28.0818	66.1006	0.001741	37973.1	4.438580	-6.172082	233.331	1.177844	0.062201	0.061792	238.264	37973.1	0.057495	0.116980	2036.79	101436
807	2.000000	1.180784	7.37295e+06	-40489.1	1055.82	-29789.8	0.000000	0.000000	7.191836	250.155	NaN	0.000000	0.001608	0.001636	28.083	69.8687	0.001871	37348.2	4.150767	173.463	249.264	1.180571	0.064732	0.064520	250.155	37348.2	0.059709	0.124766	2004.99	96603.8
807	2.000000	1.183351	7.37295e+06	-40489.1	1055.82	-29789.8	0.000000	0.000000	7.195243	270.615	NaN	0.000000	0.001616	0.001654	28.0831	71.3525	0.001835	38884.2	4.370581	-5.894161	269.955	1.182838	0.067299	0.066786	270.615	38884.2	0.062079	0.133369	2029.07	97278.9
807	2.000000	1.185727	7.37295e+06	-40489.1	1055.82	-29789.8	0.000000	0.000000	7.198091	282.072	NaN	0.000000	0.001648	0.001645	28.0827	73.2745	0.001825	40158.2	4.180961	173.264	277.687	1.185396	0.069676	0.069344	282.072	40158.2	0.064408	0.142086	1985.22	97335.5
807	2.000000	1.188256	7.37295e+06	-40489.1	1055.82	-29789.8	0.000000	0.000000	7.201527	304.156	NaN	0.000000	0.001613	0.001651	28.083	75.1251	0.001723	43607.6	1.913379	-4.802663	298.858	1.187792	0.072204	0.071740	304.156	43607.6	0.066973	0.151993	2001.13	102194
807	2.000000	1.190941	7.37295e+06	-40489.1	1055.82	-29789.8	0.000000	0.000000	7.204551	312.397	NaN	0.000000	0.001586	0.001642	28.0825	78.8949	0.001732	45557.5	5.404597	170.852	321.124	1.190526	0.074890	0.074474	312.397	45557.5	0.069747	0.163059	1915.85	103077
807	2.000000	1.193230	7.37295e+06	-40489.1	1055.82	-29789.8	0.000000	0.000000	7.207893	338.014	NaN	0.000000	0.001598	0.001660	28.0827	79.7019	0.001939	41100.1	1.811434	-4.331424	331.037	1.192930	0.077179	0.076878	338.014	41100.1	0.071010	0.168223	2009.33	91553.2
807	2.000000	1.195680	7.37295e+06	-40489.1	1055.82	-29789.8	0.000000	0.000000	7.211139	357.381	NaN	0.000000	0.001654	0.001651	28.0827	82.3174	0.001761	46743.7	5.117855	171.131	352.345	1.195383	0.079628	0.079332	357.381	46743.7	0.073894	0.180289	1982.27	100580
807	2.000000	1.198273	7.37295e+06	-40489.1	1055.82	-29789.8	0.000000	0.000000	7.214694	380.791	NaN	0.000000	0.001668	0.001628	28.0826	84.3679	0.001908	44212.8	1.010552	-3.936124	377.305	1.197818	0.082221	0.081767	380.791	44212.8	0.075762	0.188312	2022.13	93085.6
807	2.000000	1.200794	7.37295e+06	-40489.1	1055.82	-29789.8	0.000000	0.000000	7.217727	393.248	NaN	0.000000	0.001673	0.001636	28.0827	87.1654	0.001832	47574.3	3.525267	172.586	395	1.200587	0.084742	0.084535	393.248	47574.3	0.078543	0.200564	1960.71	97055.2
807	2.000000	1.203283	7.37295e+06	-40489.1	1055.82	-29789.8	0.000000	0.000000	7.221138	415.685	NaN	0.000000	0.001686	0.001619	28.0828	88.6544	0.001718	51617.3	6.335398	-10.4308	412.274	1.202889	0.087231	0.086837	415.685	51617.3	0.081191	0.212569	1955.53	102287
807	2.000000	1.205728	7.37295e+06	-40489.1	1055.82	-29789.8	0.000000	0.000000	7.224686	442.536	NaN	0.000000	0.001682	0.001584	28.083	90.0658	0.001865	48297.1	3.829174	172.641	440.446	1.205413	0.089676	0.089361	442.536	48297.1	0.082804	0.220039	2011.17	94068.5
807	2.000000	1.208188	7.37295e+06	-40489.1	1055.82	-29789.8	0.000000	0.000000	7.227795	458.312	NaN	0.000000	0.001657	0.001607	28.0826	93.1406	0.001763	52825.9	3.260426	-8.033876	452.151	1.207948	0.092136	0.091896	458.312	52825.9	0.085630	0.233414	1963.52	99897.9
807	2.000000	1.210845	7.37295e+06	-40489.1	1055.82	-29789.8	0.000000	0.000000	7.231056	473.024	NaN	0.000000	0.001662	0.001629	28.0827	95.6099	0.001764	54215.5	-0.272018	175.555	474.166	1.210430	0.094793	0.094379	473.024	54215.5	0.088249	0.246144	1921.74	99839.3
807	2.000000	1.213207	7.37295e+06	-40489.1	1055.82	-29789.8	0.000000	0.000000	7.234264	493.605	NaN	0.000000	0.001680	0.001653	28.0821	96.8486	0.001739	55694	2.099271	-7.030857	486.15	1.212850	0.097155	0.096798	493.605	55694	0.090508	0.257376	1917.83	100299
807	2.000000	1.215746	7.37295e+06	-40489.1	1055.82	-29789.8	0.000000	0.000000	7.238033	523.532	NaN	0.000000	0.001680	0.001618	28.0818	100.242	0.001761	56934.7	5.926805	169.374	521.145	1.215341	0.099694	0.099289	523.532	56934.7	0.092798	0.268998	1946.23	100294
807	2.000000	1.218217	7.37295e+06	-40489.1	1055.82	-29789.8	0.000000	0.000000	7.241182	540.056	NaN	0.000000	0.001667	0.001629	28.0815	102.117	0.001835	55652.9	2.263844	-7.215195	535.543	1.218014	0.102165	0.101962	540.056	55652.9	0.094887	0.279812	1930.07	96123.2
807	2.000000	1.218660	7.37295e+06	-40489.1	1055.82	-29789.8	0.000000	0.000000	7.241997	549.097	NaN	0.000000	0.001650	0.001636	28.0813	101.345	0.001833	55299.5	-0.402665	176.022	543.674	1.218370	0.102608	0.102318	549.097	55299.5	0.095161	0.281247	1952.37	95268.8