File: remote_trans/data/nanoindenter/0828-1/data/Data_2025-08-06,11h17m57s/2025-07-22_16-23-58_1_583.txt
2025-07-22, 16:23:58, 1
Index	Phase	Displacement	Time	Pos X	Pos Y	Pos Z	Rot A	Rot B	Piezo Z	Force A	Force B	Gripper	Voltage A	Voltage B	Temperature	Amplitude force	Amplitude pos	Stiffness	Phase shift	Phase excitation	Force A raw	Displacement raw	HMax	HMax raw	Real Force	Real Stiffness	Contact Depth	Area	Hardness	Reduced Mod.
[#]	[#]	[um]	[s]	[um]	[um]	[um]	[m°]	[m°]	[um]	[uN]	[uN]	[V]	[V]	[V]	[°C]	[uN]	[um]	[N/m]	[°]	[°]	[uN]	[um]	[um]	[um]	[uN]	[N/m]	[um]	[um^2]	[MPa]	[MPa]
583	1.000000	0.002204	7.37075e+06	-47939.1	1005.82	-29764.2	0.000000	0.000000	6.002802	0.100124	NaN	0.000000	0.001547	0.001725	28.08	0.100304	0.001050	95.5577	133.814	-160.43	-0.001515	0.000916	-1.127635	-1.128923	0.100124	95.5577	-1.128421	-1.206257E+15	-8.300350E-17	NaN
583	1.000000	0.012241	7.37075e+06	-47939.1	1005.82	-29764.2	0.000000	0.000000	6.012839	0.109822	NaN	0.000000	0.001536	0.001726	28.0796	0.089604	0.001256	71.332	-4.439899	17.4552	0.070746	0.010816	-1.117598	-1.119024	0.109822	71.332	-1.118753	-8.948335E+14	-1.227288E-16	NaN
583	1.000000	0.022163	7.37075e+06	-47939.1	1005.82	-29764.2	0.000000	0.000000	6.022762	0.117258	NaN	0.000000	0.001532	0.001688	28.0795	0.092780	0.001681	55.1778	-63.7893	-161.465	0.058850	0.020859	-1.107676	-1.108981	0.117258	55.1778	-1.109270	-6.675588E+14	-1.756526E-16	NaN
583	1.000000	0.032152	7.37075e+06	-47939.1	1005.82	-29764.2	0.000000	0.000000	6.032749	0.101762	NaN	0.000000	0.001585	0.001731	28.0808	0.097505	0.001783	54.6972	-138.837	14.8442	0.139825	0.030807	-1.097688	-1.099032	0.101762	54.6972	-1.099083	-4.872579E+14	-2.088469E-16	NaN
583	1.000000	0.042151	7.37075e+06	-47939.1	1005.82	-29764.2	0.000000	0.000000	6.042748	0.073175	NaN	0.000000	0.001616	0.001690	28.081	0.085954	0.001958	43.9044	142.823	-164.31	0.090112	0.040807	-1.087688	-1.089032	0.073175	43.9044	-1.088938	-3.560833E+14	-2.055007E-16	NaN
583	1.000000	0.052153	7.37075e+06	-47939.1	1005.82	-29764.2	0.000000	0.000000	6.052749	0.044910	NaN	0.000000	0.001586	0.001722	28.0806	0.043826	0.002027	21.6246	-157.434	14.8897	-0.049327	0.050783	-1.077686	-1.079056	0.044910	21.6246	-1.079244	-2.638518E+14	-1.702101E-16	NaN
583	1.000000	0.062161	7.37075e+06	-47939.1	1005.82	-29764.2	0.000000	0.000000	6.062754	-0.010223	NaN	0.000000	0.001572	0.001695	28.0811	0.145786	0.002024	72.0394	-146.582	-167.101	0.106850	0.060837	-1.067679	-1.069002	-0.010223	72.0394	-1.067572	-1.838951E+14	5.558875E-17	NaN
583	1.000000	0.072154	7.37075e+06	-47939.1	1005.82	-29764.2	0.000000	0.000000	6.072749	0.046067	NaN	0.000000	0.001589	0.001681	28.0807	0.163598	0.002056	79.5838	-27.5641	13.6182	0.068771	0.070788	-1.057685	-1.059052	0.046067	79.5838	-1.058120	-1.372619E+14	-3.356152E-16	NaN
583	1.000000	0.082127	7.37075e+06	-47939.1	1005.82	-29764.2	0.000000	0.000000	6.082725	0.104348	NaN	0.000000	0.001567	0.001677	28.0812	0.058855	0.002076	28.3462	-118.638	-166.891	0.036250	0.080867	-1.047712	-1.048973	0.104348	28.3462	-1.050473	-1.083365E+14	-9.631837E-16	NaN
583	1.000000	0.092163	7.37075e+06	-47939.1	1005.82	-29764.2	0.000000	0.000000	6.092761	0.109372	NaN	0.000000	0.001597	0.001741	28.0808	0.049472	0.002004	24.6863	-72.5583	16.0618	0.100969	0.090838	-1.037676	-1.039001	0.109372	24.6863	-1.040999	-8.079868E+13	-1.353640E-15	NaN
583	1.000000	0.102171	7.37075e+06	-47939.1	1005.82	-29764.2	0.000000	0.000000	6.102766	0.044893	NaN	0.000000	0.001558	0.001695	28.0812	0.034987	0.002014	17.3699	-174.214	-164.556	0.021836	0.100900	-1.027668	-1.028939	0.044893	17.3699	-1.029607	-5.677939E+13	-7.906615E-16	NaN
583	1.000000	0.112174	7.37075e+06	-47939.1	1005.82	-29764.2	0.000000	0.000000	6.112772	0.111772	NaN	0.000000	0.001578	0.001705	28.0805	0.027898	0.002065	13.5096	119.157	15.5648	0.120107	0.110805	-1.017665	-1.019034	0.111772	13.5096	-1.023870	-4.753595E+13	-2.351318E-15	NaN
583	1.000000	0.122185	7.37075e+06	-47939.1	1005.82	-29764.2	0.000000	0.000000	6.122781	0.071850	NaN	0.000000	0.001565	0.001686	28.0808	0.046172	0.001993	23.1642	-32.4667	-163.7	0.000959	0.120851	-1.007655	-1.008988	0.071850	23.1642	-1.009981	-3.091179E+13	-2.324350E-15	NaN
583	1.000000	0.132198	7.37075e+06	-47939.1	1005.82	-29764.2	0.000000	0.000000	6.132793	0.038322	NaN	0.000000	0.001559	0.001664	28.0805	0.021850	0.001933	11.303	81.1222	15.5741	0.003532	0.130810	-0.997641	-0.999029	0.038322	11.303	-1.000184	-2.281618E+13	-1.679608E-15	NaN
583	1.000000	0.142143	7.37075e+06	-47939.1	1005.82	-29764.2	0.000000	0.000000	6.142740	0.081711	NaN	0.000000	0.001561	0.001694	28.0806	0.155179	0.002006	77.3707	98.3935	-163.086	0.023353	0.140832	-0.987696	-0.989007	0.081711	77.3707	-0.988488	-1.587639E+13	-5.146709E-15	NaN
583	1.000000	0.152191	7.37075e+06	-47939.1	1005.82	-29764.2	0.000000	0.000000	6.152787	0.056675	NaN	0.000000	0.001604	0.001686	28.0809	0.038058	0.001979	19.2321	110.663	15.3023	0.148751	0.150871	-0.977648	-0.978968	0.056675	19.2321	-0.979858	-1.214784E+13	-4.665462E-15	NaN
583	1.000000	0.162189	7.37075e+06	-47939.1	1005.82	-29764.2	0.000000	0.000000	6.162786	0.097384	NaN	0.000000	0.001608	0.001654	28.0807	0.083702	0.001929	43.385	-98.8984	-167.883	0.088290	0.160894	-0.967651	-0.968946	0.097384	43.385	-0.969334	-8.763706E+12	-1.111214E-14	NaN
583	1.000000	0.172207	7.37075e+06	-47939.1	1005.82	-29764.2	0.000000	0.000000	6.172800	-0.015831	NaN	0.000000	0.001643	0.001701	28.0789	0.067819	0.002103	32.2458	-118.805	16.058	0.125708	0.170838	-0.957632	-0.959001	-0.015831	32.2458	-0.957264	-6.025279E+12	2.627390E-15	NaN
583	1.000000	0.182191	7.37075e+06	-47939.1	1005.82	-29764.2	0.000000	0.000000	6.182789	0.111208	NaN	0.000000	0.001639	0.001694	28.0794	0.043633	0.002138	20.4129	-88.4119	-167.05	0.135463	0.180874	-0.947649	-0.948965	0.111208	20.4129	-0.951735	-5.074844E+12	-2.191362E-14	NaN
583	1.000000	0.192237	7.37075e+06	-47939.1	1005.82	-29764.2	0.000000	0.000000	6.192833	0.060131	NaN	0.000000	0.001635	0.001679	28.0793	0.059183	0.002040	29.0063	133.924	16.5931	0.058231	0.190815	-0.937602	-0.939024	0.060131	29.0063	-0.939157	-3.433735E+12	-1.751196E-14	NaN
583	1.000000	0.202201	7.37075e+06	-47939.1	1005.82	-29764.2	0.000000	0.000000	6.202797	0.062036	NaN	0.000000	0.001635	0.001670	28.0791	0.055687	0.001993	27.9481	-124.158	-164.086	0.054004	0.200931	-0.927638	-0.928909	0.062036	27.9481	-0.929303	-2.528085E+12	-2.453867E-14	NaN
583	1.000000	0.212218	7.37075e+06	-47939.1	1005.82	-29764.2	0.000000	0.000000	6.212814	0.057277	NaN	0.000000	0.001629	0.001682	28.0791	0.101281	0.001913	52.9522	153.328	14.7013	0.096643	0.210867	-0.917621	-0.918972	0.057277	52.9522	-0.918432	-1.803188E+12	-3.176414E-14	NaN
583	1.000000	0.222208	7.37075e+06	-47939.1	1005.82	-29764.2	0.000000	0.000000	6.222803	0.035101	NaN	0.000000	0.001626	0.001677	28.0792	0.044743	0.002095	21.3538	-77.1826	-167.387	-0.017074	0.220901	-0.907631	-0.908938	0.035101	21.3538	-0.908864	-1.339122E+12	-2.621210E-14	NaN
583	1.000000	0.232241	7.37075e+06	-47939.1	1005.82	-29764.2	0.000000	0.000000	6.232838	0.091465	NaN	0.000000	0.001617	0.001674	28.0794	0.141740	0.002037	69.5802	-149.936	15.3237	-0.009471	0.230852	-0.897598	-0.898987	0.091465	69.5802	-0.898584	-9.726049E+11	-9.404149E-14	NaN
583	1.000000	0.242220	7.37075e+06	-47939.1	1005.82	-29764.2	0.000000	0.000000	6.242817	0.070653	NaN	0.000000	0.001589	0.001669	28.0793	0.130142	0.001935	67.2665	76.2741	-164.394	0.014638	0.240914	-0.887619	-0.888926	0.070653	67.2665	-0.888407	-7.085620E+11	-9.971346E-14	NaN
583	1.000000	0.252229	7.37075e+06	-47939.1	1005.82	-29764.2	0.000000	0.000000	6.252828	0.133977	NaN	0.000000	0.001613	0.001681	28.0794	0.078661	0.001804	43.5981	164.752	16.1517	0.155317	0.250888	-0.877610	-0.878952	0.133977	43.5981	-0.879915	-5.439468E+11	-2.463057E-13	NaN
583	1.000000	0.262248	7.37075e+06	-47939.1	1005.82	-29764.2	0.000000	0.000000	6.262848	0.145112	NaN	0.000000	0.001618	0.001680	28.0797	0.158194	0.002029	77.9521	-173.467	-162.511	0.075273	0.260975	-0.867591	-0.868864	0.145112	77.9521	-0.868987	-3.870289E+11	-3.749394E-13	NaN
583	1.000000	0.272209	7.37075e+06	-47939.1	1005.82	-29764.2	0.000000	0.000000	6.272809	0.150323	NaN	0.000000	0.001570	0.001667	28.0794	0.108720	0.002051	53.0138	4.095846	13.4948	0.060336	0.270881	-0.857630	-0.858958	0.150323	53.0138	-0.859757	-2.902871E+11	-5.178426E-13	NaN
583	1.000000	0.282243	7.37075e+06	-47939.1	1005.82	-29764.2	0.000000	0.000000	6.282837	0.003894	NaN	0.000000	0.001641	0.001710	28.0794	0.105526	0.001986	53.137	-98.6341	-168.951	0.106799	0.280901	-0.847596	-0.848938	0.003894	53.137	-0.847651	-1.990341E+11	-1.956202E-14	NaN
583	1.000000	0.292235	7.37075e+06	-47939.1	1005.82	-29764.2	0.000000	0.000000	6.292832	0.088989	NaN	0.000000	0.001612	0.001684	28.0795	0.062460	0.001993	31.3423	56.8932	14.909	0.073866	0.290860	-0.837604	-0.838979	0.088989	31.3423	-0.839734	-1.554847E+11	-5.723329E-13	NaN
583	1.000000	0.302273	7.37075e+06	-47939.1	1005.82	-29764.2	0.000000	0.000000	6.302867	-0.001300	NaN	0.000000	0.001631	0.001702	28.0795	0.035580	0.002009	17.7075	32.4936	-165.11	0.014555	0.301003	-0.827566	-0.828837	-0.001300	17.7075	-0.827511	-1.061807E+11	1.223952E-14	NaN
583	1.000000	0.312285	7.37075e+06	-47939.1	1005.82	-29764.2	0.000000	0.000000	6.312880	0.039120	NaN	0.000000	0.001531	0.001722	28.0808	0.088786	0.001899	46.764	-41.0709	18.0468	0.040650	0.310861	-0.817554	-0.818978	0.039120	46.764	-0.818182	-7.935085E+10	-4.930010E-13	NaN
583	1.000000	0.322308	7.37075e+06	-47939.1	1005.82	-29764.2	0.000000	0.000000	6.322904	0.061975	NaN	0.000000	0.001498	0.001699	28.0806	0.005065	0.001994	2.540306	147.03	-166.569	0.108121	0.320956	-0.807531	-0.808884	0.061975	2.540306	-0.825828	-1.007483E+11	-6.151447E-13	NaN
583	1.000000	0.332237	7.37075e+06	-47939.1	1005.82	-29764.2	0.000000	0.000000	6.332834	0.096874	NaN	0.000000	0.001525	0.001699	28.0811	0.064281	0.002028	31.6895	26.9346	14.206	0.047221	0.330931	-0.797603	-0.798909	0.096874	31.6895	-0.799895	-4.481689E+10	-2.161546E-12	NaN
583	1.000000	0.342276	7.37075e+06	-47939.1	1005.82	-29764.2	0.000000	0.000000	6.342873	0.089544	NaN	0.000000	0.001509	0.001679	28.0806	0.113131	0.002100	53.8769	-174.681	-167.744	0.121785	0.340961	-0.787563	-0.788879	0.089544	53.8769	-0.788810	-3.168961E+10	-2.825654E-12	NaN
583	1.000000	0.352249	7.37075e+06	-47939.1	1005.82	-29764.2	0.000000	0.000000	6.352845	0.064727	NaN	0.000000	0.001574	0.001694	28.081	0.034235	0.002046	16.7352	-113.468	16.343	0.072840	0.350915	-0.777590	-0.778925	0.064727	16.7352	-0.780491	-2.442899E+10	-2.649617E-12	NaN
583	1.000000	0.362302	7.37075e+06	-47939.1	1005.82	-29764.2	0.000000	0.000000	6.362896	0.029754	NaN	0.000000	0.001568	0.001751	28.0805	0.130181	0.001973	65.9976	-20.4187	-164.716	0.106625	0.360976	-0.767538	-0.768864	0.029754	65.9976	-0.767876	-1.645978E+10	-1.807690E-12	NaN
583	1.000000	0.372262	7.37075e+06	-47939.1	1005.82	-29764.2	0.000000	0.000000	6.372858	0.065749	NaN	0.000000	0.001586	0.001719	28.081	0.052149	0.001953	26.704	179.79	17.1389	0.001124	0.370950	-0.757578	-0.758889	0.065749	26.704	-0.759424	-1.263191E+10	-5.204967E-12	NaN
583	1.000000	0.382267	7.37075e+06	-47939.1	1005.82	-29764.2	0.000000	0.000000	6.382865	0.116120	NaN	0.000000	0.001552	0.001732	28.0805	0.042881	0.002004	21.3976	-54.4593	-166.414	0.166010	0.380900	-0.747573	-0.748940	0.116120	21.3976	-0.751643	-9.898713E+9	-1.173077E-11	NaN
583	1.000000	0.392305	7.37075e+06	-47939.1	1005.82	-29764.2	0.000000	0.000000	6.392903	0.103039	NaN	0.000000	0.001553	0.001719	28.0806	0.108163	0.001910	56.6439	-107.189	16.5631	0.127232	0.390953	-0.737535	-0.738886	0.103039	56.6439	-0.738899	-6.638298E+9	-1.552184E-11	NaN
583	1.000000	0.402290	7.37075e+06	-47939.1	1005.82	-29764.2	0.000000	0.000000	6.402887	0.086530	NaN	0.000000	0.001536	0.001741	28.0806	0.082758	0.002063	40.1181	-117.807	-165.672	0.082922	0.400984	-0.727549	-0.728855	0.086530	40.1181	-0.729167	-4.891660E+9	-1.768935E-11	NaN
583	1.000000	0.412285	7.37075e+06	-47939.1	1005.82	-29764.2	0.000000	0.000000	6.412883	0.099730	NaN	0.000000	0.001574	0.001734	28.0807	0.097551	0.002139	45.6036	90.6879	17.3213	0.078601	0.410943	-0.717554	-0.718897	0.099730	45.6036	-0.719194	-3.576727E+9	-2.788304E-11	NaN
583	1.000000	0.422301	7.37075e+06	-47939.1	1005.82	-29764.2	0.000000	0.000000	6.422895	0.020405	NaN	0.000000	0.001561	0.001695	28.0805	0.098254	0.001936	50.7394	81.1395	-160.512	0.047788	0.421044	-0.707538	-0.708796	0.020405	50.7394	-0.707840	-2.503614E+9	-8.150168E-12	NaN
583	1.000000	0.432317	7.37075e+06	-47939.1	1005.82	-29764.2	0.000000	0.000000	6.432914	0.097516	NaN	0.000000	0.001542	0.001742	28.0805	0.077800	0.001932	40.2695	150.274	13.7955	0.106688	0.430932	-0.697523	-0.698907	0.097516	40.2695	-0.699339	-1.916464E+9	-5.088312E-11	NaN
583	1.000000	0.442298	7.37075e+06	-47939.1	1005.82	-29764.2	0.000000	0.000000	6.442891	0.003325	NaN	0.000000	0.001605	0.001694	28.0795	0.035419	0.001897	18.6751	-118.567	-163.295	0.048705	0.441018	-0.687542	-0.688821	0.003325	18.6751	-0.687675	-1.327832E+9	-2.503768E-12	NaN
583	1.000000	0.452324	7.37075e+06	-47939.1	1005.82	-29764.2	0.000000	0.000000	6.452917	-0.022336	NaN	0.000000	0.001560	0.001724	28.0792	0.069282	0.002117	32.7288	123.721	13.1603	0.018289	0.450912	-0.677515	-0.678927	-0.022336	32.7288	-0.677003	-9.488842E+8	2.353896E-11	NaN
583	1.000000	0.462330	7.37075e+06	-47939.1	1005.82	-29764.2	0.000000	0.000000	6.462926	0.050522	NaN	0.000000	0.001568	0.001749	28.0792	0.131885	0.002053	64.2361	-168.949	-165.903	-0.024953	0.460978	-0.667509	-0.668862	0.050522	64.2361	-0.668099	-7.167588E+8	-7.048618E-11	NaN
583	1.000000	0.472336	7.37075e+06	-47939.1	1005.82	-29764.2	0.000000	0.000000	6.472933	0.080924	NaN	0.000000	0.001518	0.001751	28.0793	0.101111	0.001981	51.0484	154.748	16.5667	0.141300	0.471013	-0.657503	-0.658826	0.080924	51.0484	-0.658692	-5.327817E+8	-1.518893E-10	NaN
583	1.000000	0.482357	7.37075e+06	-47939.1	1005.82	-29764.2	0.000000	0.000000	6.482953	0.069585	NaN	0.000000	0.001515	0.001776	28.0793	0.086094	0.001997	43.1112	-170.822	-168.543	0.113406	0.481018	-0.647483	-0.648821	0.069585	43.1112	-0.648693	-3.886167E+8	-1.790593E-10	NaN
583	1.000000	0.492322	7.37075e+06	-47939.1	1005.82	-29764.2	0.000000	0.000000	6.492917	0.051959	NaN	0.000000	0.001486	0.001741	28.0795	0.110852	0.002152	51.5002	-112.197	15.5626	0.054732	0.490958	-0.637517	-0.638881	0.051959	51.5002	-0.638274	-2.796459E+8	-1.858022E-10	NaN
583	1.000000	0.502366	7.37075e+06	-47939.1	1005.82	-29764.2	0.000000	0.000000	6.502964	0.095763	NaN	0.000000	0.001550	0.001745	28.0793	0.089695	0.001985	45.1831	-35.191	-165.025	0.064005	0.501047	-0.627473	-0.628792	0.095763	45.1831	-0.629063	-2.090025E+8	-4.581901E-10	NaN
583	1.000000	0.512346	7.37075e+06	-47939.1	1005.82	-29764.2	0.000000	0.000000	6.512941	0.035665	NaN	0.000000	0.001532	0.001734	28.0799	0.026546	0.001989	13.3483	-32.6187	16.8167	0.095913	0.510982	-0.617493	-0.618857	0.035665	13.3483	-0.619497	-1.544244E+8	-2.309553E-10	NaN
583	1.000000	0.522378	7.37075e+06	-47939.1	1005.82	-29764.2	0.000000	0.000000	6.522975	0.089150	NaN	0.000000	0.001542	0.001758	28.0795	0.067920	0.002058	33.0035	-23.3505	-166.186	0.140891	0.521047	-0.607461	-0.608792	0.089150	33.0035	-0.609487	-1.124755E+8	-7.926127E-10	NaN
583	1.000000	0.532371	7.37075e+06	-47939.1	1005.82	-29764.2	0.000000	0.000000	6.532969	0.089783	NaN	0.000000	0.001550	0.001732	28.0796	0.077400	0.002015	38.416	-122.398	15.9585	0.043242	0.531029	-0.597468	-0.598810	0.089783	38.416	-0.599221	-8.123232E+7	-1.105259E-9	NaN
583	1.000000	0.542369	7.37075e+06	-47939.1	1005.82	-29764.2	0.000000	0.000000	6.542965	0.054922	NaN	0.000000	0.001627	0.001678	28.0794	0.054563	0.002014	27.0978	-55.0769	-167.23	0.085629	0.541060	-0.587470	-0.588779	0.054922	27.0978	-0.588991	-5.871503E+7	-9.354059E-10	NaN
583	1.000000	0.552347	7.37075e+06	-47939.1	1005.82	-29764.2	0.000000	0.000000	6.552944	0.078160	NaN	0.000000	0.001618	0.001763	28.08	0.012036	0.001993	6.037419	89.7214	16.4174	0.092639	0.550998	-0.577492	-0.578842	0.078160	6.037419	-0.587202	-5.547270E+7	-1.408973E-9	NaN
583	1.000000	0.562369	7.37075e+06	-47939.1	1005.82	-29764.2	0.000000	0.000000	6.562965	0.066553	NaN	0.000000	0.001611	0.001719	28.0795	0.093814	0.001983	47.3168	-101.789	-165.62	0.100546	0.561057	-0.567470	-0.568782	0.066553	47.3168	-0.568525	-3.063760E+7	-2.172281E-9	NaN
583	1.000000	0.572380	7.37075e+06	-47939.1	1005.82	-29764.2	0.000000	0.000000	6.572975	0.033323	NaN	0.000000	0.001621	0.001714	28.0795	0.073757	0.001901	38.8074	2.851829	11.3747	0.072540	0.571020	-0.557459	-0.558819	0.033323	38.8074	-0.558103	-2.198536E+7	-1.515681E-9	NaN
583	1.000000	0.582369	7.37075e+06	-47939.1	1005.82	-29764.2	0.000000	0.000000	6.582966	0.091252	NaN	0.000000	0.001646	0.001692	28.0809	0.036065	0.002075	17.384	-69.3365	-167.088	0.084518	0.581076	-0.547471	-0.548764	0.091252	17.384	-0.551407	-1.776024E+7	-5.137993E-9	NaN
583	1.000000	0.592371	7.37075e+06	-47939.1	1005.82	-29764.2	0.000000	0.000000	6.592966	0.027748	NaN	0.000000	0.001631	0.001711	28.0807	0.058554	0.001884	31.0832	-28.5291	12.8489	0.010953	0.591019	-0.537468	-0.538820	0.027748	31.0832	-0.538138	-1.162867E+7	-2.386134E-9	NaN
583	1.000000	0.602371	7.37075e+06	-47939.1	1005.82	-29764.2	0.000000	0.000000	6.602969	0.108821	NaN	0.000000	0.001595	0.001715	28.0807	0.005115	0.001996	2.561972	101.149	-168.279	0.103558	0.601099	-0.527468	-0.528740	0.108821	2.561972	-0.559325	-2.285827E+7	-4.760706E-9	NaN
583	1.000000	0.612398	7.37075e+06	-47939.1	1005.82	-29764.2	0.000000	0.000000	6.612993	0.036145	NaN	0.000000	0.001636	0.001716	28.0805	0.206248	0.002044	100.903	103.95	14.8273	0.099946	0.611045	-0.517441	-0.518794	0.036145	100.903	-0.517710	-6.04983e+06	-5.974623E-9	NaN
583	1.000000	0.622392	7.37075e+06	-47939.1	1005.82	-29764.2	0.000000	0.000000	6.622989	0.079333	NaN	0.000000	0.001608	0.001715	28.0811	0.072610	0.002051	35.4059	-106.808	-165.306	0.039839	0.621098	-0.507447	-0.508741	0.079333	35.4059	-0.509128	-4.59476e+06	-1.726589E-8	NaN
583	1.000000	0.632400	7.37075e+06	-47939.1	1005.82	-29764.2	0.000000	0.000000	6.632998	0.102112	NaN	0.000000	0.001597	0.001740	28.0807	0.033624	0.001988	16.9113	-21.0442	12.8644	0.047839	0.631021	-0.497439	-0.498818	0.102112	16.9113	-0.501968	-3.65147e+06	-2.796451E-8	NaN
583	1.000000	0.642408	7.37075e+06	-47939.1	1005.82	-29764.2	0.000000	0.000000	6.643002	0.027084	NaN	0.000000	0.001646	0.001763	28.0808	0.036629	0.001906	19.221	49.508	-168.503	0.081383	0.641112	-0.487432	-0.488728	0.027084	19.221	-0.488488	-2.36737e+06	-1.144043E-8	NaN
583	1.000000	0.652431	7.37075e+06	-47939.1	1005.82	-29764.2	0.000000	0.000000	6.653027	0.055250	NaN	0.000000	0.001624	0.001754	28.0807	0.079837	0.001942	41.1042	65.4698	15.1539	0.036828	0.651084	-0.477408	-0.478756	0.055250	41.1042	-0.478417	-1.71142e+06	-3.228315E-8	NaN
583	1.000000	0.662411	7.37075e+06	-47939.1	1005.82	-29764.2	0.000000	0.000000	6.663005	0.015686	NaN	0.000000	0.001505	0.001741	28.0811	0.032169	0.001918	16.7735	-62.1277	-169.527	-0.017063	0.661116	-0.467429	-0.468723	0.015686	16.7735	-0.468130	-1.22794e+06	-1.277442E-8	NaN
583	1.000000	0.672421	7.37075e+06	-47939.1	1005.82	-29764.2	0.000000	0.000000	6.673014	-0.009404	NaN	0.000000	0.001566	0.001714	28.0805	0.094007	0.001967	47.7817	171.224	13.4149	-0.018112	0.671097	-0.457419	-0.458742	-0.009404	47.7817	-0.457271	-864286	1.088072E-8	NaN
583	1.000000	0.682436	7.37075e+06	-47939.1	1005.82	-29764.2	0.000000	0.000000	6.683032	0.070004	NaN	0.000000	0.001561	0.001726	28.0807	0.138887	0.002082	66.7215	83.7991	-169.176	0.034450	0.681094	-0.447404	-0.448745	0.070004	66.7215	-0.448190	-643954	-1.087091E-7	NaN
583	1.000000	0.692404	7.37075e+06	-47939.1	1005.82	-29764.2	0.000000	0.000000	6.692997	0.009459	NaN	0.000000	0.001593	0.001709	28.0808	0.138055	0.001999	69.0713	-162.03	13.1869	0.082442	0.691075	-0.437436	-0.438764	0.009459	69.0713	-0.437538	-455630	-2.075928E-8	NaN
583	1.000000	0.702426	7.37075e+06	-47939.1	1005.82	-29764.2	0.000000	0.000000	6.703023	0.095909	NaN	0.000000	0.001607	0.001761	28.0805	0.116285	0.002009	57.8867	-28.0807	-164.62	0.162932	0.701118	-0.427413	-0.428721	0.095909	57.8867	-0.428656	-341228	-2.810685E-7	NaN
583	1.000000	0.712432	7.37075e+06	-47939.1	1005.82	-29764.2	0.000000	0.000000	6.713027	0.038420	NaN	0.000000	0.001605	0.001757	28.0805	0.060175	0.001985	30.3185	-137.341	14.0987	-0.023618	0.711071	-0.417407	-0.418768	0.038420	30.3185	-0.418358	-243848	-1.575564E-7	NaN
583	1.000000	0.722440	7.37075e+06	-47939.1	1005.82	-29764.2	0.000000	0.000000	6.723036	0.071174	NaN	0.000000	0.001605	0.001742	28.0792	0.024202	0.002054	11.7822	-173.756	-166.373	0.033261	0.721133	-0.407400	-0.408706	0.071174	11.7822	-0.411930	-197625	-3.601475E-7	NaN
583	1.000000	0.732469	7.37075e+06	-47939.1	1005.82	-29764.2	0.000000	0.000000	6.733066	0.068323	NaN	0.000000	0.001576	0.001794	28.0796	0.010199	0.001870	5.453426	16.0378	13.3692	0.037839	0.731052	-0.397370	-0.398788	0.068323	5.453426	-0.406766	-166876	-4.094238E-7	NaN
583	1.000000	0.742451	7.37075e+06	-47939.1	1005.82	-29764.2	0.000000	0.000000	6.743046	0.046555	NaN	0.000000	0.001556	0.001726	28.0796	0.025095	0.002069	12.1289	-143.79	-165.3	0.073808	0.741103	-0.387389	-0.388737	0.046555	12.1289	-0.390268	-97049.5	-4.797029E-7	NaN
583	1.000000	0.752474	7.37075e+06	-47939.1	1005.82	-29764.2	0.000000	0.000000	6.753072	0.116463	NaN	0.000000	0.001595	0.001754	28.0794	0.069054	0.002041	33.8361	-90.3438	13.1116	0.085878	0.751068	-0.377365	-0.378772	0.116463	33.8361	-0.379947	-69043.9	-1.686793E-6	NaN
583	1.000000	0.762447	7.37075e+06	-47939.1	1005.82	-29764.2	0.000000	0.000000	6.763042	0.037463	NaN	0.000000	0.001586	0.001729	28.0794	0.026740	0.002000	13.3686	62.5601	-168.521	0.058109	0.761152	-0.367393	-0.368688	0.037463	13.3686	-0.369494	-48847.6	-7.669303E-7	NaN
583	1.000000	0.772447	7.37075e+06	-47939.1	1005.82	-29764.2	0.000000	0.000000	6.773040	-0.012702	NaN	0.000000	0.001594	0.001742	28.0796	0.024962	0.001969	12.6791	-29.6549	14.5425	-0.004618	0.771083	-0.357392	-0.358756	-0.012702	12.6791	-0.356641	-31860.8	3.986565E-7	NaN
583	1.000000	0.782457	7.37075e+06	-47939.1	1005.82	-29764.2	0.000000	0.000000	6.783052	0.035194	NaN	0.000000	0.001586	0.001748	28.0795	0.014219	0.002114	6.726026	120.932	-167.527	0.027374	0.781164	-0.347382	-0.348675	0.035194	6.726026	-0.351306	-26665.9	-1.319825E-6	NaN
583	1.000000	0.792484	7.37075e+06	-47939.1	1005.82	-29764.2	0.000000	0.000000	6.793079	0.048919	NaN	0.000000	0.001582	0.001747	28.0792	0.082602	0.001861	44.3815	-101.449	12.7724	0.117322	0.791100	-0.337356	-0.338740	0.048919	44.3815	-0.338182	-17180.9	-2.847305E-6	NaN
583	1.000000	0.802474	7.37075e+06	-47939.1	1005.82	-29764.2	0.000000	0.000000	6.803070	0.053357	NaN	0.000000	0.001614	0.001728	28.0791	0.057887	0.001994	29.0363	87.8447	-166.453	0.102579	0.801152	-0.327365	-0.328687	0.053357	29.0363	-0.328744	-12503.9	-4.267204E-6	NaN
583	1.000000	0.812472	7.37075e+06	-47939.1	1005.82	-29764.2	0.000000	0.000000	6.813069	0.074405	NaN	0.000000	0.001600	0.001787	28.0796	0.059981	0.002137	28.0724	-110.407	16.7726	0.043477	0.811072	-0.317367	-0.318767	0.074405	28.0724	-0.319355	-9102.17	-8.174393E-6	NaN
583	1.000000	0.822480	7.37075e+06	-47939.1	1005.82	-29764.2	0.000000	0.000000	6.823074	0.020653	NaN	0.000000	0.001627	0.001741	28.0793	0.066740	0.002015	33.1243	-113.605	-168.155	0.041349	0.821173	-0.307360	-0.308666	0.020653	33.1243	-0.307827	-6150.07	-3.358234E-6	NaN
583	1.000000	0.832506	7.37075e+06	-47939.1	1005.82	-29764.2	0.000000	0.000000	6.833101	0.032175	NaN	0.000000	0.001630	0.001767	28.0795	0.043293	0.002118	20.4421	167.894	13.7595	-0.049419	0.831095	-0.297333	-0.298744	0.032175	20.4421	-0.298514	-4472	-7.194872E-6	NaN
583	1.000000	0.842506	7.37075e+06	-47939.1	1005.82	-29764.2	0.000000	0.000000	6.843100	-0.008092	NaN	0.000000	0.001622	0.001763	28.0795	0.089052	0.002017	44.1544	42.7998	-166.998	0.077157	0.841123	-0.287333	-0.288717	-0.008092	44.1544	-0.287195	-3028.62	2.671974E-6	NaN
583	1.000000	0.852478	7.37075e+06	-47939.1	1005.82	-29764.2	0.000000	0.000000	6.853071	-0.006528	NaN	0.000000	0.001610	0.001786	28.0811	0.167379	0.001943	86.1532	-179.774	10.1692	-0.003862	0.851131	-0.277361	-0.278708	-0.006528	86.1532	-0.277304	-2149.13	3.037356E-6	NaN
583	1.000000	0.862498	7.37075e+06	-47939.1	1005.82	-29764.2	0.000000	0.000000	6.863093	0.048325	NaN	0.000000	0.001597	0.001710	28.0807	0.011961	0.001962	6.095453	-29.478	-166.679	0.024036	0.861213	-0.267342	-0.268626	0.048325	6.095453	-0.273288	-1868.33	-2.586524E-5	NaN
583	1.000000	0.872490	7.37075e+06	-47939.1	1005.82	-29764.2	0.000000	0.000000	6.873087	0.084434	NaN	0.000000	0.001612	0.001752	28.0815	0.124831	0.002132	58.5583	174.662	16.5341	0.033075	0.871130	-0.257349	-0.258709	0.084434	58.5583	-0.258431	-1108.79	-7.614960E-5	NaN
583	1.000000	0.882480	7.37075e+06	-47939.1	1005.82	-29764.2	0.000000	0.000000	6.883078	0.100286	NaN	0.000000	0.001574	0.001748	28.0808	0.045824	0.002063	22.2105	-86.7298	-165.727	0.096380	0.881208	-0.247359	-0.248631	0.100286	22.2105	-0.250745	-844.288	-0.000119	NaN
583	1.000000	0.892509	7.37075e+06	-47939.1	1005.82	-29764.2	0.000000	0.000000	6.893105	0.055219	NaN	0.000000	0.001585	0.001742	28.0809	0.014805	0.001984	7.461042	-155.927	11.7778	-0.016226	0.891112	-0.237330	-0.238727	0.055219	7.461042	-0.242881	-637.503	-8.661810E-5	NaN
583	1.000000	0.902517	7.37075e+06	-47939.1	1005.82	-29764.2	0.000000	0.000000	6.903112	0.019856	NaN	0.000000	0.001627	0.001791	28.0808	0.057218	0.001915	29.8738	-55.1922	-167.317	0.030850	0.901182	-0.227322	-0.228657	0.019856	29.8738	-0.227820	-369.877	-5.368381E-5	NaN
583	1.000000	0.912507	7.37075e+06	-47939.1	1005.82	-29764.2	0.000000	0.000000	6.913100	-0.004770	NaN	0.000000	0.001580	0.001767	28.081	0.066287	0.002005	33.0626	136.052	15.8863	0.117089	0.911184	-0.217333	-0.218655	-0.004770	33.0626	-0.217224	-250.751	1.902102E-5	NaN
583	1.000000	0.922521	7.37075e+06	-47939.1	1005.82	-29764.2	0.000000	0.000000	6.923118	0.081082	NaN	0.000000	0.001594	0.001763	28.0811	0.033281	0.002017	16.504	170.528	-166.241	0.018515	0.921204	-0.207318	-0.208635	0.081082	16.504	-0.211003	-199.087	-0.000407	NaN
583	1.000000	0.932537	7.37075e+06	-47939.1	1005.82	-29764.2	0.000000	0.000000	6.933131	0.027070	NaN	0.000000	0.001591	0.001732	28.0808	0.079515	0.001975	40.2646	34.0342	14.5833	-0.000614	0.931192	-0.197303	-0.198647	0.027070	40.2646	-0.197807	-121.226	-0.000223	NaN
583	1.000000	0.942549	7.37075e+06	-47939.1	1005.82	-29764.2	0.000000	0.000000	6.943142	-0.002513	NaN	0.000000	0.001612	0.001762	28.0809	0.065043	0.001869	34.8029	-152.415	-168.255	-0.077975	0.941242	-0.187291	-0.188598	-0.002513	34.8029	-0.187237	-80.8633	3.107305E-5	NaN
583	1.000000	0.952542	7.37075e+06	-47939.1	1005.82	-29764.2	0.000000	0.000000	6.953139	0.079282	NaN	0.000000	0.001585	0.001752	28.0808	0.038950	0.002038	19.1096	-48.5678	11.7763	0.092309	0.951162	-0.177297	-0.178677	0.079282	19.1096	-0.180409	-62.0044	-0.001279	NaN
583	1.000000	0.962520	7.37075e+06	-47939.1	1005.82	-29764.2	0.000000	0.000000	6.963115	0.037527	NaN	0.000000	0.001621	0.001736	28.0809	0.019383	0.001935	10.0167	141.625	-164.221	0.085728	0.961272	-0.167319	-0.168567	0.037527	10.0167	-0.170129	-41.2912	-0.000909	NaN
583	1.000000	0.972563	7.37075e+06	-47939.1	1005.82	-29764.2	0.000000	0.000000	6.973158	0.053603	NaN	0.000000	0.001595	0.001736	28.0808	0.075096	0.002020	37.17	102.136	12.2832	0.116669	0.971157	-0.157277	-0.158682	0.053603	37.17	-0.158358	-25.6301	-0.002091	NaN
583	1.000000	0.982519	7.37075e+06	-47939.1	1005.82	-29764.2	0.000000	0.000000	6.983113	0.023367	NaN	0.000000	0.001617	0.001757	28.0807	0.002347	0.002048	1.146252	-125.754	-166.694	0.020787	0.981175	-0.147320	-0.148665	0.023367	1.146252	-0.162609	-30.4937	-0.000766	NaN
583	1.000000	0.992514	7.37075e+06	-47939.1	1005.82	-29764.2	0.000000	0.000000	6.993107	-0.006444	NaN	0.000000	0.001592	0.001778	28.0798	0.126502	0.001985	63.7295	-168.995	11.7072	0.049541	0.991162	-0.137326	-0.138678	-0.006444	63.7295	-0.137250	-10.4974	0.000614	NaN
583	1.000000	1.002555	7.37075e+06	-47939.1	1005.82	-29764.2	0.000000	0.000000	7.003152	0.092611	NaN	0.000000	0.001578	0.001779	28.0796	0.061334	0.001967	31.1779	-58.4165	-166.99	0.091702	1.001236	-0.127284	-0.128603	0.092611	31.1779	-0.129512	-7.456372	-0.012420	NaN
583	1.000000	1.012553	7.37075e+06	-47939.1	1005.82	-29764.2	0.000000	0.000000	7.013148	0.033678	NaN	0.000000	0.001557	0.001769	28.0796	0.088815	0.002142	41.4643	171.666	9.983194	0.063874	1.011147	-0.117286	-0.118692	0.033678	41.4643	-0.117896	-4.379490	-0.007690	NaN
583	1.000000	1.022539	7.37075e+06	-47939.1	1005.82	-29764.2	0.000000	0.000000	7.023134	0.028841	NaN	0.000000	0.001582	0.001756	28.0796	0.092919	0.001887	49.2361	-3.637116	-167.295	-0.019036	1.021236	-0.107300	-0.108603	0.028841	49.2361	-0.107740	-2.691285	-0.010717	NaN
583	1.000000	1.032569	7.37075e+06	-47939.1	1005.82	-29764.2	0.000000	0.000000	7.033167	0.109848	NaN	0.000000	0.001580	0.001754	28.0801	0.057768	0.001835	31.4768	81.5968	17.0525	0.218417	1.031256	-0.097270	-0.098583	0.109848	31.4768	-0.099888	-1.816686	-0.060466	NaN
583	1.000000	1.042560	7.37076e+06	-47939.1	1005.82	-29764.2	0.000000	0.000000	7.043154	0.012350	NaN	0.000000	0.001575	0.001754	28.0799	0.063512	0.002061	30.8148	-28.5707	-167.551	0.039668	1.041196	-0.087279	-0.088643	0.012350	30.8148	-0.087580	-0.947556	-0.013034	NaN
583	1.000000	1.052550	7.37076e+06	-47939.1	1005.82	-29764.2	0.000000	0.000000	7.053146	0.076429	NaN	0.000000	0.001583	0.001767	28.0796	0.100950	0.002090	48.2968	-179.387	13.3543	0.153435	1.051219	-0.077290	-0.078620	0.076429	48.2968	-0.078476	-0.566751	-0.134854	NaN
583	1.000000	1.062591	7.37076e+06	-47939.1	1005.82	-29764.2	0.000000	0.000000	7.063188	0.085429	NaN	0.000000	0.001557	0.001735	28.0797	0.097797	0.002058	47.5212	-131.064	-170.559	0.036405	1.061246	-0.067249	-0.068593	0.085429	47.5212	-0.068597	-0.312693	-0.273205	NaN
583	1.000000	1.072576	7.37076e+06	-47939.1	1005.82	-29764.2	0.000000	0.000000	7.073171	0.047379	NaN	0.000000	0.001574	0.001737	28.0797	0.097723	0.001929	50.6679	-24.3612	12.2341	0.077888	1.071174	-0.057264	-0.058665	0.047379	50.6679	-0.057965	-0.157306	-0.301191	NaN
583	1.000000	1.082578	7.37076e+06	-47939.1	1005.82	-29764.2	0.000000	0.000000	7.083175	0.071459	NaN	0.000000	0.001608	0.001744	28.0796	0.044919	0.002058	21.8264	31.9173	-163.944	0.039376	1.081282	-0.047261	-0.048557	0.071459	21.8264	-0.049716	-0.089465	-0.798729	NaN
583	1.000000	1.092595	7.37076e+06	-47939.1	1005.82	-29764.2	0.000000	0.000000	7.093191	0.050914	NaN	0.000000	0.001607	0.001735	28.0794	0.092771	0.002034	45.6087	-33.2764	13.8197	0.135699	1.091243	-0.037244	-0.038596	0.050914	45.6087	-0.038082	-0.039566	-1.286824	NaN
583	1.000000	1.102596	7.37076e+06	-47939.1	1005.82	-29764.2	0.000000	0.000000	7.103193	0.069134	NaN	0.000000	0.001598	0.001732	28.0798	0.053212	0.002129	24.9929	-55.8834	-164.372	0.010454	1.101299	-0.027243	-0.028540	0.069134	24.9929	-0.029318	-0.022031	-3.137970	NaN
583	1.000000	1.112578	7.37076e+06	-47939.1	1005.82	-29764.2	0.000000	0.000000	7.113175	0.099004	NaN	0.000000	0.001600	0.001763	28.0795	0.077435	0.002057	37.6421	75.6098	10.4306	0.133631	1.111259	-0.017261	-0.018580	0.099004	37.6421	-0.019234	-0.012009	-8.244295	NaN
583	1.000000	1.122578	7.37076e+06	-47939.1	1005.82	-29764.2	0.000000	0.000000	7.123174	0.066479	NaN	0.000000	0.001629	0.001756	28.08	0.129741	0.002035	63.7588	48.312	-168.336	0.022424	1.121312	-0.007262	-0.008528	0.066479	63.7588	-0.008044	-0.005257	-12.6451	NaN
583	2.000000	1.132366	7.37076e+06	-47939.1	1005.82	-29764.2	0.000000	0.000000	7.133283	7.878680	NaN	0.000000	0.001593	0.001739	28.0809	7.532360	0.001684	4472.52	10.3252	9.118867	6.190829	1.131211	0.002526	0.001371	7.878680	4472.52	0.001205	0.000922	8544.25	134566
583	2.000000	1.135281	7.37076e+06	-47939.1	1005.82	-29764.2	0.000000	0.000000	7.136433	13.5762	NaN	0.000000	0.001594	0.001727	28.0818	9.966146	0.001585	6286.49	5.434274	-172.114	13.0802	1.134900	0.005442	0.005061	13.5762	6286.49	0.003822	0.003084	4402.47	103429
583	2.000000	1.137729	7.37076e+06	-47939.1	1005.82	-29764.2	0.000000	0.000000	7.138974	15.8546	NaN	0.000000	0.001602	0.001702	28.0808	13.8052	0.001815	7604.55	4.767083	5.456027	13.7998	1.137357	0.007889	0.007518	15.8546	7604.55	0.006326	0.005376	2949.17	94758.8
583	2.000000	1.140240	7.37076e+06	-47939.1	1005.82	-29764.2	0.000000	0.000000	7.141562	17.7385	NaN	0.000000	0.001627	0.001756	28.0811	16.346	0.001731	9443.19	4.647626	-175.572	17.8885	1.139925	0.010400	0.010086	17.7385	9443.19	0.008991	0.008082	2194.8	95969
583	2.000000	1.142774	7.37076e+06	-47939.1	1005.82	-29764.2	0.000000	0.000000	7.144414	25.4413	NaN	0.000000	0.001564	0.001752	28.0804	19.1435	0.001802	10623.8	8.451242	1.161952	25.2725	1.142375	0.012935	0.012535	25.4413	10623.8	0.011139	0.010475	2428.74	94836.2
583	2.000000	1.145199	7.37076e+06	-47939.1	1005.82	-29764.2	0.000000	0.000000	7.147100	31.8163	NaN	0.000000	0.001605	0.001729	28.0813	21.8995	0.001693	12933.9	8.724927	177.735	30.7337	1.144847	0.015359	0.015008	31.8163	12933.9	0.013514	0.013355	2382.35	102254
583	2.000000	1.147687	7.37076e+06	-47939.1	1005.82	-29764.2	0.000000	0.000000	7.149929	40.0904	NaN	0.000000	0.001601	0.001748	28.0807	23.6265	0.001695	13936.8	3.375984	1.746540	37.7277	1.147373	0.017848	0.017533	40.0904	13936.8	0.015691	0.016218	2472.04	99987.4
583	2.000000	1.150175	7.37076e+06	-47939.1	1005.82	-29764.2	0.000000	0.000000	7.152692	46.7931	NaN	0.000000	0.001662	0.001730	28.0807	26.9566	0.001779	15152.5	4.370697	-179.473	45.0677	1.149837	0.020335	0.019998	46.7931	15152.5	0.018019	0.019525	2396.61	99075.3
583	2.000000	1.152719	7.37076e+06	-47939.1	1005.82	-29764.2	0.000000	0.000000	7.155521	53.7298	NaN	0.000000	0.001692	0.001757	28.0805	28.9556	0.001629	17776.5	4.075097	0.225472	53.6501	1.152332	0.022880	0.022493	53.7298	17776.5	0.020613	0.023514	2285	105915
583	2.000000	1.155209	7.37076e+06	-47939.1	1005.82	-29764.2	0.000000	0.000000	7.158417	63.5923	NaN	0.000000	0.001688	0.001774	28.0807	30.9539	0.001716	18041.6	6.099686	177.963	64.0308	1.154849	0.025370	0.025009	63.5923	18041.6	0.022726	0.027009	2354.5	100298
583	2.000000	1.157698	7.37076e+06	-47939.1	1005.82	-29764.2	0.000000	0.000000	7.161316	73.5417	NaN	0.000000	0.001678	0.001724	28.0805	33.5053	0.001682	19925.3	1.694240	1.530191	72.895	1.157267	0.027859	0.027428	73.5417	19925.3	0.025091	0.031181	2358.52	103093
583	2.000000	1.160113	7.37076e+06	-47939.1	1005.82	-29764.2	0.000000	0.000000	7.163987	79.7972	NaN	0.000000	0.001688	0.001724	28.0806	36.7801	0.001775	20719.4	0.803833	-178.701	76.2566	1.159971	0.030273	0.030131	79.7972	20719.4	0.027385	0.035498	2247.95	100473
583	2.000000	1.162721	7.37076e+06	-47939.1	1005.82	-29764.2	0.000000	0.000000	7.167075	91.4627	NaN	0.000000	0.001640	0.001780	28.0808	39.2339	0.001762	22265.6	5.652373	-2.705951	89.6511	1.162281	0.032882	0.032441	91.4627	22265.6	0.029801	0.040332	2267.75	101294
583	2.000000	1.165191	7.37076e+06	-47939.1	1005.82	-29764.2	0.000000	0.000000	7.169977	101.977	NaN	0.000000	0.001624	0.001759	28.0801	43.0358	0.001796	23961.2	9.573047	171.623	101.442	1.164755	0.035351	0.034915	101.977	23961.2	0.032159	0.045338	2249.26	102814
583	2.000000	1.167647	7.37076e+06	-47939.1	1005.82	-29764.2	0.000000	0.000000	7.173069	117.441	NaN	0.000000	0.001629	0.001749	28.0794	44.964	0.001880	23913.1	5.617479	-3.192277	114.888	1.167172	0.037808	0.037333	117.441	23913.1	0.034125	0.049727	2361.71	97974
583	2.000000	1.170197	7.37076e+06	-47939.1	1005.82	-29764.2	0.000000	0.000000	7.175812	122.141	NaN	0.000000	0.001633	0.001728	28.0795	47.5839	0.001853	25675.9	5.260784	175.743	125.922	1.169935	0.040358	0.040096	122.141	25675.9	0.036790	0.055996	2181.24	99133.3
583	2.000000	1.172629	7.37076e+06	-47939.1	1005.82	-29764.2	0.000000	0.000000	7.178893	137.936	NaN	0.000000	0.001596	0.001735	28.0796	49.4749	0.001818	27210.1	4.753551	-4.732825	133.221	1.172285	0.042789	0.042445	137.936	27210.1	0.038987	0.061438	2245.14	100297
583	2.000000	1.175136	7.37076e+06	-47939.1	1005.82	-29764.2	0.000000	0.000000	7.181739	146.178	NaN	0.000000	0.001639	0.001717	28.0796	50.799	0.001679	30256.8	0.523212	178.802	146.756	1.174829	0.045296	0.044990	146.178	30256.8	0.041673	0.068423	2136.38	105680
583	2.000000	1.177624	7.37076e+06	-47939.1	1005.82	-29764.2	0.000000	0.000000	7.184865	161.686	NaN	0.000000	0.001557	0.001687	28.0792	54.4247	0.001802	30197.7	4.013695	-4.134231	159.567	1.177281	0.047785	0.047442	161.686	30197.7	0.043769	0.074131	2181.08	101332
583	2.000000	1.180187	7.37076e+06	-47939.1	1005.82	-29764.2	0.000000	0.000000	7.187762	169.812	NaN	0.000000	0.001579	0.001733	28.0793	56.4312	0.001881	30004.8	-0.071159	179.292	168.768	1.179930	0.050347	0.050091	169.812	30004.8	0.046103	0.080748	2102.97	96471
583	2.000000	1.182752	7.37076e+06	-47939.1	1005.82	-29764.2	0.000000	0.000000	7.190863	182.849	NaN	0.000000	0.001605	0.001726	28.0795	59.1981	0.001860	31822.7	8.699294	-8.451287	186.59	1.182198	0.052913	0.052359	182.849	31822.7	0.048603	0.088144	2074.43	97929.2
583	2.000000	1.185141	7.37076e+06	-47939.1	1005.82	-29764.2	0.000000	0.000000	7.193896	198.514	NaN	0.000000	0.001595	0.001764	28.08	60.5366	0.001739	34802.4	7.093663	171.255	196.878	1.184739	0.055302	0.054900	198.514	34802.4	0.051024	0.095603	2076.43	102836
583	2.000000	1.187637	7.37076e+06	-47939.1	1005.82	-29764.2	0.000000	0.000000	7.196904	210.966	NaN	0.000000	0.001611	0.001768	28.0792	63.6583	0.001761	36150.8	4.706378	-6.751078	209.459	1.187269	0.057797	0.057430	210.966	36150.8	0.053421	0.103278	2042.69	102775
583	2.000000	1.190157	7.37076e+06	-47939.1	1005.82	-29764.2	0.000000	0.000000	7.199801	220.142	NaN	0.000000	0.001612	0.001762	28.0794	67.4811	0.001848	36510.5	5.607021	171.709	221.941	1.189877	0.060318	0.060038	220.142	36510.5	0.055795	0.111164	1980.32	100048
583	2.000000	1.192668	7.37076e+06	-47939.1	1005.82	-29764.2	0.000000	0.000000	7.203037	237.769	NaN	0.000000	0.001608	0.001711	28.0797	68.603	0.001842	37237.8	5.059658	-7.812535	237.111	1.192280	0.062829	0.062441	237.769	37237.8	0.058040	0.118874	2000.18	98676.6
583	2.000000	1.195081	7.37076e+06	-47939.1	1005.82	-29764.2	0.000000	0.000000	7.206127	254.233	NaN	0.000000	0.001618	0.001743	28.0793	70.7706	0.001828	38707.6	8.071688	169.39	251.498	1.194739	0.065241	0.064899	254.233	38707.6	0.060315	0.126942	2002.76	99258.4
583	2.000000	1.197599	7.37076e+06	-47939.1	1005.82	-29764.2	0.000000	0.000000	7.209287	269.861	NaN	0.000000	0.001633	0.001726	28.0793	73.2938	0.001830	40059.9	2.402198	-5.129709	266.387	1.197242	0.067759	0.067403	269.861	40059.9	0.062707	0.135694	1988.75	99358.1
583	2.000000	1.200108	7.37076e+06	-47939.1	1005.82	-29764.2	0.000000	0.000000	7.212297	282.032	NaN	0.000000	0.001624	0.001726	28.0807	76.6102	0.001883	40683.1	3.645732	172.679	280.837	1.199940	0.070269	0.070101	282.032	40683.1	0.065070	0.144613	1950.25	97742.5
583	2.000000	1.202573	7.37076e+06	-47939.1	1005.82	-29764.2	0.000000	0.000000	7.215750	306.058	NaN	0.000000	0.001608	0.001735	28.0807	77.8089	0.001732	44937	6.858990	-10.2037	300.734	1.202224	0.072734	0.072385	306.058	44937	0.067626	0.154565	1980.12	104429
583	2.000000	1.205036	7.37076e+06	-47939.1	1005.82	-29764.2	0.000000	0.000000	7.218888	322.486	NaN	0.000000	0.001617	0.001708	28.081	80.4518	0.001820	44194.1	4.772407	171.12	317.01	1.204858	0.075196	0.075019	322.486	44194.1	0.069724	0.162966	1978.86	100021
583	2.000000	1.207641	7.37076e+06	-47939.1	1005.82	-29764.2	0.000000	0.000000	7.222242	340.708	NaN	0.000000	0.001642	0.001718	28.0808	82.0258	0.001687	48623	-0.987861	-3.318124	339.468	1.207346	0.077802	0.077507	340.708	48623	0.072546	0.174601	1951.36	106315
583	2.000000	1.210094	7.37076e+06	-47939.1	1005.82	-29764.2	0.000000	0.000000	7.224969	347.381	NaN	0.000000	0.001581	0.001735	28.0811	86.4596	0.001698	50904	1.569889	173.682	346.446	1.209932	0.080254	0.080093	347.381	50904	0.075136	0.185607	1871.6	107951
583	2.000000	1.212561	7.37076e+06	-47939.1	1005.82	-29764.2	0.000000	0.000000	7.228630	376.405	NaN	0.000000	0.001619	0.001709	28.0807	89.466	0.001864	48007	5.953796	-9.608831	374.449	1.212178	0.082721	0.082339	376.405	48007	0.076841	0.193024	1950.04	99832.5
583	2.000000	1.215150	7.37076e+06	-47939.1	1005.82	-29764.2	0.000000	0.000000	7.231685	387.741	NaN	0.000000	0.001674	0.001743	28.0806	90.8369	0.001763	51515.3	4.014583	171.203	390.994	1.214778	0.085310	0.084939	387.741	51515.3	0.079665	0.205612	1885.79	103797
583	2.000000	1.217454	7.37076e+06	-47939.1	1005.82	-29764.2	0.000000	0.000000	7.234662	404.117	NaN	0.000000	0.001672	0.001710	28.0806	93.9579	0.001907	49257.1	4.751192	-9.342621	394.157	1.217150	0.087614	0.087311	404.117	49257.1	0.081461	0.213810	1890.07	97325.8
583	2.000000	1.220092	7.37076e+06	-47939.1	1005.82	-29764.2	0.000000	0.000000	7.238059	422.586	NaN	0.000000	0.001698	0.001704	28.081	95.7189	0.001758	54453.6	4.070401	170.341	420.057	1.219862	0.090252	0.090022	422.586	54453.6	0.084432	0.227699	1855.89	104260
583	2.000000	1.222578	7.37076e+06	-47939.1	1005.82	-29764.2	0.000000	0.000000	7.241608	448.43	NaN	0.000000	0.001662	0.001733	28.0808	97.492	0.001799	54178.5	6.727336	-11.7012	446.262	1.222279	0.092739	0.092439	448.43	54178.5	0.086531	0.237759	1886.07	101515
583	2.000000	1.225014	7.37076e+06	-47939.1	1005.82	-29764.2	0.000000	0.000000	7.244860	468.292	NaN	0.000000	0.001665	0.001726	28.0806	99.0005	0.001800	54991.1	6.863108	168.318	463.936	1.224594	0.095174	0.094755	468.292	54991.1	0.088787	0.248800	1882.2	100726
583	2.000000	1.227534	7.37076e+06	-47939.1	1005.82	-29764.2	0.000000	0.000000	7.248216	488.622	NaN	0.000000	0.001646	0.001707	28.0808	99.0229	0.001657	59771	-1.944256	-3.102928	482.652	1.227161	0.097694	0.097322	488.622	59771	0.091563	0.262702	1859.99	106545
583	2.000000	1.230053	7.37076e+06	-47939.1	1005.82	-29764.2	0.000000	0.000000	7.251381	504.325	NaN	0.000000	0.001647	0.001697	28.0806	103.836	0.001745	59501.7	-0.127197	174.398	501.964	1.229852	0.100214	0.100013	504.325	59501.7	0.093857	0.274456	1837.55	103769
583	2.000000	1.231002	7.37076e+06	-47939.1	1005.82	-29764.2	0.000000	0.000000	7.253077	522.472	NaN	0.000000	0.001646	0.001728	28.0806	105.256	0.001828	57568.1	5.677099	169.371	518.406	1.230671	0.101163	0.100831	522.472	57568.1	0.094356	0.277046	1885.86	99926