File: remote_trans/data/nanoindenter/0828-1/data/Data_2025-08-06,11h17m57s/2025-07-22_16-23-58_1_750.txt
2025-07-22, 16:23:58, 1
Index	Phase	Displacement	Time	Pos X	Pos Y	Pos Z	Rot A	Rot B	Piezo Z	Force A	Force B	Gripper	Voltage A	Voltage B	Temperature	Amplitude force	Amplitude pos	Stiffness	Phase shift	Phase excitation	Force A raw	Displacement raw	HMax	HMax raw	Real Force	Real Stiffness	Contact Depth	Area	Hardness	Reduced Mod.
[#]	[#]	[um]	[s]	[um]	[um]	[um]	[m°]	[m°]	[um]	[uN]	[uN]	[V]	[V]	[V]	[°C]	[uN]	[um]	[N/m]	[°]	[°]	[uN]	[um]	[um]	[um]	[uN]	[N/m]	[um]	[um^2]	[MPa]	[MPa]
750	1.000000	0.002476	7.37239e+06	-39589.1	1005.82	-29793.3	0.000000	0.000000	6.002832	-0.079750	NaN	0.000000	0.001595	0.001788	28.0825	0.108717	0.001036	104.973	150.776	-167.244	-0.062852	0.001175	-1.104590	-1.105891	-0.079750	104.973	-1.104020	-5.675777E+14	1.405095E-16	NaN
750	1.000000	0.012508	7.37239e+06	-39589.1	1005.82	-29793.3	0.000000	0.000000	6.012869	0.040654	NaN	0.000000	0.001601	0.001741	28.0827	0.103181	0.001215	84.9196	-175.808	23.2551	0.083148	0.011036	-1.094558	-1.096030	0.040654	84.9196	-1.094917	-4.283824E+14	-9.490006E-17	NaN
750	1.000000	0.022396	7.37239e+06	-39589.1	1005.82	-29793.3	0.000000	0.000000	6.022755	-0.010954	NaN	0.000000	0.001607	0.001752	28.0827	0.099928	0.001710	58.4327	125.894	-167.699	0.069843	0.021055	-1.084670	-1.086011	-0.010954	58.4327	-1.084529	-3.107035E+14	3.525441E-17	NaN
750	1.000000	0.032417	7.37239e+06	-39589.1	1005.82	-29793.3	0.000000	0.000000	6.032778	0.057158	NaN	0.000000	0.001576	0.001783	28.0832	0.119015	0.001775	67.0572	-159.755	15.1066	0.017678	0.031074	-1.074649	-1.075991	0.057158	67.0572	-1.075288	-2.334711E+14	-2.448202E-16	NaN
750	1.000000	0.042410	7.37239e+06	-39589.1	1005.82	-29793.3	0.000000	0.000000	6.042766	-0.072865	NaN	0.000000	0.001614	0.001748	28.083	0.055094	0.002075	26.5559	126.302	-165.513	-0.061538	0.041091	-1.064656	-1.065975	-0.072865	26.5559	-1.062598	-1.576637E+14	4.621569E-16	NaN
750	1.000000	0.052371	7.37239e+06	-39589.1	1005.82	-29793.3	0.000000	0.000000	6.052729	-0.032309	NaN	0.000000	0.001617	0.001756	28.0829	0.004337	0.001889	2.296377	-168.396	11.9941	-0.008740	0.051051	-1.054695	-1.056015	-0.032309	2.296377	-1.044143	-8.905841E+13	3.627855E-16	NaN
750	1.000000	0.062393	7.37239e+06	-39589.1	1005.82	-29793.3	0.000000	0.000000	6.062752	0.008915	NaN	0.000000	0.001546	0.001750	28.0824	0.100122	0.002041	49.0623	-32.0479	-165.331	0.058293	0.061076	-1.044673	-1.045990	0.008915	49.0623	-1.044810	-9.091532E+13	-9.806270E-17	NaN
750	1.000000	0.072417	7.37239e+06	-39589.1	1005.82	-29793.3	0.000000	0.000000	6.072778	0.028895	NaN	0.000000	0.001538	0.001784	28.0826	0.016505	0.001780	9.275201	-52.2354	9.808711	0.046732	0.071019	-1.034649	-1.036046	0.028895	9.275201	-1.036985	-7.135553E+13	-4.049416E-16	NaN
750	1.000000	0.082399	7.37239e+06	-39589.1	1005.82	-29793.3	0.000000	0.000000	6.082758	-0.014379	NaN	0.000000	0.001581	0.001790	28.0827	0.028748	0.002107	13.6442	105.852	-166.756	0.047511	0.081081	-1.024667	-1.025985	-0.014379	13.6442	-1.023876	-4.754488E+13	3.024392E-16	NaN
750	1.000000	0.092411	7.37239e+06	-39589.1	1005.82	-29793.3	0.000000	0.000000	6.092769	-0.030193	NaN	0.000000	0.001641	0.001777	28.0829	0.041330	0.001909	21.6501	-68.3362	12.9965	0.025074	0.091062	-1.014655	-1.016004	-0.030193	21.6501	-1.013609	-3.459060E+13	8.728560E-16	NaN
750	1.000000	0.102404	7.37239e+06	-39589.1	1005.82	-29793.3	0.000000	0.000000	6.102761	-0.056767	NaN	0.000000	0.001644	0.001774	28.0828	0.051512	0.001901	27.0917	176.62	-167.346	-0.082346	0.101126	-1.004662	-1.005940	-0.056767	27.0917	-1.003090	-2.496744E+13	2.273623E-15	NaN
750	1.000000	0.112391	7.37239e+06	-39589.1	1005.82	-29793.3	0.000000	0.000000	6.112750	-0.018651	NaN	0.000000	0.001648	0.001760	28.0828	0.048503	0.001834	26.4498	132.903	14.6893	0.010364	0.111053	-0.994674	-0.996013	-0.018651	26.4498	-0.994146	-1.892086E+13	9.857397E-16	NaN
750	1.000000	0.122431	7.37239e+06	-39589.1	1005.82	-29793.3	0.000000	0.000000	6.122789	-0.040207	NaN	0.000000	0.001686	0.001711	28.0828	0.028818	0.001976	14.5847	90.8206	-165.558	-0.089099	0.121126	-0.984634	-0.985940	-0.040207	14.5847	-0.982567	-1.321266E+13	3.043059E-15	NaN
750	1.000000	0.132417	7.37239e+06	-39589.1	1005.82	-29793.3	0.000000	0.000000	6.132775	-0.044351	NaN	0.000000	0.001665	0.001772	28.0828	0.045467	0.002124	21.404	-44.9184	15.0295	-0.096164	0.131053	-0.974649	-0.976013	-0.044351	21.404	-0.973095	-9.848431E+12	4.503399E-15	NaN
750	1.000000	0.142429	7.37239e+06	-39589.1	1005.82	-29793.3	0.000000	0.000000	6.142787	-0.021993	NaN	0.000000	0.001672	0.001754	28.0816	0.039345	0.001934	20.3465	-71.6999	-164.613	0.065052	0.141147	-0.964637	-0.965919	-0.021993	20.3465	-0.963827	-7.386799E+12	2.977366E-15	NaN
750	1.000000	0.152426	7.37239e+06	-39589.1	1005.82	-29793.3	0.000000	0.000000	6.152785	0.013098	NaN	0.000000	0.001673	0.001756	28.0816	0.024644	0.002023	12.1802	94.4409	16.7981	-0.066101	0.151107	-0.954640	-0.955959	0.013098	12.1802	-0.955447	-5.694830E+12	-2.300056E-15	NaN
750	1.000000	0.162448	7.37239e+06	-39589.1	1005.82	-29793.3	0.000000	0.000000	6.162807	-0.013210	NaN	0.000000	0.001697	0.001749	28.0822	0.092079	0.002082	44.2215	88.8619	-168.455	-0.051305	0.161107	-0.944618	-0.945959	-0.013210	44.2215	-0.944394	-4.040271E+12	3.269626E-15	NaN
750	1.000000	0.172421	7.37239e+06	-39589.1	1005.82	-29793.3	0.000000	0.000000	6.172780	-0.005871	NaN	0.000000	0.001658	0.001717	28.0814	0.066864	0.001996	33.4921	76.9508	14.8719	0.004748	0.171085	-0.934645	-0.935981	-0.005871	33.4921	-0.934513	-2.972402E+12	1.975040E-15	NaN
750	1.000000	0.182400	7.37239e+06	-39589.1	1005.82	-29793.3	0.000000	0.000000	6.182759	-0.001840	NaN	0.000000	0.001661	0.001753	28.0815	0.102319	0.001992	51.3693	126.056	-166.3	0.013118	0.181123	-0.924666	-0.925943	-0.001840	51.3693	-0.924639	-2.186950E+12	8.415138E-16	NaN
750	1.000000	0.192438	7.37239e+06	-39589.1	1005.82	-29793.3	0.000000	0.000000	6.192798	0.013672	NaN	0.000000	0.001661	0.001712	28.0816	0.016505	0.001905	8.664730	55.5503	15.3866	-0.013521	0.191086	-0.914628	-0.915980	0.013672	8.664730	-0.915812	-1.662076E+12	-8.226040E-15	NaN
750	1.000000	0.202462	7.37239e+06	-39589.1	1005.82	-29793.3	0.000000	0.000000	6.202824	0.058053	NaN	0.000000	0.001617	0.001772	28.0819	0.080095	0.001983	40.391	40.4025	-166.271	0.004311	0.201071	-0.904603	-0.905995	0.058053	40.391	-0.905681	-1.212906E+12	-4.786240E-14	NaN
750	1.000000	0.212459	7.37239e+06	-39589.1	1005.82	-29793.3	0.000000	0.000000	6.212819	-0.000219	NaN	0.000000	0.001604	0.001703	28.0815	0.107792	0.001867	57.7281	-114.171	14.9207	-0.065877	0.211127	-0.894607	-0.895939	-0.000219	57.7281	-0.894604	-8.592936E+11	2.544332E-16	NaN
750	1.000000	0.222496	7.37239e+06	-39589.1	1005.82	-29793.3	0.000000	0.000000	6.222854	-0.050409	NaN	0.000000	0.001644	0.001747	28.0817	0.034843	0.002067	16.8538	27.7236	-163.425	-0.085553	0.221164	-0.884570	-0.885902	-0.050409	16.8538	-0.882326	-5.863651E+11	8.596790E-14	NaN
750	1.000000	0.232491	7.37239e+06	-39589.1	1005.82	-29793.3	0.000000	0.000000	6.232847	-0.073986	NaN	0.000000	0.001623	0.001705	28.0819	0.046048	0.001920	23.9776	43.116	10.6279	-0.163454	0.231155	-0.874575	-0.875911	-0.073986	23.9776	-0.872261	-4.285781E+11	1.726317E-13	NaN
750	1.000000	0.242469	7.37239e+06	-39589.1	1005.82	-29793.3	0.000000	0.000000	6.242827	-0.052602	NaN	0.000000	0.001587	0.001698	28.0815	0.014634	0.002076	7.049042	-110.002	-162.156	0.025201	0.241147	-0.864596	-0.865919	-0.052602	7.049042	-0.859000	-2.835185E+11	1.855330E-13	NaN
750	1.000000	0.252435	7.37239e+06	-39589.1	1005.82	-29793.3	0.000000	0.000000	6.252792	-0.054506	NaN	0.000000	0.001614	0.001687	28.0813	0.066214	0.002043	32.4027	-69.4154	15.6804	-0.058524	0.251070	-0.854631	-0.855996	-0.054506	32.4027	-0.853369	-2.378791E+11	2.291351E-13	NaN
750	1.000000	0.262469	7.37239e+06	-39589.1	1005.82	-29793.3	0.000000	0.000000	6.262828	-0.000599	NaN	0.000000	0.001609	0.001684	28.0817	0.010588	0.002032	5.210497	138.674	-163.965	-0.067171	0.261160	-0.844597	-0.845906	-0.000599	5.210497	-0.844511	-1.804654E+11	3.316557E-15	NaN
750	1.000000	0.272486	7.37239e+06	-39589.1	1005.82	-29793.3	0.000000	0.000000	6.272850	0.094160	NaN	0.000000	0.001567	0.001688	28.0818	0.052032	0.002066	25.1863	-62.5646	11.5797	-0.040787	0.271122	-0.834579	-0.835944	0.094160	25.1863	-0.837383	-1.444911E+11	-6.516670E-13	NaN
750	1.000000	0.282510	7.37239e+06	-39589.1	1005.82	-29793.3	0.000000	0.000000	6.282871	0.035873	NaN	0.000000	0.001604	0.001683	28.0827	0.138092	0.001872	73.7611	173.908	-164.111	-0.033183	0.281138	-0.824556	-0.825928	0.035873	73.7611	-0.824921	-9.793366E+10	-3.662969E-13	NaN
750	1.000000	0.292464	7.37239e+06	-39589.1	1005.82	-29793.3	0.000000	0.000000	6.292824	0.023515	NaN	0.000000	0.001610	0.001695	28.0825	0.062146	0.001956	31.771	-58.8455	11.1048	-0.039577	0.291134	-0.814602	-0.815932	0.023515	31.771	-0.815157	-7.219854E+10	-3.257056E-13	NaN
750	1.000000	0.302476	7.37239e+06	-39589.1	1005.82	-29793.3	0.000000	0.000000	6.302832	-0.096630	NaN	0.000000	0.001609	0.001744	28.0825	0.163948	0.001917	85.5262	-37.3098	-167.684	0.003581	0.301183	-0.804589	-0.805883	-0.096630	85.5262	-0.803742	-5.054221E+10	1.911871E-12	NaN
750	1.000000	0.312462	7.37239e+06	-39589.1	1005.82	-29793.3	0.000000	0.000000	6.312823	0.019463	NaN	0.000000	0.001620	0.001692	28.0827	0.159845	0.002108	75.8107	131.446	14.3795	0.019718	0.311132	-0.794603	-0.795934	0.019463	75.8107	-0.794796	-3.821306E+10	-5.093334E-13	NaN
750	1.000000	0.322502	7.37239e+06	-39589.1	1005.82	-29793.3	0.000000	0.000000	6.322858	-0.069256	NaN	0.000000	0.001634	0.001661	28.0824	0.067397	0.001959	34.4002	174.265	-166.751	-0.097369	0.321179	-0.784564	-0.785887	-0.069256	34.4002	-0.783054	-2.646844E+10	2.616532E-12	NaN
750	1.000000	0.332519	7.37239e+06	-39589.1	1005.82	-29793.3	0.000000	0.000000	6.332881	0.066911	NaN	0.000000	0.001628	0.001695	28.0827	0.084962	0.001976	42.9965	-55.5204	14.0852	0.013710	0.331139	-0.774547	-0.775927	0.066911	42.9965	-0.775714	-2.103706E+10	-3.180630E-12	NaN
750	1.000000	0.342513	7.37239e+06	-39589.1	1005.82	-29793.3	0.000000	0.000000	6.342869	-0.082438	NaN	0.000000	0.001633	0.001700	28.0829	0.093238	0.002044	45.6188	-130.144	-167.963	-0.082877	0.341220	-0.764553	-0.765846	-0.082438	45.6188	-0.763198	-1.421671E+10	5.798689E-12	NaN
750	1.000000	0.352519	7.37239e+06	-39589.1	1005.82	-29793.3	0.000000	0.000000	6.352881	0.083510	NaN	0.000000	0.001582	0.001681	28.0827	0.077294	0.001864	41.4582	-135.48	15.6698	0.052195	0.351151	-0.754547	-0.755915	0.083510	41.4582	-0.756058	-1.136760E+10	-7.346306E-12	NaN
750	1.000000	0.362519	7.37239e+06	-39589.1	1005.82	-29793.3	0.000000	0.000000	6.362878	-0.010302	NaN	0.000000	0.001590	0.001698	28.0828	0.013619	0.001963	6.938035	11.8078	-168.781	-0.021019	0.361236	-0.744547	-0.745829	-0.010302	6.938035	-0.743433	-7.652686E+9	1.346167E-12	NaN
750	1.000000	0.372528	7.37239e+06	-39589.1	1005.82	-29793.3	0.000000	0.000000	6.372888	0.015415	NaN	0.000000	0.001688	0.001712	28.0826	0.126309	0.001894	66.6876	62.6131	9.685632	-0.059491	0.371186	-0.734538	-0.735880	0.015415	66.6876	-0.734711	-5.821184E+9	-2.648074E-12	NaN
750	1.000000	0.382519	7.37239e+06	-39589.1	1005.82	-29793.3	0.000000	0.000000	6.382874	-0.124217	NaN	0.000000	0.001593	0.001726	28.083	0.040782	0.002080	19.6066	-123.924	-168.6	-0.002267	0.381250	-0.724546	-0.725815	-0.124217	19.6066	-0.719795	-3.644815E+9	3.408035E-11	NaN
750	1.000000	0.392544	7.37239e+06	-39589.1	1005.82	-29793.3	0.000000	0.000000	6.392902	-0.030591	NaN	0.000000	0.001577	0.001684	28.0827	0.012304	0.001939	6.346800	84.5876	14.245	-0.019995	0.391192	-0.714522	-0.715874	-0.030591	6.346800	-0.710907	-2.756915E+9	1.109624E-11	NaN
750	1.000000	0.402545	7.37239e+06	-39589.1	1005.82	-29793.3	0.000000	0.000000	6.402902	-0.044277	NaN	0.000000	0.001586	0.001725	28.0827	0.114610	0.002063	55.5678	35.4133	-164.317	-0.070328	0.401272	-0.704521	-0.705794	-0.044277	55.5678	-0.703923	-2.213622E+9	2.000191E-11	NaN
750	1.000000	0.412534	7.37239e+06	-39589.1	1005.82	-29793.3	0.000000	0.000000	6.412892	-0.034302	NaN	0.000000	0.001607	0.001680	28.0815	0.047599	0.002012	23.6562	175.859	13.6534	0.001946	0.411191	-0.694532	-0.695875	-0.034302	23.6562	-0.693445	-1.592158E+9	2.154429E-11	NaN
750	1.000000	0.422533	7.37239e+06	-39589.1	1005.82	-29793.3	0.000000	0.000000	6.422893	0.009539	NaN	0.000000	0.001609	0.001702	28.0819	0.074351	0.001874	39.668	-11.4277	-165.634	0.037557	0.421261	-0.684533	-0.685805	0.009539	39.668	-0.684713	-1.209626E+9	-7.885514E-12	NaN
750	1.000000	0.432542	7.37239e+06	-39589.1	1005.82	-29793.3	0.000000	0.000000	6.432899	-0.050880	NaN	0.000000	0.001618	0.001656	28.0814	0.062823	0.002001	31.3889	-154.837	16.9338	-0.079078	0.431201	-0.674524	-0.675865	-0.050880	31.3889	-0.673308	-8.446293E+8	6.023964E-11	NaN
750	1.000000	0.442554	7.37239e+06	-39589.1	1005.82	-29793.3	0.000000	0.000000	6.442914	0.016016	NaN	0.000000	0.001619	0.001688	28.0815	0.073434	0.002070	35.4699	15.5316	-163.002	0.052550	0.441280	-0.664512	-0.665786	0.016016	35.4699	-0.664850	-6.469819E+8	-2.475567E-11	NaN
750	1.000000	0.452577	7.37239e+06	-39589.1	1005.82	-29793.3	0.000000	0.000000	6.452938	0.023554	NaN	0.000000	0.001618	0.001719	28.0815	0.172423	0.001922	89.7251	-92.621	16.1388	4.837437E-5	0.451191	-0.654489	-0.655875	0.023554	89.7251	-0.654685	-4.695221E+8	-5.016499E-11	NaN
750	1.000000	0.462565	7.37239e+06	-39589.1	1005.82	-29793.3	0.000000	0.000000	6.462926	0.022408	NaN	0.000000	0.001635	0.001731	28.0815	0.068903	0.002036	33.8394	-79.8181	-170.239	-0.087867	0.461232	-0.644501	-0.645834	0.022408	33.8394	-0.644997	-3.458119E+8	-6.479883E-11	NaN
750	1.000000	0.472560	7.37239e+06	-39589.1	1005.82	-29793.3	0.000000	0.000000	6.472920	0.021051	NaN	0.000000	0.001621	0.001703	28.0812	0.020470	0.002065	9.913063	-133.639	12.31	-0.002558	0.471189	-0.634506	-0.635877	0.021051	9.913063	-0.636098	-2.610639E+8	-8.063473E-11	NaN
750	1.000000	0.482561	7.37239e+06	-39589.1	1005.82	-29793.3	0.000000	0.000000	6.482921	0.021680	NaN	0.000000	0.001646	0.001731	28.0812	0.043797	0.001718	25.4872	-84.5352	-168.769	0.012660	0.481285	-0.624505	-0.625781	0.021680	25.4872	-0.625143	-1.846329E+8	-1.174224E-10	NaN
750	1.000000	0.492568	7.37239e+06	-39589.1	1005.82	-29793.3	0.000000	0.000000	6.492927	-0.005038	NaN	0.000000	0.001607	0.001712	28.0815	0.058769	0.001985	29.6032	-141.575	15.1748	-0.017303	0.491262	-0.614498	-0.615804	-0.005038	29.6032	-0.614371	-1.312915E+8	3.837156E-11	NaN
750	1.000000	0.502591	7.37239e+06	-39589.1	1005.82	-29793.3	0.000000	0.000000	6.502950	-0.000719	NaN	0.000000	0.001647	0.001691	28.0814	0.085355	0.001909	44.7165	-1.466166	-165.888	-0.047874	0.501259	-0.604475	-0.605807	-0.000719	44.7165	-0.604463	-9.592081E+7	7.493334E-12	NaN
750	1.000000	0.512585	7.37239e+06	-39589.1	1005.82	-29793.3	0.000000	0.000000	6.512943	-0.019038	NaN	0.000000	0.001603	0.001676	28.0815	0.112568	0.001908	58.988	-30.753	15.4673	-0.018101	0.511245	-0.594481	-0.595821	-0.019038	58.988	-0.594239	-6.935837E+7	2.744863E-10	NaN
750	1.000000	0.522603	7.37239e+06	-39589.1	1005.82	-29793.3	0.000000	0.000000	6.522959	-0.076227	NaN	0.000000	0.001633	0.001723	28.0815	0.041356	0.002095	19.7398	80.3614	-167.746	-0.085396	0.521271	-0.584463	-0.585795	-0.076227	19.7398	-0.581567	-4.638224E+7	1.643442E-9	NaN
750	1.000000	0.532606	7.37239e+06	-39589.1	1005.82	-29793.3	0.000000	0.000000	6.532963	-0.077108	NaN	0.000000	0.001607	0.001704	28.0815	0.098414	0.002017	48.7974	131.703	12.583	-0.129027	0.531239	-0.574460	-0.575827	-0.077108	48.7974	-0.573274	-3.563418E+7	2.163864E-9	NaN
750	1.000000	0.542589	7.37239e+06	-39589.1	1005.82	-29793.3	0.000000	0.000000	6.542947	-0.024295	NaN	0.000000	0.001647	0.001709	28.0812	0.109112	0.001910	57.1123	-90.4953	-164.871	-0.015959	0.541282	-0.564477	-0.565784	-0.024295	57.1123	-0.564158	-2.666162E+7	9.112214E-10	NaN
750	1.000000	0.552580	7.37239e+06	-39589.1	1005.82	-29793.3	0.000000	0.000000	6.552936	-0.058635	NaN	0.000000	0.001662	0.001728	28.0825	0.094816	0.002007	47.2539	107.794	14.7408	-0.050465	0.551273	-0.554486	-0.555793	-0.058635	47.2539	-0.553556	-1.901932E+7	3.082932E-9	NaN
750	1.000000	0.562626	7.37239e+06	-39589.1	1005.82	-29793.3	0.000000	0.000000	6.562982	-0.085063	NaN	0.000000	0.001666	0.001696	28.0824	0.033780	0.002003	16.8613	116.884	-165.738	-0.086489	0.561339	-0.544440	-0.545727	-0.085063	16.8613	-0.540656	-1.260254E+7	6.749656E-9	NaN
750	1.000000	0.572611	7.37239e+06	-39589.1	1005.82	-29793.3	0.000000	0.000000	6.572969	-0.023583	NaN	0.000000	0.001665	0.001692	28.0824	0.105015	0.002137	49.1325	173.078	12.8279	-0.025166	0.571289	-0.534455	-0.535777	-0.023583	49.1325	-0.534095	-1.021956E+7	2.307677E-9	NaN
750	1.000000	0.582614	7.37239e+06	-39589.1	1005.82	-29793.3	0.000000	0.000000	6.582974	0.001377	NaN	0.000000	0.001616	0.001700	28.0823	0.030388	0.001955	15.5475	-139.354	-163.735	-0.023026	0.581282	-0.524452	-0.525784	0.001377	15.5475	-0.524518	-7.52337e+06	-1.830877E-10	NaN
750	1.000000	0.592597	7.37239e+06	-39589.1	1005.82	-29793.3	0.000000	0.000000	6.592954	-0.042939	NaN	0.000000	0.001611	0.001734	28.0823	0.023583	0.001883	12.5257	121.143	13.1192	-0.020129	0.591259	-0.514469	-0.515807	-0.042939	12.5257	-0.511898	-5.02169e+06	8.550767E-9	NaN
750	1.000000	0.602642	7.37239e+06	-39589.1	1005.82	-29793.3	0.000000	0.000000	6.603004	0.043778	NaN	0.000000	0.001584	0.001675	28.0822	0.052774	0.002035	25.9317	39.0104	-162.821	-0.005036	0.601251	-0.504423	-0.505815	0.043778	25.9317	-0.505690	-4.11488e+06	-1.063905E-8	NaN
750	1.000000	0.612587	7.37239e+06	-39589.1	1005.82	-29793.3	0.000000	0.000000	6.612944	-0.047218	NaN	0.000000	0.001582	0.001702	28.0822	0.077729	0.002036	38.1758	-58.3402	11.3196	-0.069656	0.611216	-0.494479	-0.495850	-0.047218	38.1758	-0.493551	-2.78614e+06	1.694753E-8	NaN
750	1.000000	0.622607	7.37239e+06	-39589.1	1005.82	-29793.3	0.000000	0.000000	6.622963	-0.083504	NaN	0.000000	0.001592	0.001737	28.0821	0.076754	0.002111	36.3665	-96.9587	-165.848	-0.004848	0.621316	-0.484459	-0.485750	-0.083504	36.3665	-0.482737	-1.96712e+06	4.244974E-8	NaN
750	1.000000	0.632656	7.37239e+06	-39589.1	1005.82	-29793.3	0.000000	0.000000	6.633015	-0.011166	NaN	0.000000	0.001582	0.001758	28.0822	0.070308	0.002107	33.3629	77.5076	16.4694	0.060259	0.631282	-0.474409	-0.475784	-0.011166	33.3629	-0.474158	-1.49179e+06	7.485081E-9	NaN
750	1.000000	0.642632	7.37239e+06	-39589.1	1005.82	-29793.3	0.000000	0.000000	6.642990	-0.037703	NaN	0.000000	0.001603	0.001721	28.0825	0.031140	0.001957	15.9154	-110.113	-165.64	0.030143	0.641389	-0.464434	-0.465677	-0.037703	15.9154	-0.462657	-1.02884e+06	3.664623E-8	NaN
750	1.000000	0.652648	7.37239e+06	-39589.1	1005.82	-29793.3	0.000000	0.000000	6.653006	-0.011777	NaN	0.000000	0.001593	0.001727	28.0821	0.058459	0.001962	29.7997	-124.558	16.3679	-0.019333	0.651293	-0.454418	-0.455772	-0.011777	29.7997	-0.454122	-780485	1.508912E-8	NaN
750	1.000000	0.662620	7.37239e+06	-39589.1	1005.82	-29793.3	0.000000	0.000000	6.662979	-0.024518	NaN	0.000000	0.001610	0.001689	28.0823	0.011344	0.001997	5.680151	-52.185	-163.626	-0.077479	0.661388	-0.444446	-0.445678	-0.024518	5.680151	-0.441208	-513352	4.776070E-8	NaN
750	1.000000	0.672637	7.37239e+06	-39589.1	1005.82	-29793.3	0.000000	0.000000	6.672993	-0.073595	NaN	0.000000	0.001624	0.001704	28.082	0.085427	0.002011	42.481	-32.2585	15.8177	-0.080308	0.671297	-0.434429	-0.435769	-0.073595	42.481	-0.433130	-394752	1.864332E-7	NaN
750	1.000000	0.682650	7.37239e+06	-39589.1	1005.82	-29793.3	0.000000	0.000000	6.683010	0.029827	NaN	0.000000	0.001638	0.001648	28.0821	0.097156	0.002115	45.9281	-118.396	-165.359	-0.001092	0.681329	-0.424416	-0.425737	0.029827	45.9281	-0.424903	-301936	-9.878588E-8	NaN
750	1.000000	0.692654	7.37239e+06	-39589.1	1005.82	-29793.3	0.000000	0.000000	6.693013	-0.006478	NaN	0.000000	0.001624	0.001717	28.0809	0.031793	0.001996	15.9279	58.5192	13.7688	0.035382	0.691334	-0.414412	-0.415732	-0.006478	15.9279	-0.414107	-212215	3.052546E-8	NaN
750	1.000000	0.702655	7.37239e+06	-39589.1	1005.82	-29793.3	0.000000	0.000000	6.703016	0.043225	NaN	0.000000	0.001603	0.001735	28.0809	0.066337	0.002144	30.9437	-174.023	-165.664	-0.042360	0.701383	-0.404411	-0.405683	0.043225	30.9437	-0.405458	-159874	-2.703685E-7	NaN
750	1.000000	0.712657	7.37239e+06	-39589.1	1005.82	-29793.3	0.000000	0.000000	6.713019	0.055053	NaN	0.000000	0.001570	0.001705	28.0809	0.076699	0.002053	37.3509	10.5249	15.3164	0.138527	0.711300	-0.394409	-0.395766	0.055053	37.3509	-0.395514	-115340	-4.773115E-7	NaN
750	1.000000	0.722672	7.37239e+06	-39589.1	1005.82	-29793.3	0.000000	0.000000	6.723033	0.021731	NaN	0.000000	0.001615	0.001709	28.0809	0.105142	0.002044	51.4326	-140.156	-167.761	-0.008371	0.721347	-0.384394	-0.385719	0.021731	51.4326	-0.384710	-80805	-2.689328E-7	NaN
750	1.000000	0.732653	7.37239e+06	-39589.1	1005.82	-29793.3	0.000000	0.000000	6.733012	-0.009849	NaN	0.000000	0.001650	0.001670	28.0809	0.018766	0.001955	9.596772	116.569	17.0005	0.043796	0.731347	-0.374412	-0.375719	-0.009849	9.596772	-0.373643	-56047.2	1.757302E-7	NaN
750	1.000000	0.742685	7.37239e+06	-39589.1	1005.82	-29793.3	0.000000	0.000000	6.743042	-0.046483	NaN	0.000000	0.001554	0.001710	28.081	0.095920	0.001861	51.5345	58.3325	-167.486	-0.037045	0.741391	-0.364381	-0.365675	-0.046483	51.5345	-0.363704	-40304.8	1.153285E-6	NaN
750	1.000000	0.752673	7.37239e+06	-39589.1	1005.82	-29793.3	0.000000	0.000000	6.753027	-0.118462	NaN	0.000000	0.001583	0.001706	28.0813	0.092388	0.002135	43.2782	101.985	15.2633	-0.061759	0.751360	-0.354393	-0.355706	-0.118462	43.2782	-0.352340	-27602.6	4.291717E-6	NaN
750	1.000000	0.762698	7.37239e+06	-39589.1	1005.82	-29793.3	0.000000	0.000000	6.763060	0.060143	NaN	0.000000	0.001573	0.001682	28.081	0.069419	0.001886	36.8071	-107.165	-167.187	0.050736	0.761393	-0.344368	-0.345673	0.060143	36.8071	-0.345593	-22028.4	-2.730265E-6	NaN
750	1.000000	0.772698	7.37239e+06	-39589.1	1005.82	-29793.3	0.000000	0.000000	6.773059	0.040730	NaN	0.000000	0.001559	0.001683	28.081	0.039726	0.001868	21.2661	-48.588	15.5142	-0.019802	0.771343	-0.334368	-0.335722	0.040730	21.2661	-0.335804	-15861.2	-2.567915E-6	NaN
750	1.000000	0.782687	7.37239e+06	-39589.1	1005.82	-29793.3	0.000000	0.000000	6.783045	-0.034918	NaN	0.000000	0.001570	0.001686	28.0808	0.099621	0.001948	51.134	-124.143	-163.879	-0.006113	0.781388	-0.324379	-0.325677	-0.034918	51.134	-0.323867	-10604.7	3.292668E-6	NaN
750	1.000000	0.792705	7.37239e+06	-39589.1	1005.82	-29793.3	0.000000	0.000000	6.793064	-0.006766	NaN	0.000000	0.001594	0.001678	28.0811	0.072649	0.002067	35.1463	174.201	12.5692	0.000283	0.791339	-0.314361	-0.315727	-0.006766	35.1463	-0.314216	-7644.99	8.850318E-7	NaN
750	1.000000	0.802691	7.37239e+06	-39589.1	1005.82	-29793.3	0.000000	0.000000	6.803052	0.031080	NaN	0.000000	0.001574	0.001674	28.0806	0.131565	0.001992	66.0365	-170.937	-165.981	-0.060874	0.801367	-0.304374	-0.305699	0.031080	66.0365	-0.304727	-5532.36	-5.617927E-6	NaN
750	1.000000	0.812709	7.37239e+06	-39589.1	1005.82	-29793.3	0.000000	0.000000	6.813068	0.000117	NaN	0.000000	0.001586	0.001671	28.081	0.081571	0.002051	39.7656	162.43	14.3039	0.010023	0.811302	-0.294357	-0.295764	0.000117	39.7656	-0.294359	-3877.22	-3.007340E-8	NaN
750	1.000000	0.822719	7.37239e+06	-39589.1	1005.82	-29793.3	0.000000	0.000000	6.823078	-0.012311	NaN	0.000000	0.001607	0.001651	28.082	0.052981	0.002046	25.8973	-116.397	-167.739	-0.068188	0.821416	-0.284346	-0.285650	-0.012311	25.8973	-0.283990	-2710.67	4.541611E-6	NaN
750	1.000000	0.832715	7.37239e+06	-39589.1	1005.82	-29793.3	0.000000	0.000000	6.833074	-0.018234	NaN	0.000000	0.001591	0.001721	28.0823	0.123482	0.002023	61.046	-31.9568	13.848	0.004438	0.831316	-0.274351	-0.275750	-0.018234	61.046	-0.274127	-1923.87	9.477556E-6	NaN
750	1.000000	0.842763	7.37239e+06	-39589.1	1005.82	-29793.3	0.000000	0.000000	6.843122	-0.003225	NaN	0.000000	0.001618	0.001706	28.0821	0.063079	0.002004	31.469	-119.24	-165.803	-0.007897	0.841432	-0.264303	-0.265634	-0.003225	31.469	-0.264226	-1360.1	2.371036E-6	NaN
750	1.000000	0.852740	7.37239e+06	-39589.1	1005.82	-29793.3	0.000000	0.000000	6.853101	0.027710	NaN	0.000000	0.001566	0.001679	28.0823	0.051499	0.001872	27.5078	-81.7249	12.465	0.007736	0.851361	-0.254325	-0.255705	0.027710	27.5078	-0.255081	-984.831	-2.813720E-5	NaN
750	1.000000	0.862721	7.37239e+06	-39589.1	1005.82	-29793.3	0.000000	0.000000	6.863080	-0.003515	NaN	0.000000	0.001547	0.001713	28.0825	0.095369	0.002072	46.0289	113.588	-162.533	-0.026786	0.861371	-0.244345	-0.245695	-0.003515	46.0289	-0.244288	-670.472	5.242247E-6	NaN
750	1.000000	0.872723	7.37239e+06	-39589.1	1005.82	-29793.3	0.000000	0.000000	6.873084	0.033280	NaN	0.000000	0.001571	0.001687	28.0826	0.074768	0.001887	39.6328	-1.994433	14.1437	-0.028056	0.871396	-0.234343	-0.235670	0.033280	39.6328	-0.234972	-479.53	-6.940030E-5	NaN
750	1.000000	0.882745	7.37239e+06	-39589.1	1005.82	-29793.3	0.000000	0.000000	6.883103	-0.026705	NaN	0.000000	0.001600	0.001717	28.0824	0.061191	0.002002	30.5577	0.695359	-165.609	-0.071529	0.881427	-0.224321	-0.225639	-0.026705	30.5577	-0.223666	-317.777	8.403575E-5	NaN
750	1.000000	0.892730	7.37239e+06	-39589.1	1005.82	-29793.3	0.000000	0.000000	6.893086	-0.084833	NaN	0.000000	0.001593	0.001715	28.0826	0.051727	0.002091	24.733	-145.876	12.4713	-0.008260	0.891380	-0.214336	-0.215686	-0.084833	24.733	-0.211763	-204.804	0.000414	NaN
750	1.000000	0.902743	7.37239e+06	-39589.1	1005.82	-29793.3	0.000000	0.000000	6.903102	-0.010989	NaN	0.000000	0.001598	0.001706	28.0826	0.021349	0.002148	9.938284	117.229	-165.891	-0.020234	0.901405	-0.204323	-0.205661	-0.010989	9.938284	-0.203493	-150.3	7.311471E-5	NaN
750	1.000000	0.912765	7.37239e+06	-39589.1	1005.82	-29793.3	0.000000	0.000000	6.913125	0.021357	NaN	0.000000	0.001598	0.001689	28.0825	0.062036	0.001968	31.5149	-46.9166	18.1971	0.059808	0.911402	-0.194301	-0.195664	0.021357	31.5149	-0.194810	-108.155	-0.000197	NaN
750	1.000000	0.922746	7.37239e+06	-39589.1	1005.82	-29793.3	0.000000	0.000000	6.923104	-0.024299	NaN	0.000000	0.001577	0.001692	28.0824	0.080543	0.002091	38.5119	165.922	-164.844	-0.048888	0.921415	-0.184320	-0.185651	-0.024299	38.5119	-0.183847	-70.9054	0.000343	NaN
750	1.000000	0.932750	7.37239e+06	-39589.1	1005.82	-29793.3	0.000000	0.000000	6.933109	-0.014126	NaN	0.000000	0.001579	0.001722	28.0827	0.043532	0.002087	20.8579	63.2937	9.987714	-0.035223	0.931370	-0.174316	-0.175696	-0.014126	20.8579	-0.173808	-47.8044	0.000295	NaN
750	1.000000	0.942764	7.37239e+06	-39589.1	1005.82	-29793.3	0.000000	0.000000	6.943122	-0.020753	NaN	0.000000	0.001610	0.001696	28.0828	0.008430	0.002111	3.992893	176.727	-167.245	-0.038807	0.941494	-0.164302	-0.165572	-0.020753	3.992893	-0.160404	-27.8716	0.000745	NaN
750	1.000000	0.952799	7.37239e+06	-39589.1	1005.82	-29793.3	0.000000	0.000000	6.953159	-0.001251	NaN	0.000000	0.001597	0.001700	28.0827	0.046320	0.001971	23.4961	-32.0422	12.7216	-0.021369	0.951391	-0.154267	-0.155675	-0.001251	23.4961	-0.154227	-21.6098	5.789466E-5	NaN
750	1.000000	0.962748	7.37239e+06	-39589.1	1005.82	-29793.3	0.000000	0.000000	6.963107	-0.015786	NaN	0.000000	0.001596	0.001649	28.081	0.055908	0.001973	28.3427	-125.44	-166.77	-0.022126	0.961447	-0.144318	-0.145619	-0.015786	28.3427	-0.143900	-13.9888	0.001128	NaN
750	1.000000	0.972758	7.37239e+06	-39589.1	1005.82	-29793.3	0.000000	0.000000	6.973116	-0.037707	NaN	0.000000	0.001605	0.001667	28.0813	0.041177	0.001962	20.9917	10.8899	16.2321	0.018559	0.971409	-0.134308	-0.135657	-0.037707	20.9917	-0.132961	-8.694072	0.004337	NaN
750	1.000000	0.982776	7.37239e+06	-39589.1	1005.82	-29793.3	0.000000	0.000000	6.983135	-0.017771	NaN	0.000000	0.001615	0.001664	28.0815	0.049512	0.002024	24.4615	159.634	-168.184	-0.050780	0.981446	-0.124290	-0.125620	-0.017771	24.4615	-0.123745	-5.742453	0.003095	NaN
750	1.000000	0.992770	7.37239e+06	-39589.1	1005.82	-29793.3	0.000000	0.000000	6.993130	0.023299	NaN	0.000000	0.001605	0.001697	28.0815	0.101637	0.002155	47.1662	-141.525	11.1663	0.035911	0.991442	-0.114296	-0.115624	0.023299	47.1662	-0.114667	-3.760361	-0.006196	NaN
750	1.000000	1.002784	7.37239e+06	-39589.1	1005.82	-29793.3	0.000000	0.000000	7.003142	-0.026385	NaN	0.000000	0.001610	0.001694	28.0813	0.138528	0.002011	68.8798	-122.437	-166.633	-0.060848	1.001459	-0.104282	-0.105607	-0.026385	68.8798	-0.103995	-2.235653	0.011802	NaN
750	1.000000	1.012750	7.37239e+06	-39589.1	1005.82	-29793.3	0.000000	0.000000	7.013110	0.015915	NaN	0.000000	0.001631	0.001670	28.0812	0.087587	0.001954	44.834	-165.631	14.0342	-0.014093	1.011380	-0.094316	-0.095686	0.015915	44.834	-0.094582	-1.380003	-0.011533	NaN
750	1.000000	1.022771	7.37239e+06	-39589.1	1005.82	-29793.3	0.000000	0.000000	7.023131	0.020046	NaN	0.000000	0.001660	0.001689	28.0814	0.080194	0.001819	44.0874	63.557	-167.35	0.021032	1.021461	-0.084295	-0.085605	0.020046	44.0874	-0.084636	-0.805100	-0.024898	NaN
750	1.000000	1.032818	7.37239e+06	-39589.1	1005.82	-29793.3	0.000000	0.000000	7.033176	-0.030265	NaN	0.000000	0.001663	0.001695	28.0812	0.099934	0.002160	46.2564	-78.1333	13.9856	-0.057663	1.031410	-0.074248	-0.075656	-0.030265	46.2564	-0.073757	-0.428772	0.070586	NaN
750	1.000000	1.042774	7.37239e+06	-39589.1	1005.82	-29793.3	0.000000	0.000000	7.043133	-0.005648	NaN	0.000000	0.001732	0.001695	28.0811	0.071532	0.002045	34.9823	163.212	-162.787	-0.004220	1.041447	-0.064292	-0.065619	-0.005648	34.9823	-0.064171	-0.236329	0.023900	NaN
750	1.000000	1.052804	7.37239e+06	-39589.1	1005.82	-29793.3	0.000000	0.000000	7.053162	-0.035813	NaN	0.000000	0.001715	0.001674	28.0809	0.124519	0.001944	64.0623	-98.8251	10.2013	0.009374	1.051480	-0.054262	-0.055586	-0.035813	64.0623	-0.053843	-0.118994	0.300963	NaN
750	1.000000	1.062800	7.3724e+06	-39589.1	1005.82	-29793.3	0.000000	0.000000	7.063161	0.035741	NaN	0.000000	0.001693	0.001658	28.0815	0.046527	0.001886	24.6642	-155.007	-164.872	-0.010938	1.061443	-0.044266	-0.045623	0.035741	24.6642	-0.045353	-0.065884	-0.542489	NaN
750	1.000000	1.072842	7.3724e+06	-39589.1	1005.82	-29793.3	0.000000	0.000000	7.073202	0.019263	NaN	0.000000	0.001639	0.001681	28.081	0.087985	0.001902	46.2501	78.565	14.1139	0.132432	1.071443	-0.034224	-0.035623	0.019263	46.2501	-0.034536	-0.031035	-0.620699	NaN
750	1.000000	1.082817	7.3724e+06	-39589.1	1005.82	-29793.3	0.000000	0.000000	7.083174	-0.068359	NaN	0.000000	0.001631	0.001692	28.0814	0.100219	0.002017	49.6817	14.3274	-165.844	-0.118482	1.081512	-0.024249	-0.025554	-0.068359	49.6817	-0.023217	-0.015170	4.506333	NaN
750	1.000000	1.092828	7.3724e+06	-39589.1	1005.82	-29793.3	0.000000	0.000000	7.093184	-0.077603	NaN	0.000000	0.001610	0.001718	28.082	0.014265	0.002093	6.814538	145.7	14.7924	-0.053975	1.091481	-0.014238	-0.015585	-0.077603	6.814538	-0.005697	-0.003850	20.1542	NaN
750	1.000000	1.102835	7.3724e+06	-39589.1	1005.82	-29793.3	0.000000	0.000000	7.103192	-0.041003	NaN	0.000000	0.001662	0.001710	28.0829	0.092495	0.001992	46.4358	-30.9508	-166.72	-0.069399	1.101554	-0.004231	-0.005512	-0.041003	46.4358	-0.003569	-0.002498	16.4155	NaN
750	1.000000	1.112796	7.3724e+06	-39589.1	1005.82	-29793.3	0.000000	0.000000	7.113401	5.986614	NaN	0.000000	0.001640	0.001740	28.0825	6.200797	0.001812	3422.18	12.3501	10.1403	4.585755	1.111424	0.005730	0.004358	5.986614	3422.18	0.004418	0.003608	1659.23	52052.1
750	2.000000	1.117361	7.3724e+06	-39589.1	1005.82	-29793.3	0.000000	0.000000	7.118154	10.56	NaN	0.000000	0.001625	0.001703	28.0829	10.5264	0.001761	5977.11	6.688476	-172.076	10.0096	1.117062	0.010295	0.009996	10.56	5977.11	0.008970	0.008059	1310.29	60829.9
750	2.000000	1.119895	7.3724e+06	-39589.1	1005.82	-29793.3	0.000000	0.000000	7.120858	14.6938	NaN	0.000000	0.001633	0.001678	28.0827	13.3446	0.001887	7070.94	12.6712	2.812684	15.2242	1.119458	0.012829	0.012392	14.6938	7070.94	0.011270	0.010628	1382.58	62665.4
750	2.000000	1.122313	7.3724e+06	-39589.1	1005.82	-29793.3	0.000000	0.000000	7.123420	18.1998	NaN	0.000000	0.001602	0.001723	28.0828	14.9046	0.001682	8860.09	4.225592	-173.554	17.472	1.121964	0.015247	0.014898	18.1998	8860.09	0.013706	0.013599	1338.35	69416.6
750	2.000000	1.124841	7.3724e+06	-39589.1	1005.82	-29793.3	0.000000	0.000000	7.126143	22.9377	NaN	0.000000	0.001637	0.001694	28.0827	18.0896	0.001875	9646.99	11.414	0.217977	23.0825	1.124334	0.017775	0.017268	22.9377	9646.99	0.015992	0.016631	1379.21	68344.7
750	2.000000	1.127299	7.3724e+06	-39589.1	1005.82	-29793.3	0.000000	0.000000	7.128821	28.3097	NaN	0.000000	0.001621	0.001752	28.0833	19.9226	0.001676	11889.9	2.429246	-175.387	27.1802	1.126967	0.020233	0.019901	28.3097	11889.9	0.018447	0.020160	1404.22	76506.9
750	2.000000	1.129818	7.3724e+06	-39589.1	1005.82	-29793.3	0.000000	0.000000	7.131627	35.288	NaN	0.000000	0.001633	0.001715	28.0829	22.1565	0.001685	13151.4	6.206312	1.749125	33.8798	1.129416	0.022752	0.022350	35.288	13151.4	0.020740	0.023718	1487.82	78020.2
750	2.000000	1.132301	7.3724e+06	-39589.1	1005.82	-29793.3	0.000000	0.000000	7.134082	34.6015	NaN	0.000000	0.001639	0.001736	28.083	24.586	0.001899	12948.2	10.0807	179.331	35.6419	1.131987	0.025235	0.024921	34.6015	12948.2	0.023231	0.027876	1241.28	70854.9
750	2.000000	1.134762	7.3724e+06	-39589.1	1005.82	-29793.3	0.000000	0.000000	7.136890	43.0575	NaN	0.000000	0.001587	0.001678	28.0827	27.0544	0.001775	15238.6	4.417313	1.515225	42.0618	1.134426	0.027696	0.027360	43.0575	15238.6	0.025576	0.032073	1342.5	77741.3
750	2.000000	1.137287	7.3724e+06	-39589.1	1005.82	-29793.3	0.000000	0.000000	7.139521	45.6149	NaN	0.000000	0.001574	0.001726	28.0837	30.1556	0.001828	16500.2	6.787905	177.996	45.9702	1.136991	0.030221	0.029925	45.6149	16500.2	0.028148	0.036992	1233.09	78380.3
750	2.000000	1.139776	7.3724e+06	-39589.1	1005.82	-29793.3	0.000000	0.000000	7.142565	59.1241	NaN	0.000000	0.001627	0.001715	28.0828	31.9403	0.001816	17587.5	9.676812	-3.781965	57.1667	1.139333	0.032711	0.032267	59.1241	17587.5	0.030189	0.041137	1437.25	79225.1
750	2.000000	1.142236	7.3724e+06	-39589.1	1005.82	-29793.3	0.000000	0.000000	7.145242	64.3982	NaN	0.000000	0.001614	0.001764	28.0842	33.4734	0.001737	19273.6	6.273680	177.663	63.2818	1.141918	0.035170	0.034852	64.3982	19273.6	0.032664	0.046447	1386.48	81706.6
750	2.000000	1.144767	7.3724e+06	-39589.1	1005.82	-29793.3	0.000000	0.000000	7.148115	72.7383	NaN	0.000000	0.001601	0.001724	28.0817	36.6373	0.001830	20018.6	7.830466	-4.598742	72.1431	1.144397	0.037701	0.037331	72.7383	20018.6	0.034976	0.051690	1407.21	80446
750	2.000000	1.147229	7.3724e+06	-39589.1	1005.82	-29793.3	0.000000	0.000000	7.150941	81.5783	NaN	0.000000	0.001600	0.001692	28.0819	39.3202	0.001786	22015.2	4.993094	176.783	79.3839	1.146895	0.040163	0.039829	81.5783	22015.2	0.037384	0.057443	1420.17	83922.6
750	2.000000	1.149690	7.3724e+06	-39589.1	1005.82	-29793.3	0.000000	0.000000	7.153838	92.1954	NaN	0.000000	0.001572	0.001724	28.0817	40.8465	0.001946	20992.2	1.958522	1.750173	86.9741	1.149312	0.042624	0.042246	92.1954	20992.2	0.039331	0.062310	1479.63	76834.2
750	2.000000	1.152222	7.3724e+06	-39589.1	1005.82	-29793.3	0.000000	0.000000	7.156447	94.0505	NaN	0.000000	0.001621	0.001759	28.0826	43.4967	0.001778	24464.1	4.933147	176.333	91.7462	1.151895	0.045156	0.044829	94.0505	24464.1	0.042273	0.070035	1342.91	84459
750	2.000000	1.154688	7.3724e+06	-39589.1	1005.82	-29793.3	0.000000	0.000000	7.159336	104.351	NaN	0.000000	0.001588	0.001755	28.0815	45.2264	0.001580	28632.7	0.577377	-0.619094	101.013	1.154392	0.047622	0.047326	104.351	28632.7	0.044889	0.077272	1350.43	94107.4
750	2.000000	1.157249	7.3724e+06	-39589.1	1005.82	-29793.3	0.000000	0.000000	7.162260	113.185	NaN	0.000000	0.001584	0.001777	28.0816	49.6986	0.001789	27773.3	3.146626	176.339	113.355	1.157060	0.050184	0.049994	113.185	27773.3	0.047127	0.083740	1351.62	87686.8
750	2.000000	1.159691	7.3724e+06	-39589.1	1005.82	-29793.3	0.000000	0.000000	7.165176	124.724	NaN	0.000000	0.001620	0.001735	28.0814	50.8461	0.001878	27076.4	2.405628	-1.473020	119.829	1.159317	0.052626	0.052251	124.724	27076.4	0.049171	0.089867	1387.86	82520.7
750	2.000000	1.162191	7.3724e+06	-39589.1	1005.82	-29793.3	0.000000	0.000000	7.168127	135.719	NaN	0.000000	0.001604	0.001711	28.0822	53.175	0.001784	29800.2	5.299810	174.308	133.115	1.161823	0.055125	0.054757	135.719	29800.2	0.051709	0.097770	1388.15	87074.3
750	2.000000	1.164780	7.3724e+06	-39589.1	1005.82	-29793.3	0.000000	0.000000	7.171004	142.737	NaN	0.000000	0.001575	0.001716	28.0815	56.4025	0.001916	29441.8	6.160855	-6.323518	143.756	1.164424	0.057714	0.057358	142.737	29441.8	0.054078	0.105432	1353.83	82842
750	2.000000	1.167265	7.3724e+06	-39589.1	1005.82	-29793.3	0.000000	0.000000	7.174010	155.399	NaN	0.000000	0.001609	0.001697	28.0816	57.9359	0.001832	31627.3	5.310500	174.282	157.647	1.166931	0.060199	0.059866	155.399	31627.3	0.056514	0.113606	1367.88	85730.3
750	2.000000	1.169714	7.3724e+06	-39589.1	1005.82	-29793.3	0.000000	0.000000	7.177155	172.34	NaN	0.000000	0.001614	0.001701	28.0815	59.6147	0.001837	32449.5	6.154191	-6.739855	168.746	1.169378	0.062648	0.062312	172.34	32449.5	0.058665	0.121064	1423.55	85206.9
750	2.000000	1.172205	7.3724e+06	-39589.1	1005.82	-29793.3	0.000000	0.000000	7.180080	182.885	NaN	0.000000	0.001622	0.001717	28.0814	61.9324	0.001805	34302.2	5.597298	172.989	182.886	1.171929	0.065139	0.064863	182.885	34302.2	0.061140	0.129929	1407.57	86944.3
750	2.000000	1.174730	7.3724e+06	-39589.1	1005.82	-29793.3	0.000000	0.000000	7.183004	192.602	NaN	0.000000	0.001629	0.001709	28.0815	63.8547	0.001740	36690.6	4.595897	-6.124316	193.771	1.174492	0.067664	0.067426	192.602	36690.6	0.063727	0.139511	1380.55	89747.7
750	2.000000	1.177259	7.3724e+06	-39589.1	1005.82	-29793.3	0.000000	0.000000	7.186241	209.836	NaN	0.000000	0.001637	0.001736	28.0817	68.0596	0.001935	35178	8.115919	171.212	210.924	1.176909	0.070193	0.069843	209.836	35178	0.065719	0.147113	1426.36	83795.3
750	2.000000	1.179759	7.3724e+06	-39589.1	1005.82	-29793.3	0.000000	0.000000	7.189033	216.927	NaN	0.000000	0.001623	0.001714	28.0828	68.4643	0.001883	36362.9	2.469537	-4.155173	216.597	1.179577	0.072693	0.072511	216.927	36362.9	0.068219	0.156919	1382.42	83867.7
750	2.000000	1.182163	7.3724e+06	-39589.1	1005.82	-29793.3	0.000000	0.000000	7.192522	243.329	NaN	0.000000	0.001617	0.001726	28.0828	69.7856	0.001751	39850.1	2.616247	175.424	238.289	1.181791	0.075097	0.074725	243.329	39850.1	0.070518	0.166199	1464.08	89307.5
750	2.000000	1.184633	7.3724e+06	-39589.1	1005.82	-29793.3	0.000000	0.000000	7.195459	254.701	NaN	0.000000	0.001645	0.001762	28.0827	74.319	0.001834	40524.1	4.591417	-7.055172	248.418	1.184243	0.077567	0.077177	254.701	40524.1	0.072853	0.175887	1448.1	88281.5
750	2.000000	1.187178	7.3724e+06	-39589.1	1005.82	-29793.3	0.000000	0.000000	7.198567	268.407	NaN	0.000000	0.001647	0.001728	28.0829	76.654	0.001755	43684.3	5.749143	171.021	265.848	1.186927	0.080112	0.079861	268.407	43684.3	0.075504	0.187196	1433.83	92246.7
750	2.000000	1.189677	7.3724e+06	-39589.1	1005.82	-29793.3	0.000000	0.000000	7.201642	282.426	NaN	0.000000	0.001649	0.001707	28.0827	78.6721	0.001780	44208.7	5.212272	-8.651361	277.531	1.189318	0.082611	0.082253	282.426	44208.7	0.077820	0.197343	1431.14	90922.1
750	2.000000	1.192230	7.3724e+06	-39589.1	1005.82	-29793.3	0.000000	0.000000	7.204893	299.424	NaN	0.000000	0.001657	0.001729	28.0828	81.9981	0.001863	44018.3	10.3436	167.391	302.745	1.191815	0.085164	0.084749	299.424	44018.3	0.080062	0.207410	1443.64	88306.4
750	2.000000	1.194665	7.3724e+06	-39589.1	1005.82	-29793.3	0.000000	0.000000	7.208048	316.927	NaN	0.000000	0.001648	0.001749	28.0827	82.7745	0.001827	45302	3.300529	-5.761822	313.674	1.194275	0.087599	0.087209	316.927	45302	0.082352	0.217931	1454.25	88660.7
750	2.000000	1.197244	7.3724e+06	-39589.1	1005.82	-29793.3	0.000000	0.000000	7.211065	327.578	NaN	0.000000	0.001626	0.001771	28.0829	86.1496	0.001765	48817.5	4.747255	171.673	331.586	1.196902	0.090178	0.089836	327.578	48817.5	0.085145	0.231095	1417.5	92779.7
750	2.000000	1.199695	7.3724e+06	-39589.1	1005.82	-29793.3	0.000000	0.000000	7.214516	351.94	NaN	0.000000	0.001631	0.001750	28.0827	87.8908	0.001776	49483.8	5.375921	-9.499924	349.596	1.199463	0.092629	0.092397	351.94	49483.8	0.087294	0.241468	1457.5	92003.9
750	2.000000	1.202078	7.3724e+06	-39589.1	1005.82	-29793.3	0.000000	0.000000	7.217811	374.125	NaN	0.000000	0.001633	0.001750	28.0825	90.1353	0.001843	48896.8	7.119831	169.011	368.452	1.201836	0.095012	0.094770	374.125	48896.8	0.089273	0.251207	1489.31	89132.8
750	2.000000	1.204620	7.3724e+06	-39589.1	1005.82	-29793.3	0.000000	0.000000	7.221057	391.232	NaN	0.000000	0.001624	0.001712	28.0827	92.8408	0.001774	52338.6	3.922649	-8.634200	386.438	1.204472	0.097554	0.097406	391.232	52338.6	0.091948	0.264658	1478.25	92950.7
750	2.000000	1.207209	7.3724e+06	-39589.1	1005.82	-29793.3	0.000000	0.000000	7.224580	413.975	NaN	0.000000	0.001600	0.001713	28.0828	96.5186	0.001924	50176.4	3.163380	173.099	414.98	1.206842	0.100143	0.099776	413.975	50176.4	0.093955	0.274965	1505.55	87424.7
750	2.000000	1.209635	7.3724e+06	-39589.1	1005.82	-29793.3	0.000000	0.000000	7.227834	434.137	NaN	0.000000	0.001643	0.001692	28.0828	95.8177	0.001826	52487.7	4.083346	-8.344988	428.744	1.209358	0.102569	0.102292	434.137	52487.7	0.096365	0.287586	1509.59	89422.5
750	2.000000	1.212181	7.3724e+06	-39589.1	1005.82	-29793.3	0.000000	0.000000	7.231138	452.582	NaN	0.000000	0.001691	0.001693	28.0819	98.7757	0.001933	51100.4	5.933269	169.496	452.859	1.211922	0.105115	0.104856	452.582	51100.4	0.098472	0.298835	1514.49	85404.7
750	2.000000	1.214069	7.3724e+06	-39589.1	1005.82	-29793.3	0.000000	0.000000	7.234006	476.424	NaN	0.000000	0.001720	0.001675	28.0817	98.6839	0.001826	54034.5	2.122052	173.608	468.961	1.213837	0.107003	0.106771	476.424	54034.5	0.100390	0.309251	1540.58	88774.7