File: remote_trans/data/nanoindenter/0828-1/data/Data_2025-08-06,11h17m57s/2025-07-22_16-23-58_1_221.txt
2025-07-22, 16:23:58, 1
Index	Phase	Displacement	Time	Pos X	Pos Y	Pos Z	Rot A	Rot B	Piezo Z	Force A	Force B	Gripper	Voltage A	Voltage B	Temperature	Amplitude force	Amplitude pos	Stiffness	Phase shift	Phase excitation	Force A raw	Displacement raw	HMax	HMax raw	Real Force	Real Stiffness	Contact Depth	Area	Hardness	Reduced Mod.
[#]	[#]	[um]	[s]	[um]	[um]	[um]	[m°]	[m°]	[um]	[uN]	[uN]	[V]	[V]	[V]	[°C]	[uN]	[um]	[N/m]	[°]	[°]	[uN]	[um]	[um]	[um]	[uN]	[N/m]	[um]	[um^2]	[MPa]	[MPa]
221	1.000000	0.002409	7.36721e+06	-49689.1	955.819	-29758.3	0.000000	0.000000	6.002804	0.056810	NaN	0.000000	0.001633	0.001723	28.0779	0.061317	0.001055	58.1373	25.9305	-167.591	0.060051	0.001114	-1.161161	-1.162457	0.056810	58.1373	-1.161894	-3.390434E+15	-1.675611E-17	NaN
221	1.000000	0.012467	7.36721e+06	-49689.1	955.818	-29758.3	0.000000	0.000000	6.012861	0.013767	NaN	0.000000	0.001624	0.001736	28.0783	0.057264	0.001196	47.8775	-38.6741	16.5124	0.049523	0.011002	-1.151103	-1.152569	0.013767	47.8775	-1.151319	-2.446259E+15	-5.627915E-18	NaN
221	1.000000	0.022341	7.36721e+06	-49689.1	955.819	-29758.3	0.000000	0.000000	6.022734	0.016101	NaN	0.000000	0.001617	0.001723	28.078	0.040734	0.001783	22.8471	87.0182	-165.575	-0.014603	0.021051	-1.141230	-1.142520	0.016101	22.8471	-1.141758	-1.821023E+15	-8.841760E-18	NaN
221	1.000000	0.032393	7.36721e+06	-49689.1	955.818	-29758.3	0.000000	0.000000	6.032787	0.036796	NaN	0.000000	0.001643	0.001761	28.0781	0.095864	0.001810	52.9764	-114.207	15.0653	0.022398	0.031088	-1.131178	-1.132483	0.036796	52.9764	-1.131699	-1.334771E+15	-2.756750E-17	NaN
221	1.000000	0.042370	7.36721e+06	-49689.1	955.818	-29758.3	0.000000	0.000000	6.042762	-0.009934	NaN	0.000000	0.001583	0.001715	28.0789	0.060480	0.001932	31.3014	-159.615	-169.039	-0.003277	0.041088	-1.121200	-1.122483	-0.009934	31.3014	-1.120962	-9.580434E+14	1.036937E-17	NaN
221	1.000000	0.052364	7.36721e+06	-49689.1	955.819	-29758.3	0.000000	0.000000	6.052758	0.020083	NaN	0.000000	0.001618	0.001692	28.0794	0.061135	0.002017	30.3151	156.002	16.6478	-0.012420	0.051020	-1.111206	-1.112550	0.020083	30.3151	-1.111703	-7.196850E+14	-2.790541E-17	NaN
221	1.000000	0.062356	7.36721e+06	-49689.1	955.819	-29758.3	0.000000	0.000000	6.062745	-0.101220	NaN	0.000000	0.001618	0.001719	28.0789	0.050926	0.001958	26.0127	-10.2069	-167.189	-0.118128	0.061085	-1.101215	-1.102486	-0.101220	26.0127	-1.098296	-4.755486E+14	2.128496E-16	NaN
221	1.000000	0.072373	7.36721e+06	-49689.1	955.818	-29758.3	0.000000	0.000000	6.072767	0.021797	NaN	0.000000	0.001630	0.001715	28.0789	0.065352	0.001961	33.3214	-51.5505	12.7272	-0.021409	0.070965	-1.091198	-1.092605	0.021797	33.3214	-1.091688	-3.876862E+14	-5.622403E-17	NaN
221	1.000000	0.082391	7.36721e+06	-49689.1	955.819	-29758.3	0.000000	0.000000	6.082784	0.022809	NaN	0.000000	0.001599	0.001700	28.0792	0.104995	0.001971	53.263	54.1234	-165.68	-0.000876	0.081072	-1.081180	-1.082498	0.022809	53.263	-1.081501	-2.829303E+14	-8.061797E-17	NaN
221	1.000000	0.092378	7.36721e+06	-49689.1	955.818	-29758.3	0.000000	0.000000	6.092775	0.088299	NaN	0.000000	0.001615	0.001703	28.079	0.052560	0.002017	26.0574	-95.5797	15.4659	0.080698	0.091024	-1.071192	-1.072547	0.088299	26.0574	-1.073734	-2.225103E+14	-3.968323E-16	NaN
221	1.000000	0.102385	7.36721e+06	-49689.1	955.818	-29758.3	0.000000	0.000000	6.102779	0.017621	NaN	0.000000	0.001600	0.001695	28.0793	0.089775	0.002096	42.8239	-145.141	-165.215	0.007406	0.101112	-1.061185	-1.062459	0.017621	42.8239	-1.061494	-1.523692E+14	-1.156456E-16	NaN
221	1.000000	0.112370	7.36721e+06	-49689.1	955.818	-29758.3	0.000000	0.000000	6.112767	0.100844	NaN	0.000000	0.001608	0.001702	28.0793	0.120764	0.001958	61.6627	18.0078	15.0677	0.076000	0.111028	-1.051200	-1.052542	0.100844	61.6627	-1.052427	-1.150894E+14	-8.762217E-16	NaN
221	1.000000	0.122385	7.36721e+06	-49689.1	955.819	-29758.4	0.000000	0.000000	6.122779	0.031794	NaN	0.000000	0.001611	0.001659	28.0793	0.049525	0.002079	23.8214	-91.2647	-168.546	0.098648	0.121081	-1.041185	-1.042489	0.031794	23.8214	-1.042186	-8.382301E+13	-3.792985E-16	NaN
221	1.000000	0.132376	7.36721e+06	-49689.1	955.819	-29758.4	0.000000	0.000000	6.132766	-0.051557	NaN	0.000000	0.001632	0.001685	28.0792	0.059472	0.002129	27.9384	173.746	16.1078	-0.030137	0.131008	-1.031195	-1.032563	-0.051557	27.9384	-1.029811	-5.713969E+13	9.023008E-16	NaN
221	1.000000	0.142383	7.36721e+06	-49689.1	955.819	-29758.4	0.000000	0.000000	6.142776	-0.009280	NaN	0.000000	0.001630	0.001707	28.0791	0.063990	0.002092	30.5881	-78.0467	-166.923	0.017467	0.141062	-1.021187	-1.022509	-0.009280	30.5881	-1.020960	-4.343770E+13	2.136474E-16	NaN
221	1.000000	0.152396	7.36721e+06	-49689.1	955.819	-29758.4	0.000000	0.000000	6.152788	-0.011041	NaN	0.000000	0.001631	0.001694	28.0792	0.124567	0.001935	64.3748	1.954078	17.2158	-0.034407	0.151023	-1.011175	-1.012548	-0.011041	64.3748	-1.011046	-3.194954E+13	3.455794E-16	NaN
221	1.000000	0.162360	7.36721e+06	-49689.1	955.818	-29758.4	0.000000	0.000000	6.162752	-0.013687	NaN	0.000000	0.001612	0.001669	28.0792	0.121785	0.002009	60.623	-110.978	-164.446	0.022782	0.161101	-1.001211	-1.002470	-0.013687	60.623	-1.001042	-2.343116E+13	5.841435E-16	NaN
221	1.000000	0.172405	7.36721e+06	-49689.1	955.818	-29758.4	0.000000	0.000000	6.172799	0.014591	NaN	0.000000	0.001657	0.001681	28.0792	0.081084	0.001995	40.6432	89.9983	17.1118	0.019747	0.171039	-0.991165	-0.992532	0.014591	40.6432	-0.991434	-1.739519E+13	-8.388153E-16	NaN
221	1.000000	0.182389	7.36721e+06	-49689.1	955.817	-29758.4	0.000000	0.000000	6.182783	0.027780	NaN	0.000000	0.001642	0.001651	28.0782	0.125035	0.001942	64.3796	23.3118	-165.425	0.050277	0.181102	-0.981181	-0.982469	0.027780	64.3796	-0.981505	-1.278454E+13	-2.172936E-15	NaN
221	1.000000	0.192433	7.36721e+06	-49689.1	955.818	-29758.4	0.000000	0.000000	6.192827	0.030859	NaN	0.000000	0.001654	0.001676	28.0781	0.059154	0.001924	30.7393	172.503	13.9102	0.049942	0.191065	-0.971137	-0.972506	0.030859	30.7393	-0.971890	-9.487188E+12	-3.252663E-15	NaN
221	1.000000	0.202439	7.36721e+06	-49689.1	955.818	-29758.4	0.000000	0.000000	6.202833	0.019938	NaN	0.000000	0.001620	0.001662	28.0779	0.016042	0.002182	7.352953	14.9019	-167.263	0.051338	0.201125	-0.961131	-0.962446	0.019938	7.352953	-0.963165	-7.236657E+12	-2.755177E-15	NaN
221	1.000000	0.212444	7.36721e+06	-49689.1	955.819	-29758.4	0.000000	0.000000	6.212837	0.011499	NaN	0.000000	0.001710	0.001669	28.0777	0.103415	0.001992	51.9053	150.924	13.0319	0.069392	0.211036	-0.951127	-0.952534	0.011499	51.9053	-0.951293	-5.005707E+12	-2.297094E-15	NaN
221	1.000000	0.222444	7.36721e+06	-49689.1	955.818	-29758.4	0.000000	0.000000	6.222834	-0.058400	NaN	0.000000	0.001735	0.001665	28.0777	0.104835	0.002016	51.9947	41.979	-164.659	-0.082826	0.221157	-0.941126	-0.942414	-0.058400	51.9947	-0.940284	-3.556065E+12	1.642269E-14	NaN
221	1.000000	0.232433	7.36721e+06	-49689.1	955.818	-29758.4	0.000000	0.000000	6.232826	0.005584	NaN	0.000000	0.001688	0.001713	28.0782	0.009023	0.002095	4.306355	-22.1232	14.7095	0.042277	0.231087	-0.931138	-0.932484	0.005584	4.306355	-0.932110	-2.758540E+12	-2.024354E-15	NaN
221	1.000000	0.242430	7.36721e+06	-49689.1	955.818	-29758.4	0.000000	0.000000	6.242823	0.013367	NaN	0.000000	0.001670	0.001715	28.0777	0.054284	0.002008	27.0376	131.583	-162.977	0.052124	0.241160	-0.921141	-0.922411	0.013367	27.0376	-0.921511	-1.984322E+12	-6.736287E-15	NaN
221	1.000000	0.252433	7.36721e+06	-49689.1	955.818	-29758.4	0.000000	0.000000	6.252824	-0.053535	NaN	0.000000	0.001683	0.001691	28.0775	0.084990	0.002151	39.5186	176.381	17.3303	-0.013571	0.251142	-0.911137	-0.912428	-0.053535	39.5186	-0.910121	-1.392519E+12	3.844485E-14	NaN
221	1.000000	0.262437	7.36721e+06	-49689.1	955.818	-29758.4	0.000000	0.000000	6.262831	0.043463	NaN	0.000000	0.001697	0.001678	28.0777	0.093007	0.002042	45.5415	11.19	-166.174	0.004461	0.261143	-0.901134	-0.902427	0.043463	45.5415	-0.901850	-1.076613E+12	-4.037006E-14	NaN
221	1.000000	0.272453	7.36721e+06	-49689.1	955.818	-29758.4	0.000000	0.000000	6.272847	0.042961	NaN	0.000000	0.001699	0.001684	28.0776	0.023848	0.002056	11.5997	-145.212	14.7662	0.007177	0.271090	-0.891118	-0.892481	0.042961	11.5997	-0.893896	-8.405660E+11	-5.110937E-14	NaN
221	1.000000	0.282453	7.36721e+06	-49689.1	955.818	-29758.4	0.000000	0.000000	6.282844	-0.057670	NaN	0.000000	0.001686	0.001648	28.0774	0.099301	0.002108	47.0997	128.133	-167.558	-0.013170	0.281111	-0.881117	-0.882460	-0.057670	47.0997	-0.880199	-5.487818E+11	1.050877E-13	NaN
221	1.000000	0.292441	7.36721e+06	-49689.1	955.818	-29758.4	0.000000	0.000000	6.292836	0.043785	NaN	0.000000	0.001657	0.001670	28.0773	0.078037	0.001892	41.2513	145.103	14.4575	0.030206	0.291075	-0.871129	-0.872496	0.043785	41.2513	-0.871925	-4.241214E+11	-1.032376E-13	NaN
221	1.000000	0.302456	7.36721e+06	-49689.1	955.818	-29758.4	0.000000	0.000000	6.302849	0.008732	NaN	0.000000	0.001670	0.001677	28.0777	0.113471	0.001956	58.0199	-45.4694	-164.182	0.049804	0.301125	-0.861115	-0.862446	0.008732	58.0199	-0.861228	-3.039046E+11	-2.873241E-14	NaN
221	1.000000	0.312481	7.36721e+06	-49689.1	955.818	-29758.4	0.000000	0.000000	6.312873	-0.000172	NaN	0.000000	0.001655	0.001636	28.0775	0.045874	0.002067	22.1929	-45.4904	16.3744	0.008844	0.311106	-0.851090	-0.852465	-0.000172	22.1929	-0.851084	-2.215219E+11	7.752334E-16	NaN
221	1.000000	0.322466	7.36721e+06	-49689.1	955.819	-29758.4	0.000000	0.000000	6.322857	-0.038525	NaN	0.000000	0.001650	0.001671	28.0788	0.060042	0.002071	28.9902	95.9171	-163.173	-0.082657	0.321166	-0.841105	-0.842404	-0.038525	28.9902	-0.840108	-1.573090E+11	2.449030E-13	NaN
221	1.000000	0.332474	7.36721e+06	-49689.1	955.818	-29758.4	0.000000	0.000000	6.332865	-0.035347	NaN	0.000000	0.001685	0.001673	28.0788	0.033919	0.001878	18.0641	-10.792	12.3691	-0.027438	0.331121	-0.831097	-0.832449	-0.035347	18.0641	-0.829629	-1.134389E+11	3.115961E-13	NaN
221	1.000000	0.342510	7.36721e+06	-49689.1	955.818	-29758.4	0.000000	0.000000	6.342900	-0.070072	NaN	0.000000	0.001698	0.001681	28.079	0.011136	0.002043	5.451906	48.4035	-166.906	-0.010140	0.341171	-0.821060	-0.822400	-0.070072	5.451906	-0.811421	-6.424638E+10	1.090677E-12	NaN
221	1.000000	0.352478	7.36721e+06	-49689.1	955.819	-29758.4	0.000000	0.000000	6.352872	0.020964	NaN	0.000000	0.001598	0.001698	28.0787	0.048603	0.001939	25.0672	-105.45	19.5186	0.056636	0.351137	-0.811093	-0.812434	0.020964	25.0672	-0.811720	-6.484905E+10	-3.232795E-13	NaN
221	1.000000	0.362489	7.36721e+06	-49689.1	955.818	-29758.4	0.000000	0.000000	6.362880	-0.034648	NaN	0.000000	0.001634	0.001691	28.0789	0.005626	0.001977	2.845058	163.96	-170.835	-0.053140	0.361164	-0.801082	-0.802407	-0.034648	2.845058	-0.791948	-3.495763E+10	9.911437E-13	NaN
221	1.000000	0.372474	7.36721e+06	-49689.1	955.818	-29758.4	0.000000	0.000000	6.372865	-0.037595	NaN	0.000000	0.001633	0.001673	28.0788	0.085147	0.001992	42.7534	-7.275673	15.2673	0.000908	0.371132	-0.791097	-0.792438	-0.037595	42.7534	-0.790437	-3.334453E+10	1.127464E-12	NaN
221	1.000000	0.382506	7.36721e+06	-49689.1	955.818	-29758.4	0.000000	0.000000	6.382899	0.002500	NaN	0.000000	0.001631	0.001687	28.0793	0.055888	0.002054	27.2048	158.314	-164.421	-0.038030	0.381167	-0.781064	-0.782403	0.002500	27.2048	-0.781133	-2.492478E+10	-1.003155E-13	NaN
221	1.000000	0.392511	7.36721e+06	-49689.1	955.818	-29758.4	0.000000	0.000000	6.392902	-0.042226	NaN	0.000000	0.001614	0.001689	28.0789	0.082351	0.001962	41.9803	-124.173	13.3779	0.022496	0.391124	-0.771060	-0.772447	-0.042226	41.9803	-0.770305	-1.776057E+10	2.377515E-12	NaN
221	1.000000	0.402520	7.36721e+06	-49689.1	955.818	-29758.4	0.000000	0.000000	6.402917	0.088838	NaN	0.000000	0.001610	0.001682	28.0788	0.041396	0.002083	19.8772	169.986	-166.63	0.041288	0.401163	-0.761050	-0.762408	0.088838	19.8772	-0.764402	-1.476334E+10	-6.017447E-12	NaN
221	1.000000	0.412524	7.36721e+06	-49689.1	955.818	-29758.4	0.000000	0.000000	6.412915	-0.037400	NaN	0.000000	0.001639	0.001669	28.0788	0.138490	0.001910	72.5263	-84.7442	13.8446	-0.046343	0.411181	-0.751046	-0.752390	-0.037400	72.5263	-0.750660	-9.598411E+9	3.896456E-12	NaN
221	1.000000	0.422504	7.36721e+06	-49689.1	955.818	-29758.4	0.000000	0.000000	6.422898	0.039005	NaN	0.000000	0.001622	0.001688	28.0789	0.069171	0.002034	34.0088	102.117	-163.151	0.090523	0.421195	-0.741067	-0.742375	0.039005	34.0088	-0.741927	-7.299677E+9	-5.343435E-12	NaN
221	1.000000	0.432528	7.36721e+06	-49689.1	955.818	-29758.4	0.000000	0.000000	6.432921	0.012222	NaN	0.000000	0.001615	0.001678	28.0787	0.084792	0.002090	40.5633	-10.8849	13.7349	0.083302	0.431157	-0.731042	-0.732413	0.012222	40.5633	-0.731268	-5.225095E+9	-2.339058E-12	NaN
221	1.000000	0.442511	7.36721e+06	-49689.1	955.818	-29758.4	0.000000	0.000000	6.442907	0.091615	NaN	0.000000	0.001614	0.001674	28.0781	0.014409	0.001958	7.358705	-67.5113	-167.548	-0.013231	0.441210	-0.721060	-0.722360	0.091615	7.358705	-0.730397	-5.084234E+9	-1.801948E-11	NaN
221	1.000000	0.452518	7.36721e+06	-49689.1	955.819	-29758.4	0.000000	0.000000	6.452913	0.048638	NaN	0.000000	0.001622	0.001662	28.0777	0.074432	0.002102	35.4136	-48.7405	13.4118	0.060142	0.451173	-0.711053	-0.712398	0.048638	35.4136	-0.712083	-2.860670E+9	-1.700217E-11	NaN
221	1.000000	0.462534	7.36721e+06	-49689.1	955.818	-29758.4	0.000000	0.000000	6.462924	-0.043600	NaN	0.000000	0.001591	0.001682	28.0774	0.121364	0.001870	64.8958	-138.367	-163.724	-0.059653	0.461219	-0.701037	-0.702352	-0.043600	64.8958	-0.700533	-1.989813E+9	2.191182E-11	NaN
221	1.000000	0.472557	7.36721e+06	-49689.1	955.818	-29758.4	0.000000	0.000000	6.472950	-0.003374	NaN	0.000000	0.001613	0.001704	28.0772	0.135080	0.001982	68.149	54.443	18.5831	-0.101702	0.471173	-0.691013	-0.692397	-0.003374	68.149	-0.690976	-1.473196E+9	2.290061E-12	NaN
221	1.000000	0.482527	7.36721e+06	-49689.1	955.818	-29758.4	0.000000	0.000000	6.482920	0.012492	NaN	0.000000	0.001598	0.001689	28.0773	0.100854	0.001972	51.1308	32.7499	-162.305	0.051410	0.481263	-0.681043	-0.682307	0.012492	51.1308	-0.681227	-1.083878E+9	-1.152510E-11	NaN
221	1.000000	0.492560	7.36721e+06	-49689.1	955.818	-29758.4	0.000000	0.000000	6.492953	0.004153	NaN	0.000000	0.001641	0.001678	28.0773	0.061686	0.002006	30.7553	5.865878	15.7121	0.012111	0.491203	-0.671011	-0.672368	0.004153	30.7553	-0.671112	-7.881459E+8	-5.268710E-12	NaN
221	1.000000	0.502547	7.36721e+06	-49689.1	955.818	-29758.4	0.000000	0.000000	6.502938	-0.057474	NaN	0.000000	0.001570	0.001712	28.0776	0.025203	0.002001	12.5946	149.734	-166.938	-0.040209	0.501192	-0.661023	-0.662379	-0.057474	12.5946	-0.657601	-5.147591E+8	1.116522E-10	NaN
221	1.000000	0.512523	7.36721e+06	-49689.1	955.818	-29758.4	0.000000	0.000000	6.512915	-0.019142	NaN	0.000000	0.001627	0.001681	28.0773	0.024373	0.002034	11.9811	38.6578	15.1746	-0.044482	0.511221	-0.651048	-0.652350	-0.019142	11.9811	-0.649850	-4.030656E+8	4.749134E-11	NaN
221	1.000000	0.522546	7.36721e+06	-49689.1	955.818	-29758.4	0.000000	0.000000	6.522942	0.076557	NaN	0.000000	0.001570	0.001698	28.0772	0.135865	0.002072	65.5865	-100.938	-163.925	0.060742	0.521263	-0.641024	-0.642308	0.076557	65.5865	-0.641900	-3.135854E+8	-2.441346E-10	NaN
221	1.000000	0.532542	7.36721e+06	-49689.1	955.818	-29758.4	0.000000	0.000000	6.532934	-0.012868	NaN	0.000000	0.001592	0.001706	28.0774	0.126370	0.001926	65.6062	-169.67	15.2976	-0.023233	0.531231	-0.631029	-0.632339	-0.012868	65.6062	-0.630881	-2.213743E+8	5.812699E-11	NaN
221	1.000000	0.542552	7.36721e+06	-49689.1	955.818	-29758.4	0.000000	0.000000	6.542946	0.021134	NaN	0.000000	0.001611	0.001668	28.0773	0.055320	0.001975	28.0089	140.973	-165.35	0.035998	0.541277	-0.621019	-0.622294	0.021134	28.0089	-0.621584	-1.649724E+8	-1.281055E-10	NaN
221	1.000000	0.552566	7.36721e+06	-49689.1	955.819	-29758.4	0.000000	0.000000	6.552957	-0.039840	NaN	0.000000	0.001606	0.001665	28.0778	0.044387	0.001978	22.438	97.1926	14.9764	0.002847	0.551185	-0.611005	-0.612386	-0.039840	22.438	-0.609673	-1.131407E+8	3.521298E-10	NaN
221	1.000000	0.562587	7.36721e+06	-49689.1	955.818	-29758.4	0.000000	0.000000	6.562978	-0.044987	NaN	0.000000	0.001695	0.001695	28.0777	0.106390	0.001935	54.9905	114.377	-167.374	0.069237	0.561294	-0.600983	-0.602276	-0.044987	54.9905	-0.600370	-8.424684E+7	5.339957E-10	NaN
221	1.000000	0.572580	7.36721e+06	-49689.1	955.818	-29758.4	0.000000	0.000000	6.572974	0.029076	NaN	0.000000	0.001656	0.001714	28.0774	0.029431	0.001998	14.727	133.807	15.9114	0.058717	0.571198	-0.590990	-0.592373	0.029076	14.727	-0.592471	-6.557331E+7	-4.434113E-10	NaN
221	1.000000	0.582591	7.36721e+06	-49689.1	955.818	-29758.4	0.000000	0.000000	6.582985	0.019386	NaN	0.000000	0.001652	0.001707	28.0776	0.048242	0.001957	24.6457	-13.553	-167.27	0.038446	0.581305	-0.580979	-0.582265	0.019386	24.6457	-0.581569	-4.638552E+7	-4.179389E-10	NaN
221	1.000000	0.592576	7.36721e+06	-49689.1	955.818	-29758.4	0.000000	0.000000	6.592969	0.013689	NaN	0.000000	0.001618	0.001690	28.0787	0.057967	0.002031	28.5362	-38.9022	13.4971	-0.049070	0.591219	-0.570995	-0.572351	0.013689	28.5362	-0.571355	-3.352332E+7	-4.083432E-10	NaN
221	1.000000	0.602614	7.36721e+06	-49689.1	955.818	-29758.4	0.000000	0.000000	6.603009	0.055035	NaN	0.000000	0.001628	0.001697	28.0789	0.066733	0.001942	34.3544	34.4067	-171.061	0.040968	0.601313	-0.560956	-0.562258	0.055035	34.3544	-0.562158	-2.501642E+7	-2.199973E-9	NaN
221	1.000000	0.612582	7.36721e+06	-49689.1	955.818	-29758.4	0.000000	0.000000	6.612975	-0.009315	NaN	0.000000	0.001648	0.001721	28.0788	0.078050	0.001891	41.2847	-149.847	15.2144	0.054927	0.611289	-0.550988	-0.552282	-0.009315	41.2847	-0.550819	-1.743005E+7	5.344401E-10	NaN
221	1.000000	0.622593	7.36721e+06	-49689.1	955.818	-29758.4	0.000000	0.000000	6.622983	-0.058214	NaN	0.000000	0.001616	0.001690	28.0787	0.044774	0.002154	20.7873	1.873649	-163.394	0.000360	0.621265	-0.540978	-0.542306	-0.058214	20.7873	-0.538878	-1.190665E+7	4.889234E-9	NaN
221	1.000000	0.632618	7.36721e+06	-49689.1	955.818	-29758.4	0.000000	0.000000	6.633012	0.026853	NaN	0.000000	0.001630	0.001696	28.0787	0.104901	0.001817	57.7301	-108.787	13.9859	0.016994	0.631220	-0.530952	-0.532351	0.026853	57.7301	-0.531301	-9.34634e+06	-2.873114E-9	NaN
221	1.000000	0.642608	7.36721e+06	-49689.1	955.819	-29758.4	0.000000	0.000000	6.642998	-0.063029	NaN	0.000000	0.001641	0.001719	28.0787	0.012206	0.001917	6.368847	-67.6043	-168.499	-0.041815	0.641306	-0.520963	-0.522265	-0.063029	6.368847	-0.513540	-5.29318e+06	1.190766E-8	NaN
221	1.000000	0.652602	7.36721e+06	-49689.1	955.819	-29758.4	0.000000	0.000000	6.652996	0.024334	NaN	0.000000	0.001642	0.001691	28.0787	0.035070	0.001994	17.588	-171.801	10.8611	0.048534	0.651265	-0.510969	-0.512305	0.024334	17.588	-0.512006	-5.03912e+06	-4.829003E-9	NaN
221	1.000000	0.662613	7.36721e+06	-49689.1	955.817	-29758.4	0.000000	0.000000	6.663005	0.004103	NaN	0.000000	0.001582	0.001686	28.0786	0.115939	0.002001	57.9322	6.032848	-166.225	0.042829	0.661301	-0.500958	-0.502270	0.004103	57.9322	-0.501011	-3.54098e+06	-1.158610E-9	NaN
221	1.000000	0.672639	7.36721e+06	-49689.1	955.818	-29758.4	0.000000	0.000000	6.673032	0.012298	NaN	0.000000	0.001613	0.001686	28.0787	0.079542	0.002048	38.8317	-74.3037	15.9171	0.017280	0.671238	-0.490932	-0.492333	0.012298	38.8317	-0.491169	-2.58066e+06	-4.765574E-9	NaN
221	1.000000	0.682642	7.36721e+06	-49689.1	955.818	-29758.4	0.000000	0.000000	6.683035	0.007494	NaN	0.000000	0.001653	0.001689	28.0787	0.084161	0.001978	42.5594	-112.138	-164.853	0.007540	0.681336	-0.480929	-0.482234	0.007494	42.5594	-0.481061	-1.86372e+06	-4.020744E-9	NaN
221	1.000000	0.692602	7.36721e+06	-49689.1	955.819	-29758.4	0.000000	0.000000	6.692994	-0.032200	NaN	0.000000	0.001649	0.001636	28.0785	0.008392	0.001992	4.213984	-150.655	14.799	0.014709	0.691293	-0.470968	-0.472277	-0.032200	4.213984	-0.465238	-1.11836e+06	2.879234E-8	NaN
221	1.000000	0.702609	7.36721e+06	-49689.1	955.818	-29758.4	0.000000	0.000000	6.703000	-0.035639	NaN	0.000000	0.001576	0.001635	28.0786	0.072519	0.002008	36.1104	-4.185179	-163.596	-0.010733	0.701299	-0.460962	-0.462271	-0.035639	36.1104	-0.460221	-950889	3.747960E-8	NaN
221	1.000000	0.712617	7.36721e+06	-49689.1	955.818	-29758.4	0.000000	0.000000	6.713009	-0.025634	NaN	0.000000	0.001638	0.001687	28.0785	0.053539	0.001896	28.2318	-87.0449	12.8473	0.021383	0.711305	-0.450953	-0.452266	-0.025634	28.2318	-0.450272	-688933	3.720864E-8	NaN
221	1.000000	0.722641	7.36721e+06	-49689.1	955.818	-29758.4	0.000000	0.000000	6.723031	-0.055898	NaN	0.000000	0.001599	0.001674	28.0788	0.047529	0.002123	22.3849	104.711	-167.32	0.027542	0.721296	-0.440930	-0.442274	-0.055898	22.3849	-0.439057	-478690	1.167733E-7	NaN
221	1.000000	0.732652	7.36721e+06	-49689.1	955.817	-29758.4	0.000000	0.000000	6.733046	0.032853	NaN	0.000000	0.001548	0.001647	28.0776	0.062581	0.001922	32.5602	129.345	17.3188	0.040013	0.731290	-0.430918	-0.432280	0.032853	32.5602	-0.431675	-376489	-8.726029E-8	NaN
221	1.000000	0.742676	7.36721e+06	-49689.1	955.818	-29758.4	0.000000	0.000000	6.743070	0.029734	NaN	0.000000	0.001617	0.001657	28.0774	0.092314	0.001992	46.3476	6.592353	-166.742	0.054381	0.741379	-0.420895	-0.422192	0.029734	46.3476	-0.421376	-269106	-1.104924E-7	NaN
221	1.000000	0.752647	7.36721e+06	-49689.1	955.818	-29758.4	0.000000	0.000000	6.753041	0.032184	NaN	0.000000	0.001606	0.001679	28.0774	0.041255	0.001954	21.1118	34.959	14.8556	0.028041	0.751281	-0.410923	-0.412290	0.032184	21.1118	-0.412067	-198510	-1.621253E-7	NaN
221	1.000000	0.762683	7.36721e+06	-49689.1	955.818	-29758.4	0.000000	0.000000	6.763075	-0.036079	NaN	0.000000	0.001600	0.001658	28.0777	0.054527	0.002005	27.198	40.4492	-165.518	-0.013230	0.761352	-0.400887	-0.402218	-0.036079	27.198	-0.399892	-133187	2.708879E-7	NaN
221	1.000000	0.772630	7.36721e+06	-49689.1	955.818	-29758.4	0.000000	0.000000	6.773020	-0.068951	NaN	0.000000	0.001579	0.001688	28.0776	0.041871	0.002040	20.525	-21.3732	15.4725	-0.059329	0.771329	-0.390941	-0.392241	-0.068951	20.525	-0.388421	-91322.9	7.550206E-7	NaN
221	1.000000	0.782649	7.36721e+06	-49689.1	955.818	-29758.4	0.000000	0.000000	6.783042	-0.004438	NaN	0.000000	0.001550	0.001680	28.0775	0.032000	0.002041	15.6764	32.47	-162.649	0.038380	0.781438	-0.380921	-0.382133	-0.004438	15.6764	-0.380709	-70804.6	6.268032E-8	NaN
221	1.000000	0.792639	7.36721e+06	-49689.1	955.818	-29758.4	0.000000	0.000000	6.793032	0.023933	NaN	0.000000	0.001566	0.001674	28.0777	0.103792	0.002033	51.0627	150.029	14.5445	-0.020329	0.791265	-0.370932	-0.372306	0.023933	51.0627	-0.371284	-51833.3	-4.617274E-7	NaN
221	1.000000	0.802693	7.36721e+06	-49689.1	955.818	-29758.4	0.000000	0.000000	6.803087	0.015319	NaN	0.000000	0.001588	0.001652	28.0778	0.022482	0.001999	11.2464	60.9771	-166.886	-0.002175	0.801388	-0.360877	-0.362182	0.015319	11.2464	-0.361899	-37956.3	-4.035867E-7	NaN
221	1.000000	0.812676	7.36721e+06	-49689.1	955.818	-29758.4	0.000000	0.000000	6.813069	0.011488	NaN	0.000000	0.001559	0.001674	28.0778	0.061802	0.002047	30.1934	137.91	18.1585	-0.013952	0.811347	-0.350895	-0.352223	0.011488	30.1934	-0.351180	-26553.6	-4.326445E-7	NaN
221	1.000000	0.822685	7.36721e+06	-49689.1	955.818	-29758.4	0.000000	0.000000	6.823078	-0.001441	NaN	0.000000	0.001559	0.001696	28.0775	0.094802	0.002000	47.3985	-56.7682	-162.552	-0.031602	0.821378	-0.340885	-0.342193	-0.001441	47.3985	-0.340862	-18798.5	7.664839E-8	NaN
221	1.000000	0.832687	7.36721e+06	-49689.1	955.818	-29758.4	0.000000	0.000000	6.833080	0.012412	NaN	0.000000	0.001580	0.001703	28.0779	0.096838	0.001949	49.6785	64.5487	12.3143	0.020063	0.831302	-0.330884	-0.332269	0.012412	49.6785	-0.331071	-13525	-9.177333E-7	NaN
221	1.000000	0.842724	7.36721e+06	-49689.1	955.818	-29758.4	0.000000	0.000000	6.843113	-0.076678	NaN	0.000000	0.001568	0.001685	28.0775	0.096653	0.001989	48.6	153.648	-164.031	-0.065461	0.841414	-0.320847	-0.322156	-0.076678	48.6	-0.319663	-9197.8	8.336558E-6	NaN
221	1.000000	0.852697	7.36721e+06	-49689.1	955.818	-29758.4	0.000000	0.000000	6.853086	-0.088650	NaN	0.000000	0.001577	0.001710	28.0779	0.015671	0.001928	8.129112	140.657	12.8832	-0.024325	0.851386	-0.310873	-0.312185	-0.088650	8.129112	-0.302695	-5160.77	1.717758E-5	NaN
221	1.000000	0.862687	7.36721e+06	-49689.1	955.818	-29758.4	0.000000	0.000000	6.863079	-0.012927	NaN	0.000000	0.001595	0.001700	28.0786	0.078966	0.001842	42.8617	98.5339	-167.605	-0.015053	0.861414	-0.300884	-0.302156	-0.012927	42.8617	-0.300658	-4813.07	2.685874E-6	NaN
221	1.000000	0.872692	7.36721e+06	-49689.1	955.818	-29758.4	0.000000	0.000000	6.873086	0.028223	NaN	0.000000	0.001591	0.001711	28.0791	0.127619	0.002089	61.0789	-120.839	14.7264	0.007510	0.871362	-0.290878	-0.292209	0.028223	61.0789	-0.291225	-3480.52	-8.108833E-6	NaN
221	1.000000	0.882727	7.36721e+06	-49689.1	955.817	-29758.4	0.000000	0.000000	6.883122	0.063063	NaN	0.000000	0.001575	0.001696	28.0787	0.075143	0.002058	36.513	-159.135	-163.781	-0.006825	0.881409	-0.280844	-0.282161	0.063063	36.513	-0.282139	-2542.26	-2.480573E-5	NaN
221	1.000000	0.892712	7.36721e+06	-49689.1	955.818	-29758.4	0.000000	0.000000	6.893104	-0.015457	NaN	0.000000	0.001582	0.001713	28.079	0.061424	0.001976	31.0811	-155.725	13.9516	-0.000633	0.891318	-0.270859	-0.272252	-0.015457	31.0811	-0.270486	-1694.07	9.124149E-6	NaN
221	1.000000	0.902752	7.36721e+06	-49689.1	955.817	-29758.4	0.000000	0.000000	6.903144	-0.016182	NaN	0.000000	0.001569	0.001674	28.0789	0.065518	0.001934	33.8781	-141.628	-162.378	0.025553	0.901411	-0.260819	-0.262159	-0.016182	33.8781	-0.260461	-1191.18	1.358522E-5	NaN
221	1.000000	0.912720	7.36721e+06	-49689.1	955.818	-29758.4	0.000000	0.000000	6.913112	-0.006655	NaN	0.000000	0.001601	0.001670	28.0791	0.039928	0.001895	21.0723	135.316	16.7491	-0.039034	0.911438	-0.250851	-0.252132	-0.006655	21.0723	-0.250614	-840.354	7.919174E-6	NaN
221	1.000000	0.922722	7.36721e+06	-49689.1	955.819	-29758.4	0.000000	0.000000	6.923111	-0.097014	NaN	0.000000	0.001620	0.001672	28.0789	0.068739	0.001922	35.7627	20.6166	-163.331	-0.094953	0.921399	-0.240849	-0.242172	-0.097014	35.7627	-0.238814	-550.831	0.000176	NaN
221	1.000000	0.932731	7.36721e+06	-49689.1	955.819	-29758.4	0.000000	0.000000	6.933122	-0.040597	NaN	0.000000	0.001631	0.001696	28.0789	0.026125	0.002011	12.9884	-157.539	15.4881	-0.028789	0.931358	-0.230839	-0.232212	-0.040597	12.9884	-0.228495	-379.083	0.000107	NaN
221	1.000000	0.942727	7.36721e+06	-49689.1	955.818	-29758.4	0.000000	0.000000	6.943118	-0.030028	NaN	0.000000	0.001649	0.001733	28.0789	0.011930	0.001929	6.184581	-130.857	-167.874	0.029436	0.941414	-0.220844	-0.222157	-0.030028	6.184581	-0.217203	-250.547	0.000120	NaN
221	1.000000	0.952728	7.36721e+06	-49689.1	955.818	-29758.4	0.000000	0.000000	6.953120	-0.022204	NaN	0.000000	0.001621	0.001693	28.0791	0.112958	0.001957	57.7112	156.414	13.2306	0.050397	0.951395	-0.210842	-0.212175	-0.022204	57.7112	-0.210554	-195.788	0.000113	NaN
221	1.000000	0.962736	7.36721e+06	-49689.1	955.817	-29758.4	0.000000	0.000000	6.963131	0.037700	NaN	0.000000	0.001556	0.001664	28.0787	0.135695	0.002105	64.4598	121.755	-166.765	0.002971	0.961452	-0.200834	-0.202119	0.037700	64.4598	-0.201273	-138.228	-0.000273	NaN
221	1.000000	0.972690	7.36721e+06	-49689.1	955.818	-29758.4	0.000000	0.000000	6.973083	0.002507	NaN	0.000000	0.001535	0.001708	28.0785	0.045818	0.001923	23.8203	-0.109034	13.5657	-0.006380	0.971384	-0.190881	-0.192186	0.002507	23.8203	-0.190960	-93.3359	-2.685794E-5	NaN
221	1.000000	0.982728	7.36721e+06	-49689.1	955.818	-29758.4	0.000000	0.000000	6.983122	0.024518	NaN	0.000000	0.001556	0.001718	28.0788	0.032330	0.002046	15.8015	127.087	-165.593	0.023715	0.981459	-0.180843	-0.182111	0.024518	15.8015	-0.182006	-65.999	-0.000371	NaN
221	1.000000	0.992744	7.36721e+06	-49689.1	955.817	-29758.4	0.000000	0.000000	6.993137	-0.000719	NaN	0.000000	0.001558	0.001754	28.0787	0.045198	0.002007	22.523	-179.462	13.0849	0.048911	0.991396	-0.170826	-0.172174	-0.000719	22.523	-0.170803	-42.4168	1.696262E-5	NaN
221	1.000000	1.002723	7.36721e+06	-49689.1	955.817	-29758.4	0.000000	0.000000	7.003117	0.041296	NaN	0.000000	0.001565	0.001741	28.0774	0.057085	0.001995	28.6068	-108.67	-165.53	0.101030	1.001445	-0.160848	-0.162125	0.041296	28.6068	-0.161930	-29.6624	-0.001392	NaN
221	1.000000	1.012755	7.36721e+06	-49689.1	955.816	-29758.4	0.000000	0.000000	7.013148	0.017831	NaN	0.000000	0.001580	0.001728	28.0774	0.075395	0.002008	37.5463	-4.666428	13.0768	0.023349	1.011393	-0.150816	-0.152178	0.017831	37.5463	-0.151172	-19.0259	-0.000937	NaN
221	1.000000	1.022780	7.36721e+06	-49689.1	955.816	-29758.4	0.000000	0.000000	7.023173	0.021158	NaN	0.000000	0.001577	0.001685	28.0777	0.034659	0.001927	17.9862	-159.18	-166.322	0.039685	1.021509	-0.140791	-0.142061	0.021158	17.9862	-0.141673	-12.7149	-0.001664	NaN
221	1.000000	1.032758	7.36721e+06	-49689.1	955.817	-29758.4	0.000000	0.000000	7.033151	0.016241	NaN	0.000000	0.001556	0.001714	28.0773	0.021477	0.001988	10.8019	-18.5147	17.1851	0.028108	1.031463	-0.130813	-0.132108	0.016241	10.8019	-0.131940	-8.309502	-0.001954	NaN
221	1.000000	1.042761	7.36721e+06	-49689.1	955.817	-29758.4	0.000000	0.000000	7.043156	0.052219	NaN	0.000000	0.001556	0.001710	28.0773	0.045219	0.001942	23.2795	-73.8328	-168.402	0.133675	1.041449	-0.120810	-0.122122	0.052219	23.2795	-0.122492	-5.421591	-0.009632	NaN
221	1.000000	1.052760	7.36721e+06	-49689.1	955.818	-29758.4	0.000000	0.000000	7.053153	0.029242	NaN	0.000000	0.001572	0.001733	28.0773	0.060696	0.002077	29.225	-82.5381	13.7865	0.053784	1.051410	-0.110811	-0.112161	0.029242	29.225	-0.111561	-3.240999	-0.009022	NaN
221	1.000000	1.062777	7.36721e+06	-49689.1	955.817	-29758.4	0.000000	0.000000	7.063168	-0.043861	NaN	0.000000	0.001541	0.001740	28.0775	0.059863	0.002026	29.5532	-162.11	-167.922	-0.024168	1.061439	-0.100793	-0.102131	-0.043861	29.5532	-0.099680	-1.797529	0.024400	NaN
221	1.000000	1.072766	7.36721e+06	-49689.1	955.817	-29758.4	0.000000	0.000000	7.073160	0.032301	NaN	0.000000	0.001572	0.001673	28.0773	0.091956	0.002018	45.5671	-17.2676	14.9818	-0.038049	1.071435	-0.090805	-0.092135	0.032301	45.5671	-0.091336	-1.161567	-0.027808	NaN
221	1.000000	1.082777	7.36721e+06	-49689.1	955.818	-29758.4	0.000000	0.000000	7.083169	-0.003789	NaN	0.000000	0.001582	0.001711	28.0775	0.110060	0.002023	54.4156	106.864	-164.95	0.008529	1.081491	-0.080794	-0.082080	-0.003789	54.4156	-0.080742	-0.645935	0.005865	NaN
221	1.000000	1.092806	7.36721e+06	-49689.1	955.818	-29758.4	0.000000	0.000000	7.093199	0.012045	NaN	0.000000	0.001580	0.001715	28.0776	0.033760	0.002020	16.7165	-104.902	10.3338	0.033741	1.091372	-0.070765	-0.072199	0.012045	16.7165	-0.071305	-0.369569	-0.032592	NaN
221	1.000000	1.102803	7.36721e+06	-49689.1	955.817	-29758.4	0.000000	0.000000	7.103195	-0.002454	NaN	0.000000	0.001564	0.001649	28.0774	0.151921	0.001960	77.5239	-140.248	-165.071	0.018338	1.101530	-0.060768	-0.062041	-0.002454	77.5239	-0.060744	-0.189144	0.012976	NaN
221	1.000000	1.112790	7.36721e+06	-49689.1	955.817	-29758.4	0.000000	0.000000	7.113185	0.064644	NaN	0.000000	0.001587	0.001686	28.0772	0.081675	0.002037	40.0869	47.6329	10.8601	0.059007	1.111394	-0.050781	-0.052177	0.064644	40.0869	-0.051990	-0.104761	-0.617067	NaN
221	1.000000	1.122792	7.36721e+06	-49689.1	955.817	-29758.4	0.000000	0.000000	7.123186	0.024068	NaN	0.000000	0.001560	0.001686	28.0774	0.051979	0.002038	25.5087	50.8424	-165.499	0.022220	1.121497	-0.040779	-0.042074	0.024068	25.5087	-0.041486	-0.050187	-0.479566	NaN
221	1.000000	1.132785	7.36721e+06	-49689.1	955.819	-29758.4	0.000000	0.000000	7.133178	-0.005101	NaN	0.000000	0.001562	0.001679	28.0775	0.117064	0.002045	57.2501	-142.272	13.5614	0.019368	1.131436	-0.030785	-0.032135	-0.005101	57.2501	-0.030718	-0.024104	0.211616	NaN
221	1.000000	1.142818	7.36721e+06	-49689.1	955.816	-29758.4	0.000000	0.000000	7.143211	-0.015948	NaN	0.000000	0.001549	0.001676	28.0784	0.031236	0.001928	16.1985	158.067	-167.577	-0.022875	1.141509	-0.020752	-0.022062	-0.015948	16.1985	-0.020014	-0.012571	1.268632	NaN
221	1.000000	1.152808	7.36721e+06	-49689.1	955.817	-29758.4	0.000000	0.000000	7.153204	0.075271	NaN	0.000000	0.001564	0.001679	28.0787	0.060421	0.001984	30.4474	-155.791	13.2976	0.042751	1.151442	-0.010763	-0.012128	0.075271	30.4474	-0.012617	-0.007882	-9.549843	NaN
221	1.000000	1.162797	7.36721e+06	-49689.1	955.818	-29758.4	0.000000	0.000000	7.163191	0.034738	NaN	0.000000	0.001572	0.001703	28.0788	0.042309	0.001941	21.7937	74.3636	-168.828	0.034247	1.161569	-0.000773	-0.002002	0.034738	21.7937	-0.001969	-0.001418	-24.5036	NaN
221	1.000000	1.172811	7.36721e+06	-49689.1	955.817	-29758.4	0.000000	0.000000	7.173467	6.405832	NaN	0.000000	0.001587	0.001688	28.0789	6.349824	0.001717	3699.11	10.0696	9.884890	4.866457	1.171455	0.009240	0.007885	6.405832	3699.11	0.007941	0.006982	917.459	40446.1
221	2.000000	1.177315	7.36721e+06	-49689.1	955.816	-29758.4	0.000000	0.000000	7.178227	12.6074	NaN	0.000000	0.001625	0.001656	28.0792	10.2695	0.001498	6853.38	4.452832	-172.897	11.4048	1.177119	0.013745	0.013548	12.6074	6853.38	0.012365	0.011930	1056.75	57326
221	2.000000	1.179801	7.36721e+06	-49689.1	955.818	-29758.4	0.000000	0.000000	7.180842	15.7675	NaN	0.000000	0.001648	0.001638	28.0786	13.4386	0.001736	7742.81	5.414956	7.256424	13.8134	1.179439	0.016231	0.015868	15.7675	7742.81	0.014703	0.014892	1058.78	57968.9
221	2.000000	1.182291	7.36721e+06	-49689.1	955.818	-29758.4	0.000000	0.000000	7.183521	20.3484	NaN	0.000000	0.001625	0.001655	28.0789	16.2301	0.001802	9004.88	1.339970	-169.696	19.0743	1.181963	0.018721	0.018392	20.3484	9004.88	0.017026	0.018083	1125.28	61181.1
221	2.000000	1.184803	7.36721e+06	-49689.1	955.817	-29758.4	0.000000	0.000000	7.186283	26.4325	NaN	0.000000	0.001639	0.001644	28.079	19.1676	0.001759	10894.2	9.234672	1.307164	25.3886	1.184434	0.021232	0.020863	26.4325	10894.2	0.019413	0.021628	1222.15	67680.4
221	2.000000	1.187296	7.36721e+06	-49689.1	955.817	-29758.4	0.000000	0.000000	7.189025	32.4983	NaN	0.000000	0.001663	0.001687	28.0796	21.623	0.001728	12515.4	4.939600	-175.801	32.9005	1.186989	0.023725	0.023418	32.4983	12515.4	0.021778	0.025413	1278.81	71728.2
221	2.000000	1.189741	7.36721e+06	-49689.1	955.817	-29758.4	0.000000	0.000000	7.191766	39.6794	NaN	0.000000	0.001593	0.001675	28.079	24.3956	0.001708	14286	6.343769	0.905357	37.6146	1.189498	0.026171	0.025928	39.6794	14286	0.024088	0.029377	1350.72	76152.3
221	2.000000	1.192287	7.36721e+06	-49689.1	955.817	-29758.4	0.000000	0.000000	7.194571	45.9853	NaN	0.000000	0.001535	0.001681	28.0792	27.3399	0.001858	14716.8	4.202968	-175.9	46.4769	1.191998	0.028717	0.028427	45.9853	14716.8	0.026373	0.033562	1370.18	73394.7
221	2.000000	1.194757	7.36721e+06	-49689.1	955.817	-29758.4	0.000000	0.000000	7.197351	53.5507	NaN	0.000000	0.001563	0.001686	28.079	30.073	0.001742	17259.2	8.305690	-1.556068	52.8774	1.194455	0.031186	0.030884	53.5507	17259.2	0.028859	0.038412	1394.12	80456.3
221	2.000000	1.197240	7.36721e+06	-49689.1	955.818	-29758.4	0.000000	0.000000	7.200248	63.5984	NaN	0.000000	0.001592	0.001660	28.079	31.9249	0.001701	18764.3	5.653519	178.933	63.5389	1.196937	0.033670	0.033367	63.5984	18764.3	0.031128	0.043113	1475.15	82565.6
221	2.000000	1.199743	7.36721e+06	-49689.1	955.817	-29758.4	0.000000	0.000000	7.203082	71.6517	NaN	0.000000	0.001577	0.001717	28.0778	34.3768	0.001715	20049	7.887418	-2.873458	69.9885	1.199367	0.036172	0.035796	71.6517	20049	0.033492	0.048293	1483.68	83353.6
221	2.000000	1.202273	7.36721e+06	-49689.1	955.817	-29758.4	0.000000	0.000000	7.206000	81.0952	NaN	0.000000	0.001605	0.001684	28.0779	38.0185	0.001848	20577.8	6.958816	177.452	80.1677	1.202020	0.038702	0.038449	81.0952	20577.8	0.035746	0.053498	1515.86	81283.8
221	2.000000	1.204776	7.36721e+06	-49689.1	955.818	-29758.4	0.000000	0.000000	7.208915	91.0957	NaN	0.000000	0.001605	0.001652	28.079	40.2854	0.001830	22011.3	9.521270	-4.990541	89.6744	1.204356	0.041206	0.040785	91.0957	22011.3	0.038102	0.059215	1538.38	82642.3
221	2.000000	1.207276	7.36721e+06	-49689.1	955.819	-29758.4	0.000000	0.000000	7.211626	96.2502	NaN	0.000000	0.001612	0.001693	28.0781	42.2688	0.001836	23019.3	3.998965	179.806	97.0545	1.206945	0.043705	0.043374	96.2502	23019.3	0.040569	0.065508	1469.28	82170.8
221	2.000000	1.209727	7.36721e+06	-49689.1	955.819	-29758.4	0.000000	0.000000	7.214676	110.81	NaN	0.000000	0.001628	0.001679	28.0777	44.2761	0.001808	24495.4	6.472041	-2.275150	109.828	1.209341	0.046156	0.045770	110.81	24495.4	0.042764	0.071365	1552.71	83775
221	2.000000	1.212168	7.36721e+06	-49689.1	955.818	-29758.4	0.000000	0.000000	7.217647	123.71	NaN	0.000000	0.001570	0.001670	28.078	46.0411	0.001703	27034.7	1.379885	-179.408	120.573	1.211931	0.048597	0.048361	123.71	27034.7	0.045165	0.078056	1584.89	88407.7
221	2.000000	1.214773	7.36721e+06	-49689.1	955.818	-29758.4	0.000000	0.000000	7.220598	132.105	NaN	0.000000	0.001559	0.001649	28.0779	49.2223	0.001592	30927.4	9.015244	-7.091950	132.209	1.214355	0.051202	0.050785	132.105	30927.4	0.047999	0.086328	1530.27	96170.3
221	2.000000	1.217216	7.36721e+06	-49689.1	955.818	-29758.4	0.000000	0.000000	7.223360	139.881	NaN	0.000000	0.001533	0.001687	28.0781	52.1572	0.001738	30014.4	4.865697	176.171	138.584	1.216933	0.053645	0.053362	139.881	30014.4	0.050150	0.092876	1506.1	89980.7
221	2.000000	1.219718	7.36721e+06	-49689.1	955.818	-29758.4	0.000000	0.000000	7.226481	154.94	NaN	0.000000	0.001506	0.001702	28.0779	54.2778	0.001786	30390.5	1.838559	-0.438800	153.082	1.219329	0.056147	0.055759	154.94	30390.5	0.052323	0.099729	1553.6	87922.4
221	2.000000	1.222173	7.36721e+06	-49689.1	955.818	-29758.4	0.000000	0.000000	7.229448	167.382	NaN	0.000000	0.001536	0.001723	28.0781	57.7624	0.001845	31313.1	6.175662	174.974	165.363	1.221855	0.058602	0.058284	167.382	31313.1	0.054593	0.107137	1562.32	87403.8
221	2.000000	1.224732	7.36721e+06	-49689.1	955.818	-29758.4	0.000000	0.000000	7.232664	183.354	NaN	0.000000	0.001566	0.001720	28.0781	59.1519	0.001797	32917.6	4.781713	-3.430552	182.799	1.224360	0.061161	0.060790	183.354	32917.6	0.056984	0.115214	1591.41	88602.9
221	2.000000	1.227194	7.36721e+06	-49689.1	955.819	-29758.4	0.000000	0.000000	7.235635	195.719	NaN	0.000000	0.001564	0.001718	28.0779	61.8494	0.001718	35997.4	7.651316	171.634	193.663	1.226899	0.063623	0.063329	195.719	35997.4	0.059546	0.124184	1576.05	93328
221	2.000000	1.229685	7.36721e+06	-49689.1	955.819	-29758.4	0.000000	0.000000	7.238745	210.786	NaN	0.000000	0.001558	0.001673	28.0777	64.0449	0.001769	36194.1	0.847571	-1.203477	207.244	1.229407	0.066115	0.065836	210.786	36194.1	0.061747	0.132147	1595.09	90966.8
221	2.000000	1.232237	7.36721e+06	-49689.1	955.817	-29758.4	0.000000	0.000000	7.241660	219.611	NaN	0.000000	0.001584	0.001692	28.078	67.1807	0.001832	36667.3	3.709079	175.795	219.601	1.231972	0.068666	0.068401	219.611	36667.3	0.064174	0.141202	1555.3	89152.2
221	2.000000	1.234698	7.36721e+06	-49689.1	955.818	-29758.4	0.000000	0.000000	7.245090	243.156	NaN	0.000000	0.001592	0.001750	28.0791	68.7309	0.001750	39275.9	3.884190	-3.841450	240.93	1.234250	0.071128	0.070679	243.156	39275.9	0.066485	0.150082	1620.15	92626.4
221	2.000000	1.237197	7.36721e+06	-49689.1	955.818	-29758.4	0.000000	0.000000	7.248129	256.31	NaN	0.000000	0.001588	0.001742	28.0793	71.6184	0.001691	42340.9	7.596917	171.549	255.6	1.236870	0.073626	0.073300	256.31	42340.9	0.069086	0.160389	1598.05	96593.1
221	2.000000	1.239716	7.36721e+06	-49689.1	955.818	-29758.4	0.000000	0.000000	7.251292	271.968	NaN	0.000000	0.001587	0.001697	28.0791	74.7499	0.001797	41592.8	5.199454	-5.690457	272.013	1.239181	0.076145	0.075610	271.968	41592.8	0.071241	0.169173	1607.63	92390.2
221	2.000000	1.242207	7.36721e+06	-49689.1	955.818	-29758.4	0.000000	0.000000	7.254141	280.695	NaN	0.000000	0.001567	0.001702	28.0794	77.8844	0.001732	44960.9	5.735654	172.008	279.053	1.242041	0.078636	0.078470	280.695	44960.9	0.073954	0.180542	1554.74	96676.1
221	2.000000	1.244647	7.36721e+06	-49689.1	955.817	-29758.4	0.000000	0.000000	7.257671	307.196	NaN	0.000000	0.001543	0.001711	28.0792	79.2331	0.001829	43322.6	6.147117	-7.265213	302.463	1.244313	0.081076	0.080743	307.196	43322.6	0.075758	0.188297	1631.44	91214.8
221	2.000000	1.247171	7.36721e+06	-49689.1	955.818	-29758.4	0.000000	0.000000	7.260990	326.532	NaN	0.000000	0.001591	0.001694	28.0789	81.623	0.001936	42170	5.590228	173.455	323.787	1.246810	0.083600	0.083239	326.532	42170	0.077793	0.197224	1655.64	86755.5
221	2.000000	1.249758	7.36721e+06	-49689.1	955.819	-29758.4	0.000000	0.000000	7.264124	339.828	NaN	0.000000	0.001549	0.001699	28.079	85.2811	0.001797	47465.3	8.496640	-9.708656	342.87	1.249214	0.086187	0.085643	339.828	47465.3	0.080818	0.210855	1611.67	94440.3
221	2.000000	1.252155	7.36721e+06	-49689.1	955.82	-29758.4	0.000000	0.000000	7.267245	357.429	NaN	0.000000	0.001541	0.001682	28.0794	87.3673	0.001909	45756.9	2.940276	175.241	353.897	1.252013	0.088585	0.088443	357.429	45756.9	0.082726	0.219674	1627.09	89195.1
221	2.000000	1.254807	7.36721e+06	-49689.1	955.819	-29758.4	0.000000	0.000000	7.270856	380.74	NaN	0.000000	0.001558	0.001703	28.0789	89.9622	0.001810	49691.5	8.291749	-9.926131	385.539	1.254266	0.091237	0.090695	380.74	49691.5	0.085490	0.232745	1635.87	94105.6
221	2.000000	1.257217	7.36721e+06	-49689.1	955.819	-29758.4	0.000000	0.000000	7.274219	403.916	NaN	0.000000	0.001569	0.001705	28.0791	91.8302	0.001722	53334.2	7.253152	170.231	406.43	1.256741	0.093647	0.093171	403.916	53334.2	0.087967	0.244756	1650.28	98494.6
221	2.000000	1.259626	7.36721e+06	-49689.1	955.819	-29758.4	0.000000	0.000000	7.277575	426.955	NaN	0.000000	0.001574	0.001718	28.0792	94.9857	0.001784	53256	8.336164	-10.7556	420.762	1.259176	0.096056	0.095606	426.955	53256	0.090043	0.255044	1674.05	96346.1
221	2.000000	1.262074	7.36721e+06	-49689.1	955.82	-29758.4	0.000000	0.000000	7.280883	447.885	NaN	0.000000	0.001536	0.001734	28.0795	96.1309	0.001716	56032.6	1.829672	175.008	442.062	1.261878	0.098503	0.098308	447.885	56032.6	0.092508	0.267517	1674.23	98978
221	2.000000	1.264739	7.36721e+06	-49689.1	955.82	-29758.4	0.000000	0.000000	7.284213	464.046	NaN	0.000000	0.001587	0.001691	28.079	99.0969	0.001767	56077.7	7.089248	-9.357828	466.233	1.264118	0.101168	0.100547	464.046	56077.7	0.094962	0.280204	1656.1	96789.1
221	2.000000	1.267217	7.36721e+06	-49689.1	955.82	-29758.4	0.000000	0.000000	7.287431	482.061	NaN	0.000000	0.001554	0.001670	28.0791	100.422	0.001790	56115.2	4.486463	172.119	483.779	1.266948	0.103646	0.103377	482.061	56115.2	0.097203	0.292034	1650.7	94871.7
221	2.000000	1.269688	7.36721e+06	-49689.1	955.82	-29758.4	0.000000	0.000000	7.291056	510.112	NaN	0.000000	0.001578	0.001686	28.078	103.124	0.001741	59241.2	3.290036	-6.871524	508.802	1.269388	0.106117	0.105817	510.112	59241.2	0.099659	0.305262	1671.07	97962.8
221	2.000000	1.272231	7.36721e+06	-49689.1	955.82	-29758.4	0.000000	0.000000	7.294264	526.265	NaN	0.000000	0.001545	0.001658	28.078	107.312	0.001776	60436.6	6.293872	170.3	529.947	1.271899	0.108661	0.108328	526.265	60436.6	0.102130	0.318845	1650.53	97787.4
221	2.000000	1.274154	7.36721e+06	-49689.1	955.819	-29758.4	0.000000	0.000000	7.297117	548.9	NaN	0.000000	0.001548	0.001673	28.0779	108.405	0.001838	58966.8	7.684481	169.22	547.95	1.273740	0.110583	0.110170	548.9	58966.8	0.103602	0.327067	1678.25	94202.5