File: remote_trans/data/nanoindenter/0828-1/data/Data_2025-08-06,11h17m57s/2025-07-22_16-23-58_1_159.txt
2025-07-22, 16:23:58, 1
Index	Phase	Displacement	Time	Pos X	Pos Y	Pos Z	Rot A	Rot B	Piezo Z	Force A	Force B	Gripper	Voltage A	Voltage B	Temperature	Amplitude force	Amplitude pos	Stiffness	Phase shift	Phase excitation	Force A raw	Displacement raw	HMax	HMax raw	Real Force	Real Stiffness	Contact Depth	Area	Hardness	Reduced Mod.
[#]	[#]	[um]	[s]	[um]	[um]	[um]	[m°]	[m°]	[um]	[uN]	[uN]	[V]	[V]	[V]	[°C]	[uN]	[um]	[N/m]	[°]	[°]	[uN]	[um]	[um]	[um]	[uN]	[N/m]	[um]	[um^2]	[MPa]	[MPa]
159	1.000000	0.002501	7.36659e+06	-46589.1	955.819	-29769.1	0.000000	0.000000	6.002804	-0.008713	NaN	0.000000	0.001711	0.001621	28.0855	0.037556	0.000915	41.041	-106.366	-170.342	0.007577	0.001189	-1.081552	-1.082864	-0.008713	41.041	-1.081393	-2.819874E+14	3.089853E-17	NaN
159	1.000000	0.012562	7.36659e+06	-46589.1	955.819	-29769.1	0.000000	0.000000	6.012863	-0.063776	NaN	0.000000	0.001704	0.001642	28.0863	0.042239	0.001223	34.5235	26.2898	15.5545	-0.011078	0.011174	-1.071491	-1.072879	-0.063776	34.5235	-1.070106	-1.988898E+14	3.206582E-16	NaN
159	1.000000	0.022449	7.36659e+06	-46589.1	955.818	-29769.1	0.000000	0.000000	6.022752	-0.012059	NaN	0.000000	0.001663	0.001621	28.1203	0.081674	0.001692	48.2808	-25.86	-166.501	0.039984	0.021174	-1.061605	-1.062879	-0.012059	48.2808	-1.061417	-1.520087E+14	7.932958E-17	NaN
159	1.000000	0.032468	7.36659e+06	-46589.1	955.819	-29769.1	0.000000	0.000000	6.032769	-0.078233	NaN	0.000000	0.001632	0.001666	28.1194	0.027355	0.001914	14.2923	-100.894	12.6557	0.023574	0.031103	-1.051585	-1.052951	-0.078233	14.2923	-1.047479	-9.874844E+13	7.922408E-16	NaN
159	1.000000	0.042438	7.36659e+06	-46589.1	955.819	-29769.1	0.000000	0.000000	6.042745	0.070043	NaN	0.000000	0.001641	0.001659	28.0831	0.013302	0.001869	7.115334	-130.757	-162.665	-0.016967	0.041141	-1.041615	-1.042913	0.070043	7.115334	-1.048998	-1.035009E+14	-6.767343E-16	NaN
159	1.000000	0.052464	7.36659e+06	-46589.1	955.819	-29769.1	0.000000	0.000000	6.052765	-0.056008	NaN	0.000000	0.001668	0.001682	28.0849	0.048263	0.002039	23.6692	-116.837	17.382	-0.113218	0.051101	-1.031589	-1.032952	-0.056008	23.6692	-1.029814	-5.714586E+13	9.800872E-16	NaN
159	1.000000	0.062442	7.36659e+06	-46589.1	955.819	-29769.1	0.000000	0.000000	6.062745	-0.016361	NaN	0.000000	0.001634	0.001627	28.1209	0.076927	0.002085	36.8905	161.984	-165.819	0.045196	0.061178	-1.021611	-1.022875	-0.016361	36.8905	-1.021279	-4.386909E+13	3.729481E-16	NaN
159	1.000000	0.072435	7.36659e+06	-46589.1	955.818	-29769.1	0.000000	0.000000	6.072739	0.011430	NaN	0.000000	0.001637	0.001645	28.121	0.058939	0.001894	31.1126	27.3839	14.4392	-0.062868	0.071116	-1.011618	-1.012938	0.011430	31.1126	-1.011893	-3.279934E+13	-3.484924E-16	NaN
159	1.000000	0.082470	7.36659e+06	-46589.1	955.818	-29769.1	0.000000	0.000000	6.082774	0.005181	NaN	0.000000	0.001565	0.001684	28.0837	0.050942	0.001848	27.5727	-115.009	-162.065	-0.082016	0.081115	-1.001583	-1.002939	0.005181	27.5727	-1.001724	-2.393181E+13	-2.164966E-16	NaN
159	1.000000	0.092456	7.36659e+06	-46589.1	955.819	-29769.1	0.000000	0.000000	6.092757	-0.055681	NaN	0.000000	0.001636	0.001658	28.0847	0.025181	0.002033	12.3881	103.251	13.347	0.000887	0.091100	-0.991597	-0.992953	-0.055681	12.3881	-0.988226	-1.574793E+13	3.535773E-15	NaN
159	1.000000	0.102464	7.36659e+06	-46589.1	955.818	-29769.1	0.000000	0.000000	6.102762	-0.120958	NaN	0.000000	0.001701	0.001619	28.1193	0.103167	0.001978	52.1606	-130.232	-162.177	-0.107637	0.101143	-0.981590	-0.982910	-0.120958	52.1606	-0.979850	-1.214494E+13	9.959538E-15	NaN
159	1.000000	0.112475	7.3666e+06	-46589.1	955.818	-29769.1	0.000000	0.000000	6.112776	-0.075750	NaN	0.000000	0.001692	0.001667	28.1205	0.055763	0.001860	29.9877	-117.356	16.0733	-0.104933	0.111159	-0.971578	-0.972895	-0.075750	29.9877	-0.969683	-8.859214E+12	8.550460E-15	NaN
159	1.000000	0.122453	7.3666e+06	-46589.1	955.819	-29769.1	0.000000	0.000000	6.122754	-0.060675	NaN	0.000000	0.001698	0.001644	28.083	0.089687	0.002040	43.9735	15.8886	-165.628	-0.023336	0.121202	-0.961600	-0.962852	-0.060675	43.9735	-0.960565	-6.675575E+12	9.089160E-15	NaN
159	1.000000	0.132504	7.3666e+06	-46589.1	955.817	-29769.1	0.000000	0.000000	6.132806	-0.033067	NaN	0.000000	0.001697	0.001665	28.0831	0.006569	0.002039	3.221223	-160.441	17.2708	-0.017561	0.131155	-0.951550	-0.952898	-0.033067	3.221223	-0.943851	-3.972709E+12	8.323439E-15	NaN
159	1.000000	0.142465	7.3666e+06	-46589.1	955.819	-29769.1	0.000000	0.000000	6.142769	0.003233	NaN	0.000000	0.001715	0.001681	28.1205	0.025227	0.002074	12.161	-66.5237	-167.789	5.371577E-5	0.141067	-0.941588	-0.942986	0.003233	12.161	-0.941787	-3.726075E+12	-8.677636E-16	NaN
159	1.000000	0.152487	7.3666e+06	-46589.1	955.818	-29769.1	0.000000	0.000000	6.152793	0.061382	NaN	0.000000	0.001722	0.001680	28.1213	0.039369	0.002015	19.5337	-44.0786	12.585	-0.012225	0.151102	-0.931566	-0.932952	0.061382	19.5337	-0.933923	-2.918384E+12	-2.103289E-14	NaN
159	1.000000	0.162491	7.3666e+06	-46589.1	955.818	-29769.1	0.000000	0.000000	6.162793	-0.048452	NaN	0.000000	0.001700	0.001733	28.0848	0.092060	0.002020	45.5724	-31.3329	-167.605	-0.026770	0.161127	-0.921562	-0.922927	-0.048452	45.5724	-0.920765	-1.938779E+12	2.499112E-14	NaN
159	1.000000	0.172485	7.3666e+06	-46589.1	955.818	-29769.1	0.000000	0.000000	6.172790	0.043907	NaN	0.000000	0.001733	0.001733	28.0853	0.011061	0.001922	5.754480	157.098	15.0058	0.069802	0.171104	-0.911568	-0.912949	0.043907	5.754480	-0.917291	-1.740304E+12	-2.522938E-14	NaN
159	1.000000	0.182496	7.3666e+06	-46589.1	955.819	-29769.1	0.000000	0.000000	6.182800	0.011443	NaN	0.000000	0.001692	0.001685	28.1212	0.032659	0.002013	16.2219	-116.231	-166.226	0.092882	0.181173	-0.901558	-0.902880	0.011443	16.2219	-0.902087	-1.084582E+12	-1.055065E-14	NaN
159	1.000000	0.192501	7.3666e+06	-46589.1	955.818	-29769.1	0.000000	0.000000	6.192802	-0.055556	NaN	0.000000	0.001717	0.001700	28.1215	0.077842	0.002090	37.2425	-99.5274	15.7964	-0.096855	0.191154	-0.891552	-0.892899	-0.055556	37.2425	-0.890434	-7.547032E+11	7.361366E-14	NaN
159	1.000000	0.202524	7.3666e+06	-46589.1	955.818	-29769.1	0.000000	0.000000	6.202827	-0.012043	NaN	0.000000	0.001686	0.001693	28.0845	0.052247	0.002052	25.4651	-105.965	-166.806	-0.054949	0.201207	-0.881529	-0.882846	-0.012043	25.4651	-0.881175	-5.657076E+11	2.128861E-14	NaN
159	1.000000	0.212545	7.3666e+06	-46589.1	955.818	-29769.1	0.000000	0.000000	6.212847	-0.046444	NaN	0.000000	0.001694	0.001693	28.0833	0.074191	0.002065	35.9323	-82.0399	11.1709	0.021377	0.211164	-0.871508	-0.872889	-0.046444	35.9323	-0.870539	-4.061937E+11	1.143394E-13	NaN
159	1.000000	0.222510	7.3666e+06	-46589.1	955.818	-29769.1	0.000000	0.000000	6.222814	0.023405	NaN	0.000000	0.001632	0.001623	28.1212	0.033277	0.001978	16.8272	67.9368	-163.368	-0.068872	0.221152	-0.861544	-0.862901	0.023405	16.8272	-0.862587	-3.170539E+11	-7.382076E-14	NaN
159	1.000000	0.232537	7.3666e+06	-46589.1	955.818	-29769.1	0.000000	0.000000	6.232839	-0.042745	NaN	0.000000	0.001676	0.001697	28.1226	0.030846	0.002015	15.3074	-71.2322	15.0655	-0.099048	0.231180	-0.851516	-0.852873	-0.042745	15.3074	-0.849422	-2.103323E+11	2.032274E-13	NaN
159	1.000000	0.242522	7.3666e+06	-46589.1	955.818	-29769.1	0.000000	0.000000	6.242824	-0.034310	NaN	0.000000	0.001666	0.001694	28.0863	0.097475	0.002061	47.2883	-12.1872	-169.623	-0.033557	0.241252	-0.841532	-0.842802	-0.034310	47.2883	-0.840987	-1.616852E+11	2.121998E-13	NaN
159	1.000000	0.252531	7.3666e+06	-46589.1	955.818	-29769.1	0.000000	0.000000	6.252834	-0.006191	NaN	0.000000	0.001658	0.001694	28.085	0.088994	0.001881	47.3031	-125.751	12.7192	-0.063014	0.251135	-0.831522	-0.832919	-0.006191	47.3031	-0.831424	-1.199745E+11	5.160668E-14	NaN
159	1.000000	0.262536	7.3666e+06	-46589.1	955.82	-29769.1	0.000000	0.000000	6.262837	-0.052631	NaN	0.000000	0.001639	0.001693	28.1209	0.037742	0.002096	18.0089	22.7636	-164.633	0.013785	0.261200	-0.821517	-0.822853	-0.052631	18.0089	-0.819325	-8.223604E+10	6.400038E-13	NaN
159	1.000000	0.272559	7.3666e+06	-46589.1	955.818	-29769.1	0.000000	0.000000	6.272860	-0.042693	NaN	0.000000	0.001619	0.001677	28.1221	0.017102	0.001998	8.558961	92.0551	15.7278	-0.004801	0.271187	-0.811495	-0.812867	-0.042693	8.558961	-0.807754	-5.729170E+10	7.451780E-13	NaN
159	1.000000	0.282548	7.3666e+06	-46589.1	955.818	-29769.1	0.000000	0.000000	6.282848	-0.082676	NaN	0.000000	0.001628	0.001719	28.0843	0.041253	0.002126	19.4038	119.506	-161.698	-0.103653	0.281265	-0.801505	-0.802788	-0.082676	19.4038	-0.798310	-4.265003E+10	1.938481E-12	NaN
159	1.000000	0.292526	7.3666e+06	-46589.1	955.818	-29769.1	0.000000	0.000000	6.292830	0.010320	NaN	0.000000	0.001632	0.001708	28.0846	0.115488	0.001984	58.1996	100.507	13.6603	-0.000333	0.291221	-0.791528	-0.792832	0.010320	58.1996	-0.791661	-3.464470E+10	-2.978871E-13	NaN
159	1.000000	0.302543	7.3666e+06	-46589.1	955.819	-29769.1	0.000000	0.000000	6.302849	0.063468	NaN	0.000000	0.001575	0.001673	28.12	0.077568	0.001924	40.3125	59.3477	-164.742	0.015732	0.301227	-0.781510	-0.782826	0.063468	40.3125	-0.782691	-2.616951E+10	-2.425248E-12	NaN
159	1.000000	0.312556	7.3666e+06	-46589.1	955.818	-29769.1	0.000000	0.000000	6.312858	-0.042084	NaN	0.000000	0.001583	0.001694	28.1229	0.069181	0.001937	35.7217	-143.895	16.6547	-0.022486	0.311171	-0.771497	-0.772882	-0.042084	35.7217	-0.770614	-1.793293E+10	2.346762E-12	NaN
159	1.000000	0.322551	7.3666e+06	-46589.1	955.818	-29769.1	0.000000	0.000000	6.322854	-0.011470	NaN	0.000000	0.001584	0.001721	28.085	0.048268	0.001958	24.6467	168.209	-163.953	-0.035846	0.321249	-0.761503	-0.762804	-0.011470	24.6467	-0.761154	-1.333510E+10	8.601230E-13	NaN
159	1.000000	0.332528	7.3666e+06	-46589.1	955.818	-29769.1	0.000000	0.000000	6.332829	-0.060979	NaN	0.000000	0.001542	0.001718	28.0841	0.010678	0.002031	5.257499	14.4433	15.4895	-0.077755	0.331189	-0.751525	-0.752864	-0.060979	5.257499	-0.742826	-7.508451E+9	8.121447E-12	NaN
159	1.000000	0.342572	7.3666e+06	-46589.1	955.817	-29769.1	0.000000	0.000000	6.342874	-0.036672	NaN	0.000000	0.001546	0.001697	28.1186	0.109527	0.002077	52.7313	-116.032	-164.701	-0.044074	0.341257	-0.741481	-0.742796	-0.036672	52.7313	-0.740959	-7.081466E+9	5.178519E-12	NaN
159	1.000000	0.352564	7.3666e+06	-46589.1	955.819	-29769.1	0.000000	0.000000	6.352870	0.063113	NaN	0.000000	0.001572	0.001704	28.1214	0.049393	0.001905	25.9237	3.599458	10.9544	0.021523	0.351196	-0.731489	-0.732858	0.063113	25.9237	-0.733315	-5.571692E+9	-1.132736E-11	NaN
159	1.000000	0.362574	7.3666e+06	-46589.1	955.818	-29769.1	0.000000	0.000000	6.362877	-0.026115	NaN	0.000000	0.001539	0.001674	28.0843	0.021110	0.002018	10.4584	43.7763	-166.93	-0.052569	0.361314	-0.721479	-0.722739	-0.026115	10.4584	-0.719606	-3.623291E+9	7.207501E-12	NaN
159	1.000000	0.372577	7.3666e+06	-46589.1	955.818	-29769.1	0.000000	0.000000	6.372881	-0.002918	NaN	0.000000	0.001579	0.001675	28.0831	0.071343	0.002001	35.6537	-123.598	16.5748	-0.030163	0.371210	-0.711476	-0.712843	-0.002918	35.6537	-0.711415	-2.801255E+9	1.041682E-12	NaN
159	1.000000	0.382561	7.3666e+06	-46589.1	955.819	-29769.1	0.000000	0.000000	6.382861	-0.062495	NaN	0.000000	0.001596	0.001672	28.1187	0.095373	0.001794	53.1645	-112.593	-163.942	-0.066646	0.381261	-0.701493	-0.702793	-0.062495	53.1645	-0.700611	-1.994697E+9	3.133060E-11	NaN
159	1.000000	0.392631	7.3666e+06	-46589.1	955.818	-29769.1	0.000000	0.000000	6.392932	-0.061417	NaN	0.000000	0.001596	0.001662	28.1224	0.011704	0.002033	5.757331	-87.536	14.3064	-0.076874	0.391185	-0.691422	-0.692868	-0.061417	5.757331	-0.683421	-1.161430E+9	5.288018E-11	NaN
159	1.000000	0.402590	7.3666e+06	-46589.1	955.819	-29769.1	0.000000	0.000000	6.402890	-0.085161	NaN	0.000000	0.001549	0.001691	28.0863	0.041388	0.002082	19.877	154.881	-164.752	-0.109996	0.401302	-0.681464	-0.682752	-0.085161	19.877	-0.678250	-9.869035E+8	8.629116E-11	NaN
159	1.000000	0.412574	7.3666e+06	-46589.1	955.818	-29769.1	0.000000	0.000000	6.412876	-0.039458	NaN	0.000000	0.001529	0.001664	28.0834	0.091116	0.001981	45.9979	49.1789	13.3391	-0.019486	0.411258	-0.671479	-0.672796	-0.039458	45.9979	-0.670836	-7.813221E+8	5.050131E-11	NaN
159	1.000000	0.422621	7.3666e+06	-46589.1	955.819	-29769.1	0.000000	0.000000	6.422923	-0.038837	NaN	0.000000	0.001580	0.001652	28.1176	0.160005	0.002003	79.8853	150.797	-164.288	-0.026667	0.421327	-0.661432	-0.662726	-0.038837	79.8853	-0.661068	-5.742426E+8	6.763141E-11	NaN
159	1.000000	0.432611	7.3666e+06	-46589.1	955.819	-29769.1	0.000000	0.000000	6.432916	0.040084	NaN	0.000000	0.001601	0.001647	28.122	0.032004	0.002021	15.8387	-1.851617	17.5069	0.016839	0.431231	-0.651442	-0.652822	0.040084	15.8387	-0.653340	-4.500108E+8	-8.907247E-11	NaN
159	1.000000	0.442591	7.3666e+06	-46589.1	955.819	-29769.1	0.000000	0.000000	6.442895	0.008682	NaN	0.000000	0.001554	0.001678	28.0841	0.140823	0.001945	72.4127	-70.8894	-168.513	0.056382	0.441264	-0.641462	-0.642790	0.008682	72.4127	-0.641552	-3.101611E+8	-2.799210E-11	NaN
159	1.000000	0.452618	7.3666e+06	-46589.1	955.819	-29769.1	0.000000	0.000000	6.452923	0.044637	NaN	0.000000	0.001626	0.001670	28.0833	0.095694	0.001961	48.7924	-162.995	15.1092	0.103427	0.451218	-0.631436	-0.632835	0.044637	48.7924	-0.632122	-2.302277E+8	-1.938812E-10	NaN
159	1.000000	0.462621	7.3666e+06	-46589.1	955.818	-29769.1	0.000000	0.000000	6.462920	-0.086766	NaN	0.000000	0.001579	0.001674	28.1199	0.110639	0.002091	52.9089	14.1562	-167.893	-0.046517	0.461301	-0.621433	-0.622752	-0.086766	52.9089	-0.620203	-1.579142E+8	5.494496E-10	NaN
159	1.000000	0.472616	7.3666e+06	-46589.1	955.818	-29769.1	0.000000	0.000000	6.472917	-0.042618	NaN	0.000000	0.001527	0.001644	28.1236	0.083497	0.001965	42.4877	75.7957	13.9534	-0.015389	0.471321	-0.611438	-0.612733	-0.042618	42.4877	-0.610685	-1.168273E+8	3.647916E-10	NaN
159	1.000000	0.482605	7.3666e+06	-46589.1	955.818	-29769.1	0.000000	0.000000	6.482907	-0.044020	NaN	0.000000	0.001540	0.001643	28.0854	0.119532	0.002108	56.7101	-175.055	-168.164	-0.026358	0.481365	-0.601448	-0.602688	-0.044020	56.7101	-0.600866	-8.558209E+7	5.143543E-10	NaN
159	1.000000	0.492620	7.3666e+06	-46589.1	955.819	-29769.1	0.000000	0.000000	6.492924	0.003802	NaN	0.000000	0.001587	0.001628	28.0836	0.111016	0.001947	57.032	-177.236	14.7207	-0.042630	0.491264	-0.591433	-0.592790	0.003802	57.032	-0.591483	-6.354913E+7	-5.982759E-11	NaN
159	1.000000	0.502654	7.3666e+06	-46589.1	955.818	-29769.1	0.000000	0.000000	6.502956	-0.043582	NaN	0.000000	0.001569	0.001645	28.1187	0.058114	0.001986	29.2623	19.7955	-164.972	-0.001617	0.501323	-0.581399	-0.582730	-0.043582	29.2623	-0.580282	-4.452622E+7	9.787990E-10	NaN
159	1.000000	0.512659	7.3666e+06	-46589.1	955.818	-29769.1	0.000000	0.000000	6.512962	-0.031451	NaN	0.000000	0.001561	0.001645	28.1222	0.046646	0.002029	22.985	13.5683	12.9828	-0.010939	0.511281	-0.571394	-0.572772	-0.031451	22.985	-0.570368	-3.248715E+7	9.681183E-10	NaN
159	1.000000	0.522655	7.3666e+06	-46589.1	955.818	-29769.1	0.000000	0.000000	6.522959	0.004723	NaN	0.000000	0.001565	0.001642	28.085	0.115158	0.002006	57.416	-151.208	-162.933	-0.057602	0.521343	-0.561398	-0.562711	0.004723	57.416	-0.561460	-2.446624E+7	-1.930322E-10	NaN
159	1.000000	0.532681	7.3666e+06	-46589.1	955.819	-29769.1	0.000000	0.000000	6.532982	-0.047930	NaN	0.000000	0.001566	0.001634	28.0851	0.073878	0.002049	36.0576	45.4222	12.3209	0.028967	0.531278	-0.551373	-0.552775	-0.047930	36.0576	-0.550376	-1.718545E+7	2.788981E-9	NaN
159	1.000000	0.542651	7.3666e+06	-46589.1	955.819	-29769.1	0.000000	0.000000	6.542952	-0.070136	NaN	0.000000	0.001551	0.001631	28.1194	0.094638	0.002010	47.0945	-7.624757	-163.725	-0.082595	0.541333	-0.541402	-0.542720	-0.070136	47.0945	-0.540285	-1.245405E+7	5.631592E-9	NaN
159	1.000000	0.552668	7.3666e+06	-46589.1	955.819	-29769.1	0.000000	0.000000	6.552974	0.045302	NaN	0.000000	0.001561	0.001635	28.1241	0.049585	0.002042	24.2822	101.089	16.1914	-0.023200	0.551325	-0.531385	-0.532728	0.045302	24.2822	-0.532784	-9.80019e+06	-4.622511E-9	NaN
159	1.000000	0.562669	7.3666e+06	-46589.1	955.818	-29769.1	0.000000	0.000000	6.562968	-0.107384	NaN	0.000000	0.001546	0.001650	28.0867	0.020812	0.002059	10.1069	-105.638	-167.796	-0.020536	0.561366	-0.521384	-0.522687	-0.107384	10.1069	-0.513415	-5.27202e+06	2.036877E-8	NaN
159	1.000000	0.572704	7.3666e+06	-46589.1	955.819	-29769.1	0.000000	0.000000	6.573005	-0.043929	NaN	0.000000	0.001554	0.001675	28.0823	0.020009	0.001980	10.1069	136.686	13.1949	-0.023384	0.571320	-0.511350	-0.512733	-0.043929	10.1069	-0.508090	-4.44431e+06	9.884320E-9	NaN
159	1.000000	0.582637	7.3666e+06	-46589.1	955.818	-29769.1	0.000000	0.000000	6.582939	-0.026342	NaN	0.000000	0.001525	0.001669	28.1172	0.170394	0.001966	86.6635	-10.7804	-164.228	-0.001341	0.581372	-0.501417	-0.502681	-0.026342	86.6635	-0.501189	-3.56122e+06	7.396990E-9	NaN
159	1.000000	0.592660	7.3666e+06	-46589.1	955.819	-29769.1	0.000000	0.000000	6.592964	0.002457	NaN	0.000000	0.001521	0.001687	28.122	0.022419	0.001964	11.4123	101.763	17.2427	-0.032434	0.591337	-0.491393	-0.492716	0.002457	11.4123	-0.491554	-2.61284e+06	-9.404997E-10	NaN
159	1.000000	0.602686	7.3666e+06	-46589.1	955.818	-29769.1	0.000000	0.000000	6.602989	-0.030040	NaN	0.000000	0.001574	0.001682	28.0825	0.080051	0.002056	38.9322	144.427	-164.873	-0.009366	0.601422	-0.481367	-0.482631	-0.030040	38.9322	-0.480788	-1.8474e+06	1.626080E-8	NaN
159	1.000000	0.612687	7.3666e+06	-46589.1	955.817	-29769.1	0.000000	0.000000	6.612989	-0.047857	NaN	0.000000	0.001569	0.001689	28.0811	0.079728	0.001890	42.1927	-69.1209	17.3522	-0.022323	0.611352	-0.471366	-0.472702	-0.047857	42.1927	-0.470516	-1.32629e+06	3.608336E-8	NaN
159	1.000000	0.622666	7.3666e+06	-46589.1	955.818	-29769.1	0.000000	0.000000	6.622969	-0.001075	NaN	0.000000	0.001581	0.001684	28.1181	0.126825	0.002075	61.1172	66.7786	-162.719	-0.016852	0.621356	-0.461388	-0.462698	-0.001075	61.1172	-0.461374	-987031	1.088803E-9	NaN
159	1.000000	0.632698	7.3666e+06	-46589.1	955.818	-29769.1	0.000000	0.000000	6.633002	0.005749	NaN	0.000000	0.001534	0.001684	28.1231	0.125604	0.002037	61.6532	11.6292	13.7204	-0.026490	0.631331	-0.451355	-0.452722	0.005749	61.6532	-0.451425	-715161	-8.038952E-9	NaN
159	1.000000	0.642711	7.3666e+06	-46589.1	955.818	-29769.1	0.000000	0.000000	6.643011	-0.074765	NaN	0.000000	0.001529	0.001704	28.0846	0.078455	0.001962	39.9805	-98.9354	-166.063	-0.075520	0.641416	-0.441342	-0.442638	-0.074765	39.9805	-0.439940	-492622	1.517702E-7	NaN
159	1.000000	0.652735	7.3666e+06	-46589.1	955.818	-29769.1	0.000000	0.000000	6.653037	-0.029722	NaN	0.000000	0.001521	0.001660	28.0825	0.097234	0.001954	49.7621	-57.9459	14.5706	0.016495	0.651351	-0.431318	-0.432702	-0.029722	49.7621	-0.430870	-366750	8.104075E-8	NaN
159	1.000000	0.662733	7.3666e+06	-46589.1	955.819	-29769.1	0.000000	0.000000	6.663037	0.014151	NaN	0.000000	0.001559	0.001678	28.1173	0.113435	0.002022	56.0864	-117.429	-164.202	0.039036	0.661371	-0.421321	-0.422682	0.014151	56.0864	-0.421510	-270287	-5.235375E-8	NaN
159	1.000000	0.672716	7.3666e+06	-46589.1	955.818	-29769.1	0.000000	0.000000	6.673018	-0.014594	NaN	0.000000	0.001522	0.001707	28.1222	0.026384	0.002002	13.1814	-120.18	20.0674	-0.014925	0.671322	-0.411338	-0.412731	-0.014594	13.1814	-0.410507	-188632	7.736709E-8	NaN
159	1.000000	0.682741	7.3666e+06	-46589.1	955.819	-29769.1	0.000000	0.000000	6.683044	-0.022613	NaN	0.000000	0.001569	0.001693	28.0846	0.120046	0.002005	59.8866	3.452142	-165.352	-0.054915	0.681407	-0.401312	-0.402646	-0.022613	59.8866	-0.401029	-138251	1.635651E-7	NaN
159	1.000000	0.692711	7.3666e+06	-46589.1	955.819	-29769.1	0.000000	0.000000	6.693013	-0.043282	NaN	0.000000	0.001537	0.001656	28.0817	0.046065	0.002194	20.993	-137.888	15.8805	-0.033079	0.691355	-0.391342	-0.392698	-0.043282	20.993	-0.389796	-95553.2	4.529623E-7	NaN
159	1.000000	0.702707	7.3666e+06	-46589.1	955.818	-29769.1	0.000000	0.000000	6.703011	-0.005794	NaN	0.000000	0.001545	0.001679	28.1179	0.107518	0.002059	52.2155	-111.312	-167.323	-0.050311	0.701379	-0.381346	-0.382674	-0.005794	52.2155	-0.381263	-72111.6	8.035265E-8	NaN
159	1.000000	0.712730	7.3666e+06	-46589.1	955.819	-29769.1	0.000000	0.000000	6.713034	0.018827	NaN	0.000000	0.001582	0.001643	28.1248	0.185479	0.001948	95.2332	-151.205	14.9016	0.002426	0.711338	-0.371323	-0.372716	0.018827	95.2332	-0.371472	-52157.3	-3.609743E-7	NaN
159	1.000000	0.722724	7.3666e+06	-46589.1	955.819	-29769.1	0.000000	0.000000	6.723030	0.068707	NaN	0.000000	0.001575	0.001631	28.0857	0.050154	0.001917	26.1591	-21.3491	-162.044	0.079167	0.721401	-0.361330	-0.362652	0.068707	26.1591	-0.363299	-39765.8	-1.727785E-6	NaN
159	1.000000	0.732734	7.3666e+06	-46589.1	955.818	-29769.1	0.000000	0.000000	6.733037	-0.030942	NaN	0.000000	0.001580	0.001669	28.0842	0.025138	0.001954	12.8618	27.7212	14.1599	0.025276	0.731351	-0.351319	-0.352702	-0.030942	12.8618	-0.349515	-25116.3	1.231952E-6	NaN
159	1.000000	0.742723	7.3666e+06	-46589.1	955.818	-29769.1	0.000000	0.000000	6.743026	-0.015212	NaN	0.000000	0.001552	0.001685	28.1182	0.028414	0.002053	13.8419	24.7778	-167.706	0.006705	0.741452	-0.341330	-0.342601	-0.015212	13.8419	-0.340506	-18575	8.189684E-7	NaN
159	1.000000	0.752747	7.3666e+06	-46589.1	955.818	-29769.1	0.000000	0.000000	6.753048	-0.059572	NaN	0.000000	0.001561	0.001680	28.1239	0.055367	0.002005	27.6116	-159.773	17.1745	-0.034555	0.751378	-0.331306	-0.332676	-0.059572	27.6116	-0.329688	-12908.6	4.614876E-6	NaN
159	1.000000	0.762765	7.3666e+06	-46589.1	955.818	-29769.1	0.000000	0.000000	6.763068	-0.019624	NaN	0.000000	0.001589	0.001676	28.0857	0.041992	0.002027	20.712	-112.17	-166.694	-0.009178	0.761459	-0.321288	-0.322594	-0.019624	20.712	-0.320578	-9487.22	2.068427E-6	NaN
159	1.000000	0.772741	7.3666e+06	-46589.1	955.818	-29769.1	0.000000	0.000000	6.773044	-0.001560	NaN	0.000000	0.001573	0.001650	28.0823	0.096549	0.002016	47.8807	-104.561	13.3704	0.057485	0.771371	-0.311313	-0.312683	-0.001560	47.8807	-0.311288	-6920.11	2.254623E-7	NaN
159	1.000000	0.782741	7.3666e+06	-46589.1	955.818	-29769.1	0.000000	0.000000	6.783042	-0.061838	NaN	0.000000	0.001577	0.001677	28.1178	0.096373	0.002043	47.1812	-58.649	-166.986	-0.088400	0.781468	-0.301312	-0.302585	-0.061838	47.1812	-0.300329	-4759.16	1.299337E-5	NaN
159	1.000000	0.792751	7.3666e+06	-46589.1	955.818	-29769.1	0.000000	0.000000	6.793052	-0.066412	NaN	0.000000	0.001554	0.001684	28.125	0.013654	0.001967	6.942829	-104.546	17.8347	-0.031501	0.791390	-0.291302	-0.292663	-0.066412	6.942829	-0.284128	-2723.68	2.438313E-5	NaN
159	1.000000	0.802732	7.3666e+06	-46589.1	955.818	-29769.1	0.000000	0.000000	6.803032	-0.092146	NaN	0.000000	0.001580	0.001656	28.0854	0.066282	0.002002	33.1096	16.4433	-167.519	-0.106897	0.801471	-0.281321	-0.282582	-0.092146	33.1096	-0.279234	-2298.29	4.009345E-5	NaN
159	1.000000	0.812797	7.3666e+06	-46589.1	955.819	-29769.1	0.000000	0.000000	6.813100	-0.008338	NaN	0.000000	0.001584	0.001663	28.0839	0.047200	0.002020	23.3646	174.187	14.0554	-0.026902	0.811390	-0.271256	-0.272663	-0.008338	23.3646	-0.270989	-1724.12	4.836019E-6	NaN
159	1.000000	0.822777	7.3666e+06	-46589.1	955.819	-29769.1	0.000000	0.000000	6.823083	0.057942	NaN	0.000000	0.001563	0.001633	28.117	0.067323	0.002051	32.8291	41.9898	-162.611	0.047757	0.821452	-0.261276	-0.262601	0.057942	32.8291	-0.262600	-1284.46	-4.511020E-5	NaN
159	1.000000	0.832796	7.3666e+06	-46589.1	955.819	-29769.1	0.000000	0.000000	6.833099	-0.024952	NaN	0.000000	0.001571	0.001664	28.1245	0.081193	0.001952	41.5862	97.9531	16.1956	-0.062860	0.831416	-0.251257	-0.252637	-0.024952	41.5862	-0.250807	-846.143	2.948912E-5	NaN
159	1.000000	0.842778	7.3666e+06	-46589.1	955.818	-29769.1	0.000000	0.000000	6.843078	-0.079723	NaN	0.000000	0.001587	0.001632	28.0836	0.009623	0.001930	4.986846	80.8695	-164.445	-0.089987	0.841487	-0.241275	-0.242567	-0.079723	4.986846	-0.229285	-390.143	0.000204	NaN
159	1.000000	0.852791	7.3666e+06	-46589.1	955.818	-29769.1	0.000000	0.000000	6.853094	-0.021841	NaN	0.000000	0.001598	0.001641	28.0818	0.053957	0.002062	26.1646	-82.9569	16.0109	-0.179497	0.851397	-0.231262	-0.232656	-0.021841	26.1646	-0.230636	-409.781	5.330033E-5	NaN
159	1.000000	0.862785	7.3666e+06	-46589.1	955.817	-29769.1	0.000000	0.000000	6.863089	0.011071	NaN	0.000000	0.001544	0.001638	28.116	0.105467	0.002155	48.9332	-170.34	-164.82	0.022486	0.861463	-0.221268	-0.222590	0.011071	48.9332	-0.221438	-292.843	-3.780677E-5	NaN
159	1.000000	0.872792	7.3666e+06	-46589.1	955.818	-29769.1	0.000000	0.000000	6.873095	-0.019147	NaN	0.000000	0.001582	0.001644	28.1239	0.069081	0.001975	34.9698	43.2564	12.9679	-0.001588	0.871397	-0.211261	-0.212656	-0.019147	34.9698	-0.210851	-197.964	9.672183E-5	NaN
159	1.000000	0.882817	7.3666e+06	-46589.1	955.818	-29769.1	0.000000	0.000000	6.883118	-0.063059	NaN	0.000000	0.001578	0.001614	28.0847	0.106830	0.002106	50.7375	-86.7516	-162.116	-0.041263	0.881513	-0.201236	-0.202541	-0.063059	50.7375	-0.200304	-133.259	0.000473	NaN
159	1.000000	0.892824	7.3666e+06	-46589.1	955.818	-29769.1	0.000000	0.000000	6.893128	0.021762	NaN	0.000000	0.001558	0.001647	28.083	0.110526	0.002047	53.9936	-149.326	17.2637	-0.002026	0.891430	-0.191229	-0.192623	0.021762	53.9936	-0.191532	-95.4077	-0.000228	NaN
159	1.000000	0.902797	7.3666e+06	-46589.1	955.818	-29769.1	0.000000	0.000000	6.903098	-0.047497	NaN	0.000000	0.001549	0.001658	28.1146	0.092456	0.002075	44.5672	-31.7702	-161.72	-0.027490	0.901514	-0.181256	-0.182539	-0.047497	44.5672	-0.180457	-62.1213	0.000765	NaN
159	1.000000	0.912812	7.3666e+06	-46589.1	955.819	-29769.1	0.000000	0.000000	6.913115	-0.018239	NaN	0.000000	0.001580	0.001637	28.1227	0.036026	0.001909	18.8732	-133.421	14.2915	-0.020821	0.911478	-0.171241	-0.172576	-0.018239	18.8732	-0.170516	-41.935	0.000435	NaN
159	1.000000	0.922807	7.3666e+06	-46589.1	955.818	-29769.1	0.000000	0.000000	6.923112	0.034008	NaN	0.000000	0.001567	0.001671	28.0842	0.052405	0.002180	24.0366	-80.2643	-162.922	0.030760	0.921522	-0.161246	-0.162531	0.034008	24.0366	-0.162307	-30.1214	-0.001129	NaN
159	1.000000	0.932790	7.3666e+06	-46589.1	955.818	-29769.1	0.000000	0.000000	6.933093	-0.005313	NaN	0.000000	0.001603	0.001668	28.0816	0.068780	0.002038	33.745	120.752	16.5358	-0.032596	0.931409	-0.151264	-0.152644	-0.005313	33.745	-0.151146	-19.005	0.000280	NaN
159	1.000000	0.942808	7.3666e+06	-46589.1	955.818	-29769.1	0.000000	0.000000	6.943112	0.005537	NaN	0.000000	0.001566	0.001657	28.1159	0.098502	0.001944	50.6618	142.212	-166.239	-0.009813	0.941531	-0.141246	-0.142523	0.005537	50.6618	-0.141327	-12.5271	-0.000442	NaN
159	1.000000	0.952823	7.3666e+06	-46589.1	955.818	-29769.1	0.000000	0.000000	6.953124	-0.062185	NaN	0.000000	0.001579	0.001687	28.1242	0.006623	0.002039	3.248563	-106.245	15.4276	-0.016957	0.951471	-0.131230	-0.132582	-0.062185	3.248563	-0.116874	-4.174181	0.014897	NaN
159	1.000000	0.962809	7.3666e+06	-46589.1	955.819	-29769.1	0.000000	0.000000	6.963111	-0.045123	NaN	0.000000	0.001557	0.001642	28.0844	0.064806	0.001976	32.7972	-72.2239	-163.894	-0.052686	0.961491	-0.121244	-0.122562	-0.045123	32.7972	-0.120212	-4.879405	0.009248	NaN
159	1.000000	0.972825	7.3666e+06	-46589.1	955.819	-29769.1	0.000000	0.000000	6.973130	0.019777	NaN	0.000000	0.001543	0.001666	28.0818	0.133040	0.002071	64.2419	26.7961	11.8186	-0.014352	0.971446	-0.111228	-0.112607	0.019777	64.2419	-0.111459	-3.225011	-0.006133	NaN
159	1.000000	0.982821	7.3666e+06	-46589.1	955.818	-29769.1	0.000000	0.000000	6.983122	-0.047001	NaN	0.000000	0.001585	0.001665	28.1162	0.064101	0.001876	34.1646	-79.5608	-169.024	-0.045628	0.981524	-0.101233	-0.102529	-0.047001	34.1646	-0.100201	-1.845963	0.025462	NaN
159	1.000000	0.992869	7.3666e+06	-46589.1	955.817	-29769.1	0.000000	0.000000	6.993167	-0.116862	NaN	0.000000	0.001577	0.001640	28.1246	0.080357	0.001897	42.3607	-27.5185	13.66	0.006399	0.991467	-0.091185	-0.092587	-0.116862	42.3607	-0.089116	-1.030412	0.113413	NaN
159	1.000000	1.002838	7.3666e+06	-46589.1	955.818	-29769.1	0.000000	0.000000	7.003140	-0.015859	NaN	0.000000	0.001570	0.001629	28.0857	0.045239	0.002068	21.8713	-4.556163	-166.823	-0.037731	1.001562	-0.081216	-0.082491	-0.015859	21.8713	-0.080672	-0.643352	0.024650	NaN
159	1.000000	1.012806	7.3666e+06	-46589.1	955.817	-29769.1	0.000000	0.000000	7.013108	-0.038540	NaN	0.000000	0.001573	0.001652	28.0827	0.079991	0.002070	38.6403	1.477423	12.1626	-0.011987	1.011451	-0.071248	-0.072603	-0.038540	38.6403	-0.070500	-0.351762	0.109562	NaN
159	1.000000	1.022823	7.3666e+06	-46589.1	955.818	-29769.1	0.000000	0.000000	7.023124	-0.069755	NaN	0.000000	0.001586	0.001661	28.1165	0.090556	0.002147	42.1716	-83.4295	-165.047	-0.059126	1.021524	-0.061230	-0.062530	-0.069755	42.1716	-0.059989	-0.179967	0.387598	NaN
159	1.000000	1.032879	7.3666e+06	-46589.1	955.818	-29769.1	0.000000	0.000000	7.033180	-0.050318	NaN	0.000000	0.001541	0.001660	28.1254	0.033340	0.001952	17.0829	48.9513	16.6922	-0.007969	1.031484	-0.051175	-0.052569	-0.050318	17.0829	-0.048965	-0.084897	0.592696	NaN
159	1.000000	1.042861	7.3666e+06	-46589.1	955.817	-29769.1	0.000000	0.000000	7.043164	0.001623	NaN	0.000000	0.001548	0.001658	28.0864	0.048471	0.001919	25.2563	-130.997	-164.117	0.043548	1.041560	-0.041192	-0.042493	0.001623	25.2563	-0.041241	-0.049329	-0.032907	NaN
159	1.000000	1.052848	7.3666e+06	-46589.1	955.817	-29769.1	0.000000	0.000000	7.053152	0.011843	NaN	0.000000	0.001549	0.001627	28.0829	0.089745	0.002015	44.5275	-157.033	13.2909	-0.102050	1.051483	-0.031205	-0.032570	0.011843	44.5275	-0.031405	-0.025204	-0.469874	NaN
159	1.000000	1.062855	7.3666e+06	-46589.1	955.818	-29769.1	0.000000	0.000000	7.063161	0.051411	NaN	0.000000	0.001582	0.001641	28.1151	0.074412	0.001940	38.3518	53.6066	-162.924	0.020598	1.061577	-0.021198	-0.022477	0.051411	38.3518	-0.022203	-0.014291	-3.597534	NaN
159	1.000000	1.072880	7.3666e+06	-46589.1	955.818	-29769.1	0.000000	0.000000	7.073181	-0.046234	NaN	0.000000	0.001530	0.001653	28.1245	0.161695	0.001944	83.1711	141.216	16.0733	-0.058248	1.071440	-0.011174	-0.012613	-0.046234	83.1711	-0.010757	-0.006819	6.779709	NaN
159	1.000000	1.082852	7.3666e+06	-46589.1	955.818	-29769.1	0.000000	0.000000	7.083239	2.035205	NaN	0.000000	0.001550	0.001691	28.0858	1.567158	0.001943	806.539	10.9583	-166.877	1.466672	1.081614	-0.001202	-0.002440	2.035205	806.539	-0.003094	-0.002183	-932.135	NaN
159	1.000000	1.092875	7.3666e+06	-46589.1	955.819	-29769.1	0.000000	0.000000	7.093374	4.769681	NaN	0.000000	0.001552	0.001647	28.0822	2.791814	0.001862	1499.35	10.7623	16.1602	4.461392	1.091510	0.008821	0.007456	4.769681	1499.35	0.006436	0.005482	870.061	18501.4
159	1.000000	1.102904	7.3666e+06	-46589.1	955.818	-29769.1	0.000000	0.000000	7.103494	6.968693	NaN	0.000000	0.001505	0.001607	28.1162	4.958087	0.001819	2725.3	15.6386	-169.937	6.625635	1.101559	0.018851	0.017506	6.968693	2725.3	0.016933	0.017950	388.223	18584.6
159	2.000000	1.108022	7.3666e+06	-46589.1	955.82	-29769.1	0.000000	0.000000	7.108696	9.004616	NaN	0.000000	0.001531	0.001651	28.1257	7.903052	0.001914	4128.53	4.206805	11.3588	8.280486	1.107710	0.023969	0.023656	9.004616	4128.53	0.022333	0.026341	341.844	23240.7
159	2.000000	1.110497	7.3666e+06	-46589.1	955.818	-29769.1	0.000000	0.000000	7.111257	11.1004	NaN	0.000000	0.001550	0.001646	28.0859	10.1846	0.001749	5823.24	4.718965	-171.502	10.418	1.110159	0.026444	0.026106	11.1004	5823.24	0.025014	0.031041	357.599	30197.3
159	2.000000	1.113023	7.3666e+06	-46589.1	955.818	-29769.1	0.000000	0.000000	7.113967	15.5901	NaN	0.000000	0.001538	0.001651	28.0834	11.9626	0.001869	6399.81	6.209329	9.891837	15.242	1.112624	0.028969	0.028571	15.5901	6399.81	0.027142	0.035029	445.065	31241.2
159	2.000000	1.115451	7.3666e+06	-46589.1	955.818	-29769.1	0.000000	0.000000	7.116607	20.7426	NaN	0.000000	0.001547	0.001645	28.1139	15.2074	0.001769	8595.31	2.007841	-171.461	19.9682	1.115159	0.031398	0.031105	20.7426	8595.31	0.029588	0.039894	519.948	39317.3
159	2.000000	1.117945	7.3666e+06	-46589.1	955.819	-29769.1	0.000000	0.000000	7.119228	23.8202	NaN	0.000000	0.001506	0.001630	28.1235	17.6817	0.001728	10235.4	4.671317	5.153700	22.5114	1.117531	0.033892	0.033478	23.8202	10235.4	0.032146	0.045310	525.716	43932.1
159	2.000000	1.120396	7.3666e+06	-46589.1	955.818	-29769.1	0.000000	0.000000	7.121896	29.0894	NaN	0.000000	0.001537	0.001621	28.0839	20.6312	0.001872	11021.5	2.666074	-174.313	27.0918	1.120178	0.036343	0.036125	29.0894	11021.5	0.034364	0.050275	578.607	44909.7
159	2.000000	1.122898	7.3666e+06	-46589.1	955.818	-29769.1	0.000000	0.000000	7.124532	32.3608	NaN	0.000000	0.001545	0.001596	28.0793	22.9634	0.001800	12756.7	5.379051	2.642045	29.833	1.122602	0.038845	0.038549	32.3608	12756.7	0.036942	0.056365	574.13	49091.5
159	2.000000	1.125413	7.3666e+06	-46589.1	955.818	-29769.1	0.000000	0.000000	7.127333	39.3201	NaN	0.000000	0.001529	0.001592	28.1141	24.5341	0.001787	13729.8	2.539723	-175.475	37.997	1.125182	0.041360	0.041128	39.3201	13729.8	0.039212	0.062008	634.112	50374.7
159	2.000000	1.127909	7.3666e+06	-46589.1	955.818	-29769.1	0.000000	0.000000	7.130062	45.0076	NaN	0.000000	0.001543	0.001616	28.1247	26.8868	0.001732	15524.5	6.180199	0.204481	43.2697	1.127594	0.043855	0.043541	45.0076	15524.5	0.041681	0.068445	657.577	54215.1
159	2.000000	1.130414	7.3666e+06	-46589.1	955.817	-29769.1	0.000000	0.000000	7.132686	47.8906	NaN	0.000000	0.001549	0.001630	28.0861	30.1892	0.001812	16661.5	6.791330	178.228	46.9462	1.130261	0.046360	0.046208	47.8906	16661.5	0.044205	0.075345	635.615	55457.4
159	2.000000	1.132975	7.3666e+06	-46589.1	955.818	-29769.1	0.000000	0.000000	7.135716	59.2997	NaN	0.000000	0.001556	0.001639	28.0813	31.2147	0.001772	17614.3	6.531155	-0.193517	59.0403	1.132528	0.048922	0.048475	59.2997	17614.3	0.046397	0.081602	726.697	56336.5
159	2.000000	1.135428	7.3666e+06	-46589.1	955.817	-29769.1	0.000000	0.000000	7.138094	57.4738	NaN	0.000000	0.001558	0.001639	28.1138	33.3524	0.001758	18970.3	3.576462	-179.37	57.167	1.135137	0.051375	0.051083	57.4738	18970.3	0.049103	0.089660	641.022	57882.9
159	2.000000	1.137869	7.3666e+06	-46589.1	955.819	-29769.1	0.000000	0.000000	7.140959	67.7673	NaN	0.000000	0.001547	0.001641	28.124	37.0271	0.001899	19497.4	6.518217	-2.056990	65.3895	1.137546	0.053816	0.053493	67.7673	19497.4	0.051209	0.096187	704.539	57437.2
159	2.000000	1.140394	7.3666e+06	-46589.1	955.819	-29769.1	0.000000	0.000000	7.143763	74.5645	NaN	0.000000	0.001477	0.001650	28.0848	39.1053	0.001901	20570.3	5.613034	178.701	74.1952	1.140098	0.056341	0.056045	74.5645	20570.3	0.053622	0.103938	717.395	58294.4
159	2.000000	1.142861	7.3666e+06	-46589.1	955.819	-29769.1	0.000000	0.000000	7.146647	84.7163	NaN	0.000000	0.001526	0.001633	28.0817	40.3127	0.001758	22935.1	0.064787	2.877269	80.1436	1.142473	0.058808	0.058420	84.7163	22935.1	0.056037	0.111984	756.506	62617.8
159	2.000000	1.145409	7.3666e+06	-46589.1	955.818	-29769.1	0.000000	0.000000	7.149519	92.5772	NaN	0.000000	0.001589	0.001651	28.1153	42.203	0.001765	23904.7	3.123858	-179.796	92.9372	1.145100	0.061356	0.061047	92.5772	23904.7	0.058451	0.120314	769.465	62965
159	2.000000	1.147887	7.3666e+06	-46589.1	955.818	-29769.1	0.000000	0.000000	7.152486	104.473	NaN	0.000000	0.001530	0.001649	28.1262	44.7617	0.001741	25703.1	6.654690	-4.652231	102.38	1.147549	0.063834	0.063495	104.473	25703.1	0.060786	0.128640	812.133	65474.2
159	2.000000	1.150389	7.3666e+06	-46589.1	955.818	-29769.1	0.000000	0.000000	7.155199	109.608	NaN	0.000000	0.001580	0.001656	28.0874	47.892	0.001861	25738.8	2.753983	179.571	108.521	1.150053	0.066336	0.066000	109.608	25738.8	0.063142	0.137317	798.214	63459.9
159	2.000000	1.152917	7.3666e+06	-46589.1	955.819	-29769.1	0.000000	0.000000	7.158085	118.344	NaN	0.000000	0.001569	0.001633	28.0838	49.2631	0.001641	30019.7	6.589121	-5.783118	116.549	1.152578	0.068863	0.068524	118.344	30019.7	0.065907	0.147837	800.503	71332.6
159	2.000000	1.155342	7.3666e+06	-46589.1	955.818	-29769.1	0.000000	0.000000	7.160956	129.165	NaN	0.000000	0.001600	0.001637	28.1141	51.3594	0.001700	30205.9	7.899655	172.797	127.646	1.154982	0.071289	0.070928	129.165	30205.9	0.068082	0.156373	826.01	69788.6
159	2.000000	1.157791	7.3666e+06	-46589.1	955.819	-29769.1	0.000000	0.000000	7.163753	137.662	NaN	0.000000	0.001596	0.001645	28.1253	55.7252	0.001685	33078.6	8.874563	-8.927864	132.535	1.157461	0.073737	0.073408	137.662	33078.6	0.070616	0.166603	826.289	74042.2
159	2.000000	1.160346	7.3666e+06	-46589.1	955.818	-29769.1	0.000000	0.000000	7.166854	150.916	NaN	0.000000	0.001546	0.001670	28.0861	58.3793	0.001805	32350.2	4.535861	176.336	148.723	1.160005	0.076293	0.075952	150.916	32350.2	0.072794	0.175639	859.237	70524.3
159	2.000000	1.162845	7.3666e+06	-46589.1	955.819	-29769.1	0.000000	0.000000	7.169758	160.766	NaN	0.000000	0.001579	0.001646	28.0824	59.805	0.001732	34528.5	3.836126	-4.002730	156.441	1.162526	0.078792	0.078473	160.766	34528.5	0.075300	0.186313	862.88	73085.1
159	2.000000	1.165476	7.3666e+06	-46589.1	955.819	-29769.1	0.000000	0.000000	7.172470	162.748	NaN	0.000000	0.001570	0.001636	28.1149	62.4893	0.001728	36165.5	7.043262	172.507	170.039	1.165144	0.081423	0.081091	162.748	36165.5	0.078048	0.198357	820.483	74189.9
159	2.000000	1.167872	7.3666e+06	-46589.1	955.818	-29769.1	0.000000	0.000000	7.175571	179.891	NaN	0.000000	0.001606	0.001643	28.1269	65.055	0.001801	36118.5	5.824615	-6.005645	177.745	1.167488	0.083819	0.083435	179.891	36118.5	0.080084	0.207508	866.913	72441.3
159	2.000000	1.170336	7.3666e+06	-46589.1	955.819	-29769.1	0.000000	0.000000	7.178618	194.081	NaN	0.000000	0.001564	0.001665	28.0873	68.436	0.001853	36929.9	7.957561	171.299	191.738	1.170016	0.086282	0.085962	194.081	36929.9	0.082341	0.217880	890.767	72284.1
159	2.000000	1.172816	7.3666e+06	-46589.1	955.819	-29769.1	0.000000	0.000000	7.181849	212.342	NaN	0.000000	0.001578	0.001624	28.0843	69.2267	0.001771	39093.8	4.877405	-5.282835	207.024	1.172458	0.088763	0.088404	212.342	39093.8	0.084689	0.228922	927.571	74651.3
159	2.000000	1.175322	7.3666e+06	-46589.1	955.819	-29769.1	0.000000	0.000000	7.184835	224.007	NaN	0.000000	0.001570	0.001621	28.1142	71.7883	0.001707	42044.5	6.852149	171.571	220.33	1.175007	0.091269	0.090954	224.007	42044.5	0.087273	0.241364	928.09	78189.1
159	2.000000	1.177799	7.3666e+06	-46589.1	955.818	-29769.1	0.000000	0.000000	7.187845	236.965	NaN	0.000000	0.001552	0.001637	28.1251	74.4588	0.001756	42396.4	4.601813	-6.161196	231.562	1.177489	0.093746	0.093436	236.965	42396.4	0.089554	0.252605	938.086	77069.3
159	2.000000	1.180334	7.3666e+06	-46589.1	955.818	-29769.1	0.000000	0.000000	7.191068	253.709	NaN	0.000000	0.001548	0.001645	28.0855	78.5402	0.001828	42953.8	9.859880	168.417	252.283	1.180007	0.096281	0.095954	253.709	42953.8	0.091851	0.264163	960.425	76355.2
159	2.000000	1.182832	7.3666e+06	-46589.1	955.818	-29769.1	0.000000	0.000000	7.193891	261.637	NaN	0.000000	0.001481	0.001635	28.081	78.477	0.001713	45815.9	4.781809	-6.773452	257.978	1.182496	0.098778	0.098442	261.637	45815.9	0.094495	0.277771	941.916	79423
159	2.000000	1.185316	7.3666e+06	-46589.1	955.818	-29769.1	0.000000	0.000000	7.197384	286.181	NaN	0.000000	0.001558	0.001661	28.1134	81.2298	0.001855	43786	4.471625	174.015	284.29	1.184906	0.101263	0.100852	286.181	43786	0.096361	0.287561	995.202	74600.8
159	2.000000	1.187910	7.3666e+06	-46589.1	955.818	-29769.1	0.000000	0.000000	7.200456	297.803	NaN	0.000000	0.001578	0.001643	28.1263	83.7043	0.001787	46828.1	3.346690	-4.830405	298.865	1.187534	0.103857	0.103481	297.803	46828.1	0.099087	0.302156	985.594	77833
159	2.000000	1.190334	7.3666e+06	-46589.1	955.818	-29769.1	0.000000	0.000000	7.203548	314.05	NaN	0.000000	0.001553	0.001628	28.0867	87.0796	0.001856	46918.6	3.905498	173.79	312.168	1.190085	0.106281	0.106032	314.05	46918.6	0.101260	0.314033	1000.05	76494.6
159	2.000000	1.192826	7.3666e+06	-46589.1	955.818	-29769.1	0.000000	0.000000	7.206754	331.425	NaN	0.000000	0.001565	0.001644	28.0811	88.5074	0.001773	49928.1	2.712416	-5.468914	326.551	1.192489	0.108773	0.108436	331.425	49928.1	0.103794	0.328150	1009.98	79631
159	2.000000	1.195324	7.3666e+06	-46589.1	955.817	-29769.1	0.000000	0.000000	7.210018	350.04	NaN	0.000000	0.001556	0.001655	28.1129	89.7216	0.001686	53205.3	3.374251	173.183	349.598	1.195031	0.111271	0.110977	350.04	53205.3	0.106337	0.342608	1021.69	83048
159	2.000000	1.197855	7.3666e+06	-46589.1	955.818	-29769.1	0.000000	0.000000	7.213353	369.598	NaN	0.000000	0.001563	0.001657	28.1252	92.8974	0.001615	57533.8	3.728458	-7.567532	368.334	1.197441	0.113802	0.113387	369.598	57533.8	0.108984	0.357975	1032.47	87855.7
159	2.000000	1.200248	7.3666e+06	-46589.1	955.817	-29769.1	0.000000	0.000000	7.216450	386.735	NaN	0.000000	0.001550	0.001634	28.0848	97.0764	0.001875	51767	3.426860	173.841	380.104	1.199899	0.116195	0.115846	386.735	51767	0.110592	0.367463	1052.45	78022.5
159	2.000000	1.202864	7.3666e+06	-46589.1	955.818	-29769.1	0.000000	0.000000	7.219798	404.532	NaN	0.000000	0.001552	0.001620	28.0811	98.6988	0.001732	56997.9	6.256084	-9.387559	402.298	1.202482	0.118811	0.118429	404.532	56997.9	0.113488	0.384849	1051.14	83943.4
159	2.000000	1.204691	7.3666e+06	-46589.1	955.819	-29769.1	0.000000	0.000000	7.222327	421.601	NaN	0.000000	0.001572	0.001638	28.0801	101.076	0.001858	54391.6	4.624051	-7.588574	412.964	1.204429	0.120638	0.120376	421.601	54391.6	0.114825	0.393001	1072.78	79269.9