File: remote_trans/data/nanoindenter/0828-1/data/Data_2025-08-06,11h17m57s/2025-07-22_16-23-58_1_1157.txt
2025-07-22, 16:23:58, 1
Index	Phase	Displacement	Time	Pos X	Pos Y	Pos Z	Rot A	Rot B	Piezo Z	Force A	Force B	Gripper	Voltage A	Voltage B	Temperature	Amplitude force	Amplitude pos	Stiffness	Phase shift	Phase excitation	Force A raw	Displacement raw	HMax	HMax raw	Real Force	Real Stiffness	Contact Depth	Area	Hardness	Reduced Mod.
[#]	[#]	[um]	[s]	[um]	[um]	[um]	[m°]	[m°]	[um]	[uN]	[uN]	[V]	[V]	[V]	[°C]	[uN]	[um]	[N/m]	[°]	[°]	[uN]	[um]	[um]	[um]	[uN]	[N/m]	[um]	[um^2]	[MPa]	[MPa]
1157	1.000000	0.002714	7.37637e+06	-57739.1	1105.82	-29736.4	0.000000	0.000000	6.002792	-0.061596	NaN	0.000000	0.001630	0.001738	28.0844	0.114783	0.001004	114.313	43.1588	-162.977	-0.047166	0.001488	-1.012813	-1.014039	-0.061596	114.313	-1.012409	-3.332744E+13	1.848200E-15	NaN
1157	1.000000	0.010713	7.37637e+06	-57739.1	1105.82	-29736.4	0.000000	0.000000	6.010795	0.028923	NaN	0.000000	0.001620	0.001701	28.0839	0.065627	0.001003	65.4361	128.49	-169.082	0.042079	0.009382	-1.004814	-1.006145	0.028923	65.4361	-1.005146	-2.660988E+13	-1.086922E-15	NaN
1157	1.000000	0.018694	7.37637e+06	-57739.1	1105.82	-29736.4	0.000000	0.000000	6.018775	-0.002833	NaN	0.000000	0.001639	0.001748	28.0841	0.053770	0.001682	31.9709	-165.105	-170.523	-0.033241	0.017381	-0.996833	-0.998146	-0.002833	31.9709	-0.996767	-2.052271E+13	1.380301E-16	NaN
1157	1.000000	0.026712	7.37637e+06	-57739.1	1105.82	-29736.4	0.000000	0.000000	6.026795	0.060592	NaN	0.000000	0.001614	0.001692	28.084	0.029331	0.001796	16.3293	176.472	-164.541	0.017304	0.025381	-0.988816	-0.990146	0.060592	16.3293	-0.991599	-1.748403E+13	-3.465558E-15	NaN
1157	1.000000	0.034660	7.37637e+06	-57739.1	1105.82	-29736.4	0.000000	0.000000	6.034739	-0.043140	NaN	0.000000	0.001627	0.001703	28.084	0.140435	0.001960	71.6553	-105.659	-164.015	-0.032158	0.033363	-0.980867	-0.982164	-0.043140	71.6553	-0.980416	-1.235986E+13	3.490322E-15	NaN
1157	1.000000	0.042668	7.37637e+06	-57739.1	1105.82	-29736.4	0.000000	0.000000	6.042746	-0.049198	NaN	0.000000	0.001602	0.001734	28.0838	0.099572	0.001783	55.8458	-61.7835	-167.767	-0.002499	0.041393	-0.972859	-0.974134	-0.049198	55.8458	-0.972199	-9.578398E+12	5.136326E-15	NaN
1157	1.000000	0.050640	7.37637e+06	-57739.1	1105.82	-29736.4	0.000000	0.000000	6.050720	-0.005376	NaN	0.000000	0.001622	0.001731	28.0841	0.046289	0.001964	23.5732	142.194	-171.314	-0.108906	0.049360	-0.964887	-0.966167	-0.005376	23.5732	-0.964716	-7.593547E+12	7.079978E-16	NaN
1157	1.000000	0.058666	7.37637e+06	-57739.1	1105.82	-29736.4	0.000000	0.000000	6.058745	-0.036056	NaN	0.000000	0.001626	0.001732	28.0841	0.047215	0.002050	23.0326	-178.834	-165.948	0.018302	0.057383	-0.956861	-0.958144	-0.036056	23.0326	-0.955687	-5.737447E+12	6.284280E-15	NaN
1157	1.000000	0.066646	7.37637e+06	-57739.1	1105.82	-29736.4	0.000000	0.000000	6.066725	-0.031537	NaN	0.000000	0.001623	0.001741	28.0842	0.045346	0.002084	21.7608	143.52	-164.073	0.070533	0.065392	-0.948882	-0.950135	-0.031537	21.7608	-0.947795	-4.490403E+12	7.023165E-15	NaN
1157	1.000000	0.074690	7.37637e+06	-57739.1	1105.82	-29736.4	0.000000	0.000000	6.074770	-0.014455	NaN	0.000000	0.001604	0.001692	28.0827	0.069930	0.002182	32.0433	169.532	-165.833	0.003132	0.073341	-0.940837	-0.942186	-0.014455	32.0433	-0.940498	-3.579830E+12	4.037884E-15	NaN
1157	1.000000	0.082702	7.37637e+06	-57739.1	1105.82	-29736.4	0.000000	0.000000	6.082782	-0.011000	NaN	0.000000	0.001589	0.001713	28.083	0.107077	0.002069	51.7625	99.0085	-165.031	0.007827	0.081385	-0.932825	-0.934142	-0.011000	51.7625	-0.932666	-2.806560E+12	3.919391E-15	NaN
1157	1.000000	0.090708	7.37637e+06	-57739.1	1105.82	-29736.4	0.000000	0.000000	6.090789	0.015712	NaN	0.000000	0.001606	0.001691	28.0829	0.105404	0.001887	55.8559	-172.898	-165.389	-0.008012	0.089394	-0.924819	-0.926133	0.015712	55.8559	-0.925030	-2.213663E+12	-7.097627E-15	NaN
1157	1.000000	0.098689	7.37637e+06	-57739.1	1105.82	-29736.4	0.000000	0.000000	6.098769	-0.032744	NaN	0.000000	0.001584	0.001701	28.083	0.040937	0.001971	20.7725	50.2793	-167.006	-0.037641	0.097347	-0.916838	-0.918180	-0.032744	20.7725	-0.915656	-1.654031E+12	1.979653E-14	NaN
1157	1.000000	0.106723	7.37637e+06	-57739.1	1105.82	-29736.4	0.000000	0.000000	6.106806	0.040816	NaN	0.000000	0.001591	0.001680	28.0832	0.045560	0.002039	22.3468	-109.198	-164.952	0.004347	0.105393	-0.908804	-0.910134	0.040816	22.3468	-0.910174	-1.394789E+12	-2.926332E-14	NaN
1157	1.000000	0.114689	7.37637e+06	-57739.1	1105.82	-29736.4	0.000000	0.000000	6.114770	0.011532	NaN	0.000000	0.001584	0.001702	28.083	0.103475	0.002008	51.5366	-87.3984	-168.044	0.017578	0.113424	-0.900838	-0.902104	0.011532	51.5366	-0.901006	-1.048729E+12	-1.099642E-14	NaN
1157	1.000000	0.122703	7.37637e+06	-57739.1	1105.82	-29736.4	0.000000	0.000000	6.122782	-0.026464	NaN	0.000000	0.001583	0.001737	28.0829	0.092748	0.002124	43.6719	145.316	-166.187	-0.055803	0.121369	-0.892825	-0.894158	-0.026464	43.6719	-0.892370	-8.015923E+11	3.301411E-14	NaN
1157	1.000000	0.130690	7.37637e+06	-57739.1	1105.82	-29736.4	0.000000	0.000000	6.130772	0.034264	NaN	0.000000	0.001618	0.001703	28.0825	0.036157	0.002049	17.6422	91.2978	-164.846	-0.057319	0.129398	-0.884837	-0.886130	0.034264	17.6422	-0.886293	-6.634484E+11	-5.164595E-14	NaN
1157	1.000000	0.138692	7.37637e+06	-57739.1	1105.82	-29736.4	0.000000	0.000000	6.138772	0.003901	NaN	0.000000	0.001575	0.001712	28.0826	0.049674	0.002038	24.373	36.3751	-166.054	0.069652	0.137393	-0.876836	-0.878134	0.003901	24.373	-0.876956	-4.960610E+11	-7.863132E-15	NaN
1157	1.000000	0.146709	7.37637e+06	-57739.1	1105.82	-29736.4	0.000000	0.000000	6.146787	-0.059114	NaN	0.000000	0.001576	0.001719	28.0828	0.082846	0.001925	43.04	163.228	-166.126	-0.064865	0.145418	-0.868818	-0.870110	-0.059114	43.04	-0.867788	-3.728308E+11	1.585539E-13	NaN
1157	1.000000	0.154720	7.37637e+06	-57739.1	1105.82	-29736.4	0.000000	0.000000	6.154801	0.006015	NaN	0.000000	0.001608	0.001762	28.0836	0.127524	0.002033	62.72	62.0963	-164.206	0.018514	0.153389	-0.860807	-0.862139	0.006015	62.72	-0.860879	-3.006230E+11	-2.000950E-14	NaN
1157	1.000000	0.162706	7.37637e+06	-57739.1	1105.82	-29736.4	0.000000	0.000000	6.162787	0.012986	NaN	0.000000	0.001624	0.001761	28.083	0.057207	0.001877	30.4767	-59.5528	-168.223	0.014565	0.161401	-0.852821	-0.854126	0.012986	30.4767	-0.853141	-2.361915E+11	-5.498260E-14	NaN
1157	1.000000	0.170767	7.37637e+06	-57739.1	1105.82	-29736.4	0.000000	0.000000	6.170848	0.005698	NaN	0.000000	0.001587	0.001683	28.0827	0.140324	0.002047	68.5366	123.584	-168.888	-0.024683	0.169376	-0.844760	-0.846152	0.005698	68.5366	-0.844822	-1.822293E+11	-3.126585E-14	NaN
1157	1.000000	0.178691	7.37637e+06	-57739.1	1105.82	-29736.4	0.000000	0.000000	6.178772	-0.006375	NaN	0.000000	0.001605	0.001701	28.0826	0.074819	0.002021	37.014	125.159	-167.903	-0.064870	0.177439	-0.836836	-0.838088	-0.006375	37.014	-0.836707	-1.414733E+11	4.506189E-14	NaN
1157	1.000000	0.186737	7.37637e+06	-57739.1	1105.82	-29736.4	0.000000	0.000000	6.186818	0.001677	NaN	0.000000	0.001586	0.001682	28.0827	0.081597	0.002078	39.2629	8.604843	-171.007	-0.060233	0.185446	-0.828790	-0.830082	0.001677	39.2629	-0.828822	-1.106170E+11	-1.516046E-14	NaN
1157	1.000000	0.194697	7.37637e+06	-57739.1	1105.82	-29736.4	0.000000	0.000000	6.194779	0.021735	NaN	0.000000	0.001586	0.001619	28.0827	0.061212	0.002089	29.3076	82.2048	-166.517	0.024738	0.193402	-0.820830	-0.822125	0.021735	29.3076	-0.821386	-8.770139E+10	-2.478313E-13	NaN
1157	1.000000	0.202741	7.37637e+06	-57739.1	1105.82	-29736.4	0.000000	0.000000	6.202821	-0.019894	NaN	0.000000	0.001556	0.001640	28.0827	0.074360	0.001920	38.7288	-64.9743	-167.304	0.050676	0.201397	-0.812786	-0.814131	-0.019894	38.7288	-0.812401	-6.624311E+10	3.003190E-13	NaN
1157	1.000000	0.210745	7.37637e+06	-57739.1	1105.82	-29736.4	0.000000	0.000000	6.210825	-0.003538	NaN	0.000000	0.001625	0.001650	28.0841	0.038519	0.001886	20.4218	111.883	-166.91	0.015303	0.209456	-0.804782	-0.806071	-0.003538	20.4218	-0.804652	-5.200063E+10	6.803739E-14	NaN
1157	1.000000	0.218756	7.37637e+06	-57739.1	1105.82	-29736.4	0.000000	0.000000	6.218837	0.008993	NaN	0.000000	0.001603	0.001655	28.0839	0.047085	0.001935	24.3302	147.933	-167.014	0.038321	0.217427	-0.796771	-0.798100	0.008993	24.3302	-0.797048	-4.100088E+10	-2.193290E-13	NaN
1157	1.000000	0.226747	7.37637e+06	-57739.1	1105.82	-29736.4	0.000000	0.000000	6.226827	-0.009857	NaN	0.000000	0.001585	0.001697	28.0843	0.093820	0.001931	48.578	-36.1622	-166.902	-0.035056	0.225468	-0.788780	-0.790059	-0.009857	48.578	-0.788628	-3.150976E+10	3.128379E-13	NaN
1157	1.000000	0.234729	7.37637e+06	-57739.1	1105.82	-29736.4	0.000000	0.000000	6.234808	-0.034520	NaN	0.000000	0.001567	0.001677	28.084	0.044366	0.001960	22.631	-47.8826	-166.55	0.001905	0.233456	-0.780798	-0.782071	-0.034520	22.631	-0.779654	-2.379779E+10	1.450540E-12	NaN
1157	1.000000	0.242766	7.37637e+06	-57739.1	1105.82	-29736.4	0.000000	0.000000	6.242845	-0.020334	NaN	0.000000	0.001588	0.001692	28.084	0.078090	0.002022	38.6293	138.306	-168.998	0.046922	0.241497	-0.772762	-0.774030	-0.020334	38.6293	-0.772367	-1.894446E+10	1.073339E-12	NaN
1157	1.000000	0.250765	7.37637e+06	-57739.1	1105.82	-29736.4	0.000000	0.000000	6.250847	0.041535	NaN	0.000000	0.001612	0.001688	28.0845	0.141640	0.002016	70.2725	-167.833	-164.535	0.009883	0.249443	-0.764762	-0.766084	0.041535	70.2725	-0.765205	-1.513930E+10	-2.743490E-12	NaN
1157	1.000000	0.258758	7.37637e+06	-57739.1	1105.82	-29736.4	0.000000	0.000000	6.258836	-0.042643	NaN	0.000000	0.001615	0.001675	28.0843	0.085852	0.002142	40.0812	54.0534	-162.767	-0.086027	0.257438	-0.756770	-0.758089	-0.042643	40.0812	-0.755972	-1.133688E+10	3.761401E-12	NaN
1157	1.000000	0.266724	7.37637e+06	-57739.1	1105.82	-29736.4	0.000000	0.000000	6.266806	0.023635	NaN	0.000000	0.001591	0.001648	28.0848	0.047924	0.001950	24.5721	42.0296	-166.325	-0.048614	0.265432	-0.748803	-0.750095	0.023635	24.5721	-0.749524	-9.262842E+9	-2.551641E-12	NaN
1157	1.000000	0.274732	7.37637e+06	-57739.1	1105.82	-29736.4	0.000000	0.000000	6.274814	0.037369	NaN	0.000000	0.001552	0.001684	28.0842	0.051133	0.001849	27.6618	-34.7246	-163.451	-0.023443	0.273477	-0.740795	-0.742050	0.037369	27.6618	-0.741808	-7.272550E+9	-5.138315E-12	NaN
1157	1.000000	0.282768	7.37637e+06	-57739.1	1105.82	-29736.4	0.000000	0.000000	6.282848	-0.018265	NaN	0.000000	0.001611	0.001660	28.0842	0.084033	0.002043	41.1292	69.4777	-166.251	-0.034975	0.281455	-0.732759	-0.734072	-0.018265	41.1292	-0.732426	-5.418382E+9	3.370889E-12	NaN
1157	1.000000	0.290764	7.37637e+06	-57739.1	1105.82	-29736.4	0.000000	0.000000	6.290845	0.011323	NaN	0.000000	0.001587	0.001696	28.0842	0.106720	0.002072	51.51	-150.264	-171.109	0.075392	0.289458	-0.724763	-0.726070	0.011323	51.51	-0.724928	-4.282218E+9	-2.644213E-12	NaN
1157	1.000000	0.298787	7.37637e+06	-57739.1	1105.82	-29736.4	0.000000	0.000000	6.298869	0.034060	NaN	0.000000	0.001568	0.001689	28.0844	0.091247	0.002071	44.0584	30.741	-168.85	0.003298	0.297446	-0.716740	-0.718081	0.034060	44.0584	-0.717320	-3.372217E+9	-1.010014E-11	NaN
1157	1.000000	0.306765	7.37637e+06	-57739.1	1105.82	-29736.4	0.000000	0.000000	6.306843	-0.043950	NaN	0.000000	0.001620	0.001675	28.0847	0.081258	0.002051	39.6178	-131.774	-165.24	-0.022384	0.305503	-0.708763	-0.710024	-0.043950	39.6178	-0.707931	-2.510755E+9	1.750476E-11	NaN
1157	1.000000	0.314767	7.37637e+06	-57739.1	1105.82	-29736.4	0.000000	0.000000	6.314846	-0.028458	NaN	0.000000	0.001630	0.001656	28.0842	0.016375	0.001975	8.292821	-177.372	-168.93	-0.086478	0.313498	-0.700761	-0.702029	-0.028458	8.292821	-0.698187	-1.848287E+9	1.539712E-11	NaN
1157	1.000000	0.322776	7.37637e+06	-57739.1	1105.82	-29736.4	0.000000	0.000000	6.322857	0.012848	NaN	0.000000	0.001636	0.001667	28.0844	0.033434	0.002020	16.5518	-154.773	-165.132	0.010088	0.321480	-0.692752	-0.694047	0.012848	16.5518	-0.693334	-1.586625E+9	-8.097713E-12	NaN
1157	1.000000	0.330792	7.37637e+06	-57739.1	1105.82	-29736.4	0.000000	0.000000	6.330877	0.090662	NaN	0.000000	0.001636	0.001644	28.0842	0.133028	0.001960	67.8651	74.7483	-165.723	0.065431	0.329506	-0.684735	-0.686022	0.090662	67.8651	-0.685737	-1.249244E+9	-7.257381E-11	NaN
1157	1.000000	0.338783	7.37637e+06	-57739.1	1105.82	-29736.4	0.000000	0.000000	6.338863	-0.008862	NaN	0.000000	0.001616	0.001681	28.0843	0.096256	0.001984	48.5172	154.078	-168.281	0.011799	0.337475	-0.676744	-0.678053	-0.008862	48.5172	-0.676607	-9.371330E+8	9.456955E-12	NaN
1157	1.000000	0.346791	7.37637e+06	-57739.1	1105.82	-29736.4	0.000000	0.000000	6.346873	0.018030	NaN	0.000000	0.001626	0.001688	28.083	0.095411	0.002059	46.3402	-4.541343	-166.857	-0.021727	0.345485	-0.668736	-0.670043	0.018030	46.3402	-0.669028	-7.380441E+8	-2.442900E-11	NaN
1157	1.000000	0.354796	7.37637e+06	-57739.1	1105.82	-29736.4	0.000000	0.000000	6.354876	-0.020775	NaN	0.000000	0.001649	0.001729	28.0828	0.075514	0.001933	39.063	-6.668260	-166.881	-0.072894	0.353505	-0.660731	-0.662022	-0.020775	39.063	-0.660332	-5.610723E+8	3.702714E-11	NaN
1157	1.000000	0.362806	7.37637e+06	-57739.1	1105.82	-29736.4	0.000000	0.000000	6.362886	0.005625	NaN	0.000000	0.001667	0.001683	28.0828	0.039786	0.002030	19.6027	-136.275	-166.36	0.027153	0.361499	-0.652722	-0.654028	0.005625	19.6027	-0.652937	-4.443172E+8	-1.265999E-11	NaN
1157	1.000000	0.370808	7.37637e+06	-57739.1	1105.82	-29736.4	0.000000	0.000000	6.370887	-0.042828	NaN	0.000000	0.001684	0.001763	28.0828	0.082028	0.001891	43.3835	56.8201	-166.959	-0.057804	0.369500	-0.644719	-0.646027	-0.042828	43.3835	-0.643979	-3.348670E+8	1.278967E-10	NaN
1157	1.000000	0.378806	7.37637e+06	-57739.1	1105.82	-29736.4	0.000000	0.000000	6.378883	-0.072829	NaN	0.000000	0.001639	0.001735	28.0831	0.065321	0.001910	34.1978	-153.618	-166.559	-0.066213	0.377479	-0.636722	-0.638048	-0.072829	34.1978	-0.635124	-2.531509E+8	2.876882E-10	NaN
1157	1.000000	0.386829	7.37637e+06	-57739.1	1105.82	-29736.4	0.000000	0.000000	6.386908	-0.031435	NaN	0.000000	0.001626	0.001697	28.0828	0.126010	0.002039	61.7916	-135.503	-167.187	-0.022146	0.385527	-0.628698	-0.630001	-0.031435	61.7916	-0.628317	-2.041299E+8	1.539959E-10	NaN
1157	1.000000	0.394843	7.37637e+06	-57739.1	1105.82	-29736.4	0.000000	0.000000	6.394921	-0.050408	NaN	0.000000	0.001612	0.001702	28.0829	0.091759	0.001948	47.1028	110.421	-168.017	-0.051966	0.393533	-0.620685	-0.621994	-0.050408	47.1028	-0.619882	-1.563191E+8	3.224654E-10	NaN
1157	1.000000	0.402837	7.37637e+06	-57739.1	1105.82	-29736.4	0.000000	0.000000	6.402920	0.048279	NaN	0.000000	0.001642	0.001705	28.0828	0.061603	0.001982	31.0831	-143.406	-167.377	0.018659	0.401490	-0.612690	-0.614037	0.048279	31.0831	-0.613855	-1.291641E+8	-3.737810E-10	NaN
1157	1.000000	0.410781	7.37637e+06	-57739.1	1105.82	-29736.4	0.000000	0.000000	6.410862	0.015592	NaN	0.000000	0.001625	0.001685	28.083	0.068832	0.002041	33.7311	-118.34	-165.333	0.063126	0.409499	-0.604746	-0.606028	0.015592	33.7311	-0.605093	-9.785513E+7	-1.593384E-10	NaN
1157	1.000000	0.418817	7.37637e+06	-57739.1	1105.82	-29736.4	0.000000	0.000000	6.418900	0.065241	NaN	0.000000	0.001638	0.001710	28.0831	0.092683	0.001928	48.0841	138.202	-166.246	0.001955	0.417529	-0.596711	-0.597998	0.065241	48.0841	-0.597728	-7.747632E+7	-8.420762E-10	NaN
1157	1.000000	0.426824	7.37637e+06	-57739.1	1105.82	-29736.4	0.000000	0.000000	6.426903	-0.034305	NaN	0.000000	0.001653	0.001718	28.0827	0.103486	0.001941	53.3199	25.1787	-165.813	-0.061041	0.425546	-0.588703	-0.589981	-0.034305	53.3199	-0.588221	-5.729758E+7	5.987172E-10	NaN
1157	1.000000	0.434829	7.37637e+06	-57739.1	1105.82	-29736.4	0.000000	0.000000	6.434913	0.066723	NaN	0.000000	0.001622	0.001740	28.0829	0.014802	0.002098	7.055685	77.0733	-166.868	0.079755	0.433564	-0.580698	-0.581963	0.066723	7.055685	-0.587790	-5.651964E+7	-1.180521E-9	NaN
1157	1.000000	0.442809	7.37637e+06	-57739.1	1105.82	-29736.4	0.000000	0.000000	6.442890	0.017366	NaN	0.000000	0.001650	0.001729	28.0827	0.179561	0.001889	95.0344	170.699	-166.11	0.102631	0.441508	-0.572718	-0.574019	0.017366	95.0344	-0.572855	-3.516229E+7	-4.938883E-10	NaN
1157	1.000000	0.450876	7.37637e+06	-57739.1	1105.82	-29736.4	0.000000	0.000000	6.450956	-0.028400	NaN	0.000000	0.001731	0.001726	28.0829	0.065746	0.002069	31.7819	105.02	-164.789	-0.116712	0.449535	-0.564651	-0.565992	-0.028400	31.7819	-0.563981	-2.651151E+7	1.071220E-9	NaN
1157	1.000000	0.458827	7.37637e+06	-57739.1	1105.82	-29736.4	0.000000	0.000000	6.458906	-0.054082	NaN	0.000000	0.001717	0.001689	28.0829	0.038951	0.002091	18.6315	-68.7526	-167.828	0.018991	0.457516	-0.556700	-0.558011	-0.054082	18.6315	-0.554523	-1.961479E+7	2.757218E-9	NaN
1157	1.000000	0.466838	7.37637e+06	-57739.1	1105.82	-29736.4	0.000000	0.000000	6.466915	-0.082345	NaN	0.000000	0.001638	0.001681	28.0829	0.099234	0.002016	49.2162	26.848	-167.477	-0.045272	0.465570	-0.548690	-0.549958	-0.082345	49.2162	-0.547435	-1.564653E+7	5.262796E-9	NaN
1157	1.000000	0.474830	7.37637e+06	-57739.1	1105.82	-29736.4	0.000000	0.000000	6.474910	-0.000263	NaN	0.000000	0.001623	0.001669	28.083	0.132674	0.002046	64.8517	87.8106	-164.236	-0.002878	0.473523	-0.540697	-0.542005	-0.000263	64.8517	-0.540694	-1.261788E+7	2.081008E-11	NaN
1157	1.000000	0.482853	7.37637e+06	-57739.1	1105.82	-29736.4	0.000000	0.000000	6.482934	0.011681	NaN	0.000000	0.001605	0.001671	28.0837	0.057664	0.001924	29.9767	-149.434	-167.882	-0.083637	0.481563	-0.532674	-0.533964	0.011681	29.9767	-0.532966	-9.85736e+06	-1.185029E-9	NaN
1157	1.000000	0.490866	7.37637e+06	-57739.1	1105.82	-29736.4	0.000000	0.000000	6.490949	0.055934	NaN	0.000000	0.001616	0.001688	28.084	0.093517	0.001985	47.1135	134.676	-166.164	0.048101	0.489540	-0.524661	-0.525987	0.055934	47.1135	-0.525552	-7.77642e+06	-7.192723E-9	NaN
1157	1.000000	0.498885	7.37637e+06	-57739.1	1105.82	-29736.4	0.000000	0.000000	6.498964	-0.021462	NaN	0.000000	0.001654	0.001658	28.0842	0.093073	0.001943	47.913	-98.8192	-165.467	-0.082292	0.497550	-0.516642	-0.517977	-0.021462	47.913	-0.516307	-5.78383e+06	3.710756E-9	NaN
1157	1.000000	0.506848	7.37637e+06	-57739.1	1105.82	-29736.4	0.000000	0.000000	6.506925	-0.086481	NaN	0.000000	0.001628	0.001665	28.0839	0.113981	0.001966	57.9859	-138.194	-166.645	-0.043385	0.505578	-0.508679	-0.509949	-0.086481	57.9859	-0.507561	-4.36949e+06	1.979211E-8	NaN
1157	1.000000	0.514833	7.37637e+06	-57739.1	1105.82	-29736.4	0.000000	0.000000	6.514912	-0.029028	NaN	0.000000	0.001623	0.001698	28.0842	0.082575	0.002103	39.2731	7.847750	-166.178	0.039349	0.513529	-0.500695	-0.501998	-0.029028	39.2731	-0.500140	-3.44331e+06	8.430234E-9	NaN
1157	1.000000	0.522854	7.37637e+06	-57739.1	1105.82	-29736.4	0.000000	0.000000	6.522935	0.007868	NaN	0.000000	0.001628	0.001674	28.0835	0.053475	0.002228	23.9996	127.904	-166.267	-0.022529	0.521541	-0.492673	-0.493986	0.007868	23.9996	-0.492919	-2.73007e+06	-2.882093E-9	NaN
1157	1.000000	0.530845	7.37637e+06	-57739.1	1105.82	-29736.4	0.000000	0.000000	6.530927	0.038210	NaN	0.000000	0.001642	0.001664	28.0839	0.114280	0.002093	54.6077	33.2847	-166.926	0.074642	0.529559	-0.484682	-0.485968	0.038210	54.6077	-0.485207	-2.13004e+06	-1.793884E-8	NaN
1157	1.000000	0.538845	7.37637e+06	-57739.1	1105.82	-29736.4	0.000000	0.000000	6.538924	-0.024283	NaN	0.000000	0.001650	0.001663	28.0838	0.051395	0.002014	25.5149	-108	-166.773	0.036150	0.537578	-0.476682	-0.477949	-0.024283	25.5149	-0.475969	-1.5815e+06	1.535441E-8	NaN
1157	1.000000	0.546862	7.37637e+06	-57739.1	1105.82	-29736.4	0.000000	0.000000	6.546943	0.034394	NaN	0.000000	0.001631	0.001704	28.0837	0.166011	0.001939	85.6178	170.096	-167.904	0.045165	0.545585	-0.468666	-0.469942	0.034394	85.6178	-0.468967	-1.26159e+06	-2.726256E-8	NaN
1157	1.000000	0.554886	7.37637e+06	-57739.1	1105.82	-29736.4	0.000000	0.000000	6.554968	0.015304	NaN	0.000000	0.001641	0.001707	28.0843	0.116628	0.001970	59.2139	-51.2699	-165.577	0.003641	0.553553	-0.460641	-0.461974	0.015304	59.2139	-0.460835	-969943	-1.577842E-8	NaN
1157	1.000000	0.562869	7.37637e+06	-57739.1	1105.82	-29736.4	0.000000	0.000000	6.562949	-0.015516	NaN	0.000000	0.001687	0.001678	28.0839	0.090214	0.001974	45.7025	11.3347	-166.595	-0.057039	0.561586	-0.452658	-0.453941	-0.015516	45.7025	-0.452403	-738204	2.101913E-8	NaN
1157	1.000000	0.570889	7.37637e+06	-57739.1	1105.82	-29736.4	0.000000	0.000000	6.570969	-0.016993	NaN	0.000000	0.001668	0.001693	28.084	0.036903	0.001863	19.8058	-147.763	-167.068	0.050044	0.569596	-0.444638	-0.445931	-0.016993	19.8058	-0.443994	-561969	3.023801E-8	NaN
1157	1.000000	0.578900	7.37637e+06	-57739.1	1105.82	-29736.4	0.000000	0.000000	6.578982	0.049190	NaN	0.000000	0.001665	0.001691	28.0839	0.041923	0.002087	20.0912	64.1546	-163.898	0.007618	0.577509	-0.436628	-0.438019	0.049190	20.0912	-0.438464	-469549	-1.047603E-7	NaN
1157	1.000000	0.586867	7.37637e+06	-57739.1	1105.82	-29736.4	0.000000	0.000000	6.586947	-0.021236	NaN	0.000000	0.001666	0.001727	28.084	0.053214	0.001980	26.8754	93.9844	-168.946	0.049480	0.585596	-0.428660	-0.429931	-0.021236	26.8754	-0.428068	-334749	6.343931E-8	NaN
1157	1.000000	0.594873	7.37637e+06	-57739.1	1105.82	-29736.4	0.000000	0.000000	6.594953	-0.009570	NaN	0.000000	0.001674	0.001705	28.084	0.112225	0.001957	57.3319	154.989	-166.858	0.017064	0.593635	-0.420654	-0.421892	-0.009570	57.3319	-0.420529	-261766	3.656017E-8	NaN
1157	1.000000	0.602912	7.37637e+06	-57739.1	1105.82	-29736.4	0.000000	0.000000	6.602995	0.047321	NaN	0.000000	0.001647	0.001702	28.0839	0.086826	0.002014	43.1103	115.541	-164.882	0.074924	0.601629	-0.412615	-0.413899	0.047321	43.1103	-0.413438	-207620	-2.279194E-7	NaN
1157	1.000000	0.610908	7.37637e+06	-57739.1	1105.82	-29736.4	0.000000	0.000000	6.610988	-0.010572	NaN	0.000000	0.001623	0.001673	28.0841	0.075536	0.002011	37.5565	-164.05	-167.28	0.021662	0.609630	-0.404620	-0.405897	-0.010572	37.5565	-0.404408	-154462	6.844708E-8	NaN
1157	1.000000	0.618915	7.37637e+06	-57739.1	1105.82	-29736.4	0.000000	0.000000	6.618995	-0.027146	NaN	0.000000	0.001649	0.001704	28.0827	0.017906	0.002078	8.618497	-84.3472	-166.303	-0.109269	0.617556	-0.396612	-0.397971	-0.027146	8.618497	-0.394250	-110641	2.453553E-7	NaN
1157	1.000000	0.626891	7.37637e+06	-57739.1	1105.82	-29736.4	0.000000	0.000000	6.626972	-0.003553	NaN	0.000000	0.001627	0.001700	28.0828	0.020933	0.001963	10.6645	69.032	-165.588	-0.009066	0.625572	-0.388636	-0.389956	-0.003553	10.6645	-0.388386	-91216.2	3.894786E-8	NaN
1157	1.000000	0.634914	7.37637e+06	-57739.1	1105.82	-29736.4	0.000000	0.000000	6.634995	0.016263	NaN	0.000000	0.001614	0.001643	28.0828	0.005786	0.002032	2.848219	145.758	-165.137	-0.037632	0.633604	-0.380613	-0.381923	0.016263	2.848219	-0.384895	-81299.6	-2.000370E-7	NaN
1157	1.000000	0.642928	7.37637e+06	-57739.1	1105.82	-29736.4	0.000000	0.000000	6.643011	0.059384	NaN	0.000000	0.001634	0.001660	28.0829	0.070358	0.001960	35.8954	-28.4709	-166.455	0.082857	0.641623	-0.372599	-0.373904	0.059384	35.8954	-0.373840	-56414.2	-1.052638E-6	NaN
1157	1.000000	0.650891	7.37637e+06	-57739.1	1105.82	-29736.4	0.000000	0.000000	6.650972	0.009182	NaN	0.000000	0.001642	0.001643	28.083	0.080790	0.001935	41.7597	46.8636	-160.478	0.017508	0.649597	-0.364637	-0.365930	0.009182	41.7597	-0.364801	-41801.3	-2.196540E-7	NaN
1157	1.000000	0.658925	7.37637e+06	-57739.1	1105.82	-29736.4	0.000000	0.000000	6.659004	-0.048796	NaN	0.000000	0.001663	0.001643	28.0828	0.085258	0.001932	44.1389	14.3526	-163.821	-0.029251	0.657588	-0.356602	-0.357939	-0.048796	44.1389	-0.355773	-30952.3	1.576475E-6	NaN
1157	1.000000	0.666935	7.37637e+06	-57739.1	1105.82	-29736.4	0.000000	0.000000	6.667017	0.035644	NaN	0.000000	0.001634	0.001606	28.0831	0.040950	0.002037	20.1053	-73.7319	-166.792	0.022483	0.665608	-0.348593	-0.349920	0.035644	20.1053	-0.349922	-25460.9	-1.399936E-6	NaN
1157	1.000000	0.674939	7.37637e+06	-57739.1	1105.82	-29736.4	0.000000	0.000000	6.675019	-0.027538	NaN	0.000000	0.001598	0.001636	28.0827	0.030365	0.002039	14.8951	31.9679	-163.796	0.070551	0.673619	-0.340588	-0.341909	-0.027538	14.8951	-0.339201	-17779.2	1.548884E-6	NaN
1157	1.000000	0.682943	7.37637e+06	-57739.1	1105.82	-29736.4	0.000000	0.000000	6.683022	-0.029337	NaN	0.000000	0.001605	0.001643	28.0825	0.102040	0.001896	53.8057	-126.231	-168.45	-0.071593	0.681653	-0.332585	-0.333874	-0.029337	53.8057	-0.332176	-14037.8	2.089832E-6	NaN
1157	1.000000	0.690925	7.37637e+06	-57739.1	1105.82	-29736.4	0.000000	0.000000	6.691004	-0.052352	NaN	0.000000	0.001615	0.001657	28.0826	0.039491	0.002009	19.6541	-121.706	-165.347	-0.043463	0.689667	-0.324602	-0.325860	-0.052352	19.6541	-0.322604	-10161.2	5.152114E-6	NaN
1157	1.000000	0.698954	7.37637e+06	-57739.1	1105.82	-29736.4	0.000000	0.000000	6.699032	-0.064690	NaN	0.000000	0.001600	0.001633	28.0829	0.018932	0.002006	9.436883	78.0606	-169.481	-0.020331	0.697578	-0.316573	-0.317949	-0.064690	9.436883	-0.311432	-6954	9.302552E-6	NaN
1157	1.000000	0.706972	7.37637e+06	-57739.1	1105.82	-29736.4	0.000000	0.000000	6.707053	0.002726	NaN	0.000000	0.001592	0.001669	28.0829	0.130693	0.001914	68.2999	-4.251936	-163.078	-0.018158	0.705608	-0.308555	-0.309919	0.002726	68.2999	-0.308585	-6311.08	-4.319886E-7	NaN
1157	1.000000	0.714938	7.37637e+06	-57739.1	1105.82	-29736.4	0.000000	0.000000	6.715019	0.007537	NaN	0.000000	0.001585	0.001624	28.0827	0.114735	0.002052	55.9038	84.4708	-169.498	0.061133	0.713606	-0.300589	-0.301921	0.007537	55.9038	-0.300690	-4818.43	-1.564172E-6	NaN
1157	1.000000	0.722912	7.37637e+06	-57739.1	1105.82	-29736.4	0.000000	0.000000	6.722993	0.029486	NaN	0.000000	0.001627	0.001688	28.0828	0.049304	0.002050	24.0539	38.8349	-169.936	-0.056627	0.721646	-0.292616	-0.293881	0.029486	24.0539	-0.293535	-3768.79	-7.823778E-6	NaN
1157	1.000000	0.730957	7.37637e+06	-57739.1	1105.82	-29736.4	0.000000	0.000000	6.731036	-0.036117	NaN	0.000000	0.001636	0.001700	28.0827	0.100171	0.002027	49.4206	-78.471	-167.304	-0.001537	0.729619	-0.284570	-0.285908	-0.036117	49.4206	-0.284022	-2713.66	1.330942E-5	NaN
1157	1.000000	0.738953	7.37637e+06	-57739.1	1105.82	-29736.4	0.000000	0.000000	6.739032	-0.026865	NaN	0.000000	0.001631	0.001698	28.0829	0.049501	0.002022	24.4812	176.527	-165.74	-0.045602	0.737653	-0.276574	-0.277874	-0.026865	24.4812	-0.275751	-2035.97	1.319507E-5	NaN
1157	1.000000	0.746947	7.37637e+06	-57739.1	1105.82	-29736.4	0.000000	0.000000	6.747027	0.006630	NaN	0.000000	0.001581	0.001689	28.0829	0.122055	0.001904	64.0945	71.2397	-167.065	0.026433	0.745608	-0.268581	-0.269919	0.006630	64.0945	-0.268658	-1589.06	-4.172269E-6	NaN
1157	1.000000	0.754988	7.37637e+06	-57739.1	1105.82	-29736.4	0.000000	0.000000	6.755068	-0.019085	NaN	0.000000	0.001557	0.001673	28.0835	0.059058	0.002113	27.9499	-103.214	-165.449	-0.016037	0.753710	-0.260539	-0.261817	-0.019085	27.9499	-0.260027	-1173.09	1.626890E-5	NaN
1157	1.000000	0.762965	7.37637e+06	-57739.1	1105.82	-29736.4	0.000000	0.000000	6.763044	-0.024690	NaN	0.000000	0.001623	0.001675	28.0846	0.103688	0.001953	53.0947	-70.1895	-163.489	-0.031592	0.761629	-0.252562	-0.253898	-0.024690	53.0947	-0.252214	-889.544	2.775600E-5	NaN
1157	1.000000	0.770998	7.37637e+06	-57739.1	1105.82	-29736.4	0.000000	0.000000	6.771077	-0.055299	NaN	0.000000	0.001548	0.001652	28.0841	0.033733	0.001894	17.8109	138.388	-165.039	0.018759	0.769682	-0.244529	-0.245846	-0.055299	17.8109	-0.242200	-622.132	8.888644E-5	NaN
1157	1.000000	0.778978	7.37637e+06	-57739.1	1105.82	-29736.4	0.000000	0.000000	6.779059	-0.004391	NaN	0.000000	0.001575	0.001684	28.0841	0.090751	0.002006	45.2402	2.866130	-164.889	-0.042054	0.777663	-0.236549	-0.237864	-0.004391	45.2402	-0.236476	-506.303	8.672206E-6	NaN
1157	1.000000	0.786978	7.37637e+06	-57739.1	1105.82	-29736.4	0.000000	0.000000	6.787056	-0.070023	NaN	0.000000	0.001592	0.001653	28.0841	0.010777	0.002041	5.280501	149.256	-165.16	-0.032523	0.785643	-0.228549	-0.229884	-0.070023	5.280501	-0.218604	-263.84	0.000265	NaN
1157	1.000000	0.794975	7.37637e+06	-57739.1	1105.82	-29736.4	0.000000	0.000000	6.795058	0.054800	NaN	0.000000	0.001624	0.001689	28.0839	0.004386	0.001957	2.240738	-73.7423	-162.311	-0.018697	0.793632	-0.220552	-0.221895	0.054800	2.240738	-0.238894	-552.421	-9.919950E-5	NaN
1157	1.000000	0.803029	7.37637e+06	-57739.1	1105.82	-29736.4	0.000000	0.000000	6.803106	-0.070455	NaN	0.000000	0.001604	0.001697	28.0843	0.047392	0.002005	23.6376	-134.047	-164.537	-0.006184	0.801676	-0.212499	-0.213851	-0.070455	23.6376	-0.210263	-193.678	0.000364	NaN
1157	1.000000	0.810975	7.37637e+06	-57739.1	1105.82	-29736.4	0.000000	0.000000	6.811054	-0.050035	NaN	0.000000	0.001641	0.001690	28.084	0.068274	0.001849	36.9345	-163.231	-168.332	-0.064496	0.809661	-0.204552	-0.205866	-0.050035	36.9345	-0.203536	-150.541	0.000332	NaN
1157	1.000000	0.818983	7.37637e+06	-57739.1	1105.82	-29736.4	0.000000	0.000000	6.819064	0.012741	NaN	0.000000	0.001609	0.001705	28.0843	0.096498	0.001961	49.2146	-174.01	-163.304	0.075014	0.817736	-0.196544	-0.197791	0.012741	49.2146	-0.196738	-116.402	-0.000109	NaN
1157	1.000000	0.827004	7.37637e+06	-57739.1	1105.82	-29736.4	0.000000	0.000000	6.827084	-0.017481	NaN	0.000000	0.001624	0.001728	28.0841	0.035389	0.002027	17.4628	-118.997	-168.939	0.004145	0.825691	-0.188523	-0.189836	-0.017481	17.4628	-0.187773	-82.5555	0.000212	NaN
1157	1.000000	0.835008	7.37637e+06	-57739.1	1105.82	-29736.4	0.000000	0.000000	6.835086	-0.063478	NaN	0.000000	0.001657	0.001710	28.0842	0.048826	0.002046	23.8654	-173.525	-166.91	-0.028766	0.833675	-0.180519	-0.181852	-0.063478	23.8654	-0.178524	-57.5861	0.001102	NaN
1157	1.000000	0.842982	7.37637e+06	-57739.1	1105.82	-29736.4	0.000000	0.000000	6.843062	-0.021232	NaN	0.000000	0.001617	0.001703	28.084	0.125824	0.002050	61.3925	124.952	-166.586	-0.001813	0.841678	-0.172545	-0.173849	-0.021232	61.3925	-0.172286	-44.9996	0.000472	NaN
1157	1.000000	0.851024	7.37637e+06	-57739.1	1105.82	-29736.4	0.000000	0.000000	6.851105	0.007265	NaN	0.000000	0.001613	0.001701	28.0842	0.175678	0.001855	94.6955	56.8197	-167.883	-0.085901	0.849698	-0.164503	-0.165829	0.007265	94.6955	-0.164561	-33.0059	-0.000220	NaN
1157	1.000000	0.859036	7.37637e+06	-57739.1	1105.82	-29736.4	0.000000	0.000000	6.859116	-0.020534	NaN	0.000000	0.001584	0.001689	28.0846	0.027719	0.001973	14.0465	-150.683	-166.797	0.015176	0.857731	-0.156491	-0.157796	-0.020534	14.0465	-0.155395	-22.6821	0.000905	NaN
1157	1.000000	0.867038	7.37637e+06	-57739.1	1105.82	-29736.4	0.000000	0.000000	6.867119	-0.002144	NaN	0.000000	0.001611	0.001739	28.0844	0.108419	0.002007	54.0312	-121.405	-166.377	0.022336	0.865709	-0.148489	-0.149818	-0.002144	54.0312	-0.148459	-16.9765	0.000126	NaN
1157	1.000000	0.875004	7.37637e+06	-57739.1	1105.82	-29736.4	0.000000	0.000000	6.875084	-0.023815	NaN	0.000000	0.001595	0.001716	28.0842	0.109776	0.001983	55.3462	-161.393	-166.877	0.071867	0.873699	-0.140523	-0.141829	-0.023815	55.3462	-0.140200	-11.9324	0.001996	NaN
1157	1.000000	0.883025	7.37637e+06	-57739.1	1105.82	-29736.4	0.000000	0.000000	6.883103	-0.055556	NaN	0.000000	0.001594	0.001660	28.0841	0.141132	0.002069	68.2114	-144.662	-166.016	-0.055214	0.881650	-0.132503	-0.133877	-0.055556	68.2114	-0.131892	-8.291527	0.006700	NaN
1157	1.000000	0.891007	7.37637e+06	-57739.1	1105.82	-29736.4	0.000000	0.000000	6.891086	-0.012955	NaN	0.000000	0.001608	0.001699	28.0834	0.058241	0.001952	29.8436	112.243	-166.128	-0.010767	0.889718	-0.124521	-0.125810	-0.012955	29.8436	-0.124195	-5.861973	0.002210	NaN
1157	1.000000	0.899055	7.37637e+06	-57739.1	1105.82	-29736.4	0.000000	0.000000	6.899136	0.005980	NaN	0.000000	0.001654	0.001671	28.0828	0.071805	0.001943	36.964	104.352	-164.385	-0.055720	0.897678	-0.116472	-0.117849	0.005980	36.964	-0.116593	-4.119403	-0.001452	NaN
1157	1.000000	0.907034	7.37637e+06	-57739.1	1105.82	-29736.4	0.000000	0.000000	6.907115	0.010273	NaN	0.000000	0.001624	0.001666	28.0829	0.091042	0.001908	47.7252	135.66	-161.005	0.064418	0.905736	-0.108493	-0.109792	0.010273	47.7252	-0.108654	-2.814560	-0.003650	NaN
1157	1.000000	0.915034	7.37637e+06	-57739.1	1105.82	-29736.4	0.000000	0.000000	6.915111	-0.080875	NaN	0.000000	0.001635	0.001687	28.0829	0.055016	0.002059	26.7172	-40.7814	-165.38	-0.097552	0.913693	-0.100493	-0.101835	-0.080875	26.7172	-0.098223	-1.667969	0.048487	NaN
1157	1.000000	0.923008	7.37637e+06	-57739.1	1105.82	-29736.4	0.000000	0.000000	6.923088	0.005137	NaN	0.000000	0.001639	0.001680	28.0827	0.055764	0.002062	27.0399	-156.491	-165.423	-0.014759	0.921743	-0.092520	-0.093784	0.005137	27.0399	-0.092662	-1.246770	-0.004120	NaN
1157	1.000000	0.931022	7.37637e+06	-57739.1	1105.82	-29736.4	0.000000	0.000000	6.931100	-0.057034	NaN	0.000000	0.001638	0.001705	28.083	0.082639	0.002012	41.0654	-20.3843	-163.828	-0.025257	0.929745	-0.084506	-0.085782	-0.057034	41.0654	-0.083464	-0.753916	0.075650	NaN
1157	1.000000	0.939035	7.37637e+06	-57739.1	1105.82	-29736.4	0.000000	0.000000	6.939117	0.032352	NaN	0.000000	0.001648	0.001718	28.0829	0.172269	0.001958	87.9651	102.127	-163.234	0.006311	0.937767	-0.076492	-0.077760	0.032352	87.9651	-0.076768	-0.512833	-0.063085	NaN
1157	1.000000	0.947059	7.37637e+06	-57739.1	1105.82	-29736.4	0.000000	0.000000	6.947137	-0.070585	NaN	0.000000	0.001638	0.001698	28.083	0.121731	0.001954	62.284	153.386	-165.957	-0.065770	0.945706	-0.068468	-0.069821	-0.070585	62.284	-0.067618	-0.294133	0.239975	NaN
1157	1.000000	0.955054	7.37637e+06	-57739.1	1105.82	-29736.4	0.000000	0.000000	6.955136	0.026303	NaN	0.000000	0.001609	0.001680	28.0833	0.035227	0.002015	17.4837	149.083	-165.719	0.025960	0.953744	-0.060473	-0.061784	0.026303	17.4837	-0.061601	-0.200072	-0.131465	NaN
1157	1.000000	0.963031	7.37637e+06	-57739.1	1105.82	-29736.4	0.000000	0.000000	6.963109	-0.066430	NaN	0.000000	0.001635	0.001694	28.0833	0.025821	0.002035	12.6896	-69.2553	-165.742	-0.066568	0.961760	-0.052496	-0.053767	-0.066430	12.6896	-0.048570	-0.082582	0.804412	NaN
1157	1.000000	0.971058	7.37637e+06	-57739.1	1105.82	-29736.4	0.000000	0.000000	6.971138	-0.000469	NaN	0.000000	0.001623	0.001696	28.0834	0.076931	0.001911	40.258	-137.471	-167.319	-0.014512	0.969742	-0.044469	-0.045785	-0.000469	40.258	-0.044461	-0.061872	0.007574	NaN
1157	1.000000	0.979059	7.37637e+06	-57739.1	1105.82	-29736.4	0.000000	0.000000	6.979141	0.017641	NaN	0.000000	0.001640	0.001698	28.0831	0.083194	0.001998	41.6346	148.577	-164.265	-0.013913	0.977772	-0.036468	-0.037755	0.017641	41.6346	-0.036786	-0.036179	-0.487602	NaN
1157	1.000000	0.987024	7.37637e+06	-57739.1	1105.82	-29736.4	0.000000	0.000000	6.987104	-0.001934	NaN	0.000000	0.001629	0.001741	28.0831	0.084803	0.002072	40.9198	-86.9313	-164.606	-0.003395	0.985792	-0.028503	-0.029736	-0.001934	40.9198	-0.028468	-0.020879	0.092620	NaN
1157	1.000000	0.995054	7.37637e+06	-57739.1	1105.82	-29736.4	0.000000	0.000000	6.995136	0.040322	NaN	0.000000	0.001633	0.001686	28.083	0.046651	0.002052	22.7354	128.51	-167.319	0.039391	0.993725	-0.020474	-0.021803	0.040322	22.7354	-0.021804	-0.013960	-2.888483	NaN
1157	1.000000	1.003093	7.37637e+06	-57739.1	1105.82	-29736.4	0.000000	0.000000	7.003176	0.067621	NaN	0.000000	0.001672	0.001719	28.0828	0.025450	0.001906	13.3542	118.497	-167.299	0.092823	1.001716	-0.012434	-0.013812	0.067621	13.3542	-0.016232	-0.010027	-6.744073	NaN
1157	1.000000	1.011069	7.37637e+06	-57739.1	1105.82	-29736.4	0.000000	0.000000	7.011150	0.011001	NaN	0.000000	0.001627	0.001696	28.0827	0.095202	0.001943	48.9932	-129.444	-169.297	0.013561	1.009754	-0.004458	-0.005774	0.011001	48.9932	-0.004627	-0.003181	-3.458510	NaN
1157	1.000000	1.019057	7.37637e+06	-57739.1	1105.82	-29736.4	0.000000	0.000000	7.019212	1.816211	NaN	0.000000	0.001617	0.001699	28.0826	2.603389	0.001844	1411.83	8.257784	-170.469	0.647650	1.017722	0.003529	0.002195	1.816211	1411.83	0.002565	0.002017	900.616	28723.9
1157	2.000000	1.025592	7.37637e+06	-57739.1	1105.82	-29736.4	0.000000	0.000000	7.026143	11.4305	NaN	0.000000	0.001650	0.001708	28.0833	8.848050	0.001489	5940.68	5.599331	-173.529	10.6423	1.025222	0.010065	0.009695	11.4305	5940.68	0.008622	0.007690	1486.48	61895
1157	2.000000	1.027501	7.37637e+06	-57739.1	1105.82	-29736.4	0.000000	0.000000	7.028188	14.7521	NaN	0.000000	0.001652	0.001711	28.0844	10.205	0.001622	6290.88	1.743123	-170.318	13.6153	1.027265	0.011974	0.011737	14.7521	6290.88	0.010215	0.009421	1565.84	59215
1157	2.000000	1.029544	7.37637e+06	-57739.1	1105.82	-29736.4	0.000000	0.000000	7.030320	16.9045	NaN	0.000000	0.001726	0.001698	28.084	12.7163	0.001888	6735.59	8.428498	-175.871	17.3562	1.029282	0.014016	0.013754	16.9045	6735.59	0.012134	0.011651	1450.91	57012.3
1157	2.000000	1.031476	7.37637e+06	-57739.1	1105.82	-29736.4	0.000000	0.000000	7.032413	20.8025	NaN	0.000000	0.001717	0.001652	28.0839	13.6888	0.001616	8469.85	2.568613	-172.682	20.0098	1.031224	0.015949	0.015697	20.8025	8469.85	0.014107	0.014113	1474	65138.7
1157	2.000000	1.033464	7.37637e+06	-57739.1	1105.82	-29736.4	0.000000	0.000000	7.034572	24.9604	NaN	0.000000	0.001706	0.001689	28.084	16.3487	0.001777	9201.81	4.847873	-175.572	23.9948	1.033214	0.017937	0.017687	24.9604	9201.81	0.015902	0.016508	1512.06	65434.3
1157	2.000000	1.035536	7.37637e+06	-57739.1	1105.82	-29736.4	0.000000	0.000000	7.036744	27.3859	NaN	0.000000	0.001742	0.001664	28.0842	17.9733	0.001833	9806.09	10.103	-178.401	27.9692	1.035147	0.020009	0.019620	27.3859	9806.09	0.017915	0.019371	1413.78	64372
1157	2.000000	1.037469	7.37637e+06	-57739.1	1105.82	-29736.4	0.000000	0.000000	7.038867	32.0082	NaN	0.000000	0.001731	0.001681	28.0845	20.0812	0.001647	12189.7	7.086553	-179.92	30.5537	1.037096	0.021942	0.021569	32.0082	12189.7	0.019973	0.022499	1422.64	74248
1157	2.000000	1.039519	7.37637e+06	-57739.1	1105.82	-29736.4	0.000000	0.000000	7.040963	33.1536	NaN	0.000000	0.001710	0.001702	28.0839	23.3226	0.001956	11924.6	6.885057	-177.501	34.4746	1.039207	0.023991	0.023680	33.1536	11924.6	0.021906	0.025627	1293.71	68056.7
1157	2.000000	1.041541	7.37637e+06	-57739.1	1105.82	-29736.4	0.000000	0.000000	7.043174	37.7392	NaN	0.000000	0.001700	0.001689	28.0836	25.3154	0.001793	14116.6	8.797957	177.687	40.3366	1.041143	0.026014	0.025615	37.7392	14116.6	0.024009	0.029237	1290.81	75429.2
1157	2.000000	1.043430	7.37637e+06	-57739.1	1105.82	-29736.4	0.000000	0.000000	7.045450	47.1333	NaN	0.000000	0.001688	0.001700	28.0837	26.987	0.001661	16252.2	6.471585	177.925	45.3194	1.043097	0.027903	0.027570	47.1333	16252.2	0.025728	0.032353	1456.83	82551.9
1157	2.000000	1.045498	7.37637e+06	-57739.1	1105.82	-29736.4	0.000000	0.000000	7.047747	52.7142	NaN	0.000000	0.001683	0.001707	28.084	29.1934	0.001637	17831.3	5.884305	178.667	50.8641	1.045033	0.029971	0.029505	52.7142	17831.3	0.027753	0.036216	1455.55	85606.3
1157	2.000000	1.047462	7.37637e+06	-57739.1	1105.82	-29736.4	0.000000	0.000000	7.049945	58.4039	NaN	0.000000	0.001686	0.001669	28.0841	30.6189	0.001728	17722.7	5.278346	179.575	58.3451	1.047185	0.031934	0.031658	58.4039	17722.7	0.029463	0.039638	1473.45	81329.8
1157	2.000000	1.049457	7.37637e+06	-57739.1	1105.82	-29736.4	0.000000	0.000000	7.052137	63.1628	NaN	0.000000	0.001663	0.001693	28.084	33.9871	0.001896	17926.7	6.724774	179.378	64.063	1.049161	0.033930	0.033634	63.1628	17926.7	0.031288	0.043455	1453.53	78569.7
1157	2.000000	1.051455	7.37637e+06	-57739.1	1105.82	-29736.4	0.000000	0.000000	7.054487	71.7304	NaN	0.000000	0.001667	0.001711	28.084	35.6731	0.001877	19002	7.736126	176.779	72.6683	1.051160	0.035927	0.035633	71.7304	19002	0.033096	0.047406	1513.1	79736.3
1157	2.000000	1.053447	7.37637e+06	-57739.1	1105.82	-29736.4	0.000000	0.000000	7.056951	83.2055	NaN	0.000000	0.001676	0.001699	28.0839	36.8586	0.001689	21827.8	3.336287	179.731	82.4837	1.053064	0.037920	0.037537	83.2055	21827.8	0.035061	0.051888	1603.57	87548.9
1157	2.000000	1.055469	7.37637e+06	-57739.1	1105.82	-29736.4	0.000000	0.000000	7.059347	92.2738	NaN	0.000000	0.001704	0.001674	28.0839	40.3997	0.001871	21594.7	6.895164	176.249	90.0623	1.055066	0.039942	0.039539	92.2738	21594.7	0.036737	0.055869	1651.61	83470.9
1157	2.000000	1.057426	7.37637e+06	-57739.1	1105.82	-29736.4	0.000000	0.000000	7.061857	105.726	NaN	0.000000	0.001700	0.001701	28.0841	41.9958	0.001849	22716.5	6.025661	176.728	104.182	1.057109	0.041899	0.041582	105.726	22716.5	0.038408	0.059979	1762.71	84745.2
1157	2.000000	1.059480	7.37637e+06	-57739.1	1105.82	-29736.4	0.000000	0.000000	7.064237	113.669	NaN	0.000000	0.001717	0.001687	28.0841	44.4039	0.001774	25030.9	5.545407	175.834	116.152	1.059171	0.043953	0.043644	113.669	25030.9	0.040547	0.065449	1736.75	89391.6
1157	2.000000	1.061406	7.37637e+06	-57739.1	1105.82	-29736.4	0.000000	0.000000	7.066868	130.791	NaN	0.000000	0.001713	0.001708	28.0829	45.386	0.001705	26613.5	7.069444	173.65	128.915	1.061047	0.045878	0.045520	130.791	26613.5	0.042193	0.069817	1873.33	92022.5
1157	2.000000	1.063401	7.37637e+06	-57739.1	1105.82	-29736.4	0.000000	0.000000	7.069393	143.666	NaN	0.000000	0.001700	0.001687	28.0828	48.2175	0.001811	26618.1	1.648854	179.418	142.031	1.063074	0.047874	0.047547	143.666	26618.1	0.043826	0.074289	1933.89	89225.4
1157	2.000000	1.065411	7.37637e+06	-57739.1	1105.82	-29736.4	0.000000	0.000000	7.071930	156.489	NaN	0.000000	0.001664	0.001682	28.0827	50.1778	0.001784	28130.4	4.967389	176.503	154.005	1.065003	0.049883	0.049476	156.489	28130.4	0.045711	0.079619	1965.46	91083.7
1157	2.000000	1.067389	7.37637e+06	-57739.1	1105.82	-29736.4	0.000000	0.000000	7.074400	168.447	NaN	0.000000	0.001638	0.001700	28.083	51.9402	0.001662	31257.2	6.374889	173.364	166.918	1.067016	0.051862	0.051489	168.447	31257.2	0.047820	0.085794	1963.39	97497.9
1157	2.000000	1.069362	7.37637e+06	-57739.1	1105.82	-29736.4	0.000000	0.000000	7.076916	181.624	NaN	0.000000	0.001694	0.001692	28.0829	53.7933	0.001805	29807.9	3.148803	176.569	177.699	1.069141	0.053835	0.053613	181.624	29807.9	0.049265	0.090155	2014.57	90700.3
1157	2.000000	1.071360	7.37637e+06	-57739.1	1105.82	-29736.4	0.000000	0.000000	7.079392	193.269	NaN	0.000000	0.001692	0.001696	28.0827	55.2824	0.001759	31424.8	7.702296	171.525	190.011	1.071039	0.055833	0.055512	193.269	31424.8	0.051220	0.096221	2008.6	92557.5
1157	2.000000	1.073438	7.37637e+06	-57739.1	1105.82	-29736.4	0.000000	0.000000	7.081789	201.003	NaN	0.000000	0.001647	0.001710	28.0821	56.2624	0.001768	31814.6	3.665853	175.498	200.733	1.073125	0.057911	0.057598	201.003	31814.6	0.053172	0.102470	1961.57	90803.3
1157	2.000000	1.075494	7.37637e+06	-57739.1	1105.82	-29736.4	0.000000	0.000000	7.084344	213.12	NaN	0.000000	0.001616	0.001678	28.0822	58.4452	0.001812	32254.2	6.319349	173.932	214.315	1.075096	0.059967	0.059569	213.12	32254.2	0.055011	0.108530	1963.7	89451
1157	2.000000	1.077419	7.37637e+06	-57739.1	1105.82	-29736.4	0.000000	0.000000	7.086616	221.552	NaN	0.000000	0.001627	0.001673	28.0823	58.9857	0.001739	33914.3	2.245775	176.883	222.655	1.077182	0.061892	0.061655	221.552	33914.3	0.056992	0.115245	1922.45	91273.5
1157	2.000000	1.079390	7.37637e+06	-57739.1	1105.82	-29736.4	0.000000	0.000000	7.088753	225.584	NaN	0.000000	0.001638	0.001707	28.0824	63.2798	0.001844	34325.8	7.635370	170.691	222.848	1.079212	0.063863	0.063685	225.584	34325.8	0.058934	0.122015	1848.83	89781.8
1157	2.000000	1.081458	7.37637e+06	-57739.1	1105.82	-29736.4	0.000000	0.000000	7.091205	234.926	NaN	0.000000	0.001634	0.001710	28.0826	62.0841	0.001713	36246.3	1.927283	176.45	237.342	1.081156	0.065931	0.065629	234.926	36246.3	0.061070	0.129672	1811.69	91963.2
1157	2.000000	1.083407	7.37637e+06	-57739.1	1105.82	-29736.4	0.000000	0.000000	7.093559	244.777	NaN	0.000000	0.001620	0.001702	28.0828	66.2038	0.001879	35242	9.203012	169.872	245.07	1.083077	0.067880	0.067550	244.777	35242	0.062670	0.135558	1805.7	87452.3
1157	2.000000	1.085399	7.37637e+06	-57739.1	1105.82	-29736.4	0.000000	0.000000	7.095808	251.033	NaN	0.000000	0.001632	0.001644	28.0826	66.6891	0.001760	37882.9	5.054443	173.408	249.29	1.085112	0.069872	0.069584	251.033	37882.9	0.064902	0.143970	1743.65	91217.9
1157	2.000000	1.087346	7.37637e+06	-57739.1	1105.82	-29736.4	0.000000	0.000000	7.098107	259.572	NaN	0.000000	0.001573	0.001663	28.0824	67.9551	0.001897	35813.4	3.718122	174.502	257.562	1.087170	0.071819	0.071642	259.572	35813.4	0.066383	0.149686	1734.11	84572.2
1157	2.000000	1.089402	7.37638e+06	-57739.1	1105.82	-29736.4	0.000000	0.000000	7.100680	272.143	NaN	0.000000	0.001643	0.001664	28.0826	69.6238	0.001780	39119.3	3.586165	174.02	270.773	1.089031	0.073875	0.073504	272.143	39119.3	0.068657	0.158669	1715.16	89725.9
1157	2.000000	1.091425	7.37638e+06	-57739.1	1105.82	-29736.4	0.000000	0.000000	7.103113	282.114	NaN	0.000000	0.001618	0.001666	28.0828	70.1902	0.001760	39882.1	3.681683	174.037	282.86	1.091246	0.075897	0.075719	282.114	39882.1	0.070592	0.166505	1694.33	89297.2
1157	2.000000	1.093371	7.37638e+06	-57739.1	1105.82	-29736.4	0.000000	0.000000	7.105561	294.288	NaN	0.000000	0.001651	0.001667	28.0831	73.5725	0.001736	42389.2	5.416941	171.627	291.257	1.092943	0.077844	0.077416	294.288	42389.2	0.072637	0.174981	1681.83	92583.3
1157	2.000000	1.095433	7.37638e+06	-57739.1	1105.82	-29736.4	0.000000	0.000000	7.107765	297.749	NaN	0.000000	0.001668	0.001681	28.084	75.9627	0.001863	40783	5.133183	172.809	297.876	1.095093	0.079906	0.079566	297.749	40783	0.074431	0.182577	1630.81	87202.5
1157	2.000000	1.097404	7.37638e+06	-57739.1	1105.82	-29736.4	0.000000	0.000000	7.110189	308.775	NaN	0.000000	0.001656	0.001681	28.0841	77.6704	0.001920	40457.2	6.482218	172.159	307.132	1.096959	0.081877	0.081431	308.775	40457.2	0.076153	0.190014	1625.01	84796.2
1157	2.000000	1.099394	7.37638e+06	-57739.1	1105.82	-29736.4	0.000000	0.000000	7.112655	320.338	NaN	0.000000	0.001642	0.001677	28.0841	79.5764	0.001751	45445.4	6.111560	170.251	320.447	1.099138	0.083867	0.083611	320.338	45445.4	0.078580	0.200732	1595.85	92673.3
1157	2.000000	1.101305	7.37638e+06	-57739.1	1105.82	-29736.4	0.000000	0.000000	7.115178	335.216	NaN	0.000000	0.001668	0.001660	28.0842	79.0743	0.001784	44317.6	2.294367	175.218	331.387	1.101052	0.085778	0.085525	335.216	44317.6	0.080105	0.207604	1614.69	88865.1
1157	2.000000	1.103351	7.37638e+06	-57739.1	1105.82	-29736.4	0.000000	0.000000	7.117450	340.704	NaN	0.000000	0.001653	0.001691	28.0841	82.0625	0.001724	47610	5.893681	170.562	338.542	1.102934	0.087824	0.087407	340.704	47610	0.082457	0.218419	1559.86	93073.4
1157	2.000000	1.105366	7.37638e+06	-57739.1	1105.82	-29736.4	0.000000	0.000000	7.119811	349.1	NaN	0.000000	0.001634	0.001696	28.0841	83.7521	0.001716	48817.7	4.018785	172.217	346.556	1.105028	0.089839	0.089501	349.1	48817.7	0.084476	0.227907	1531.76	93426.9
1157	2.000000	1.107343	7.37638e+06	-57739.1	1105.82	-29736.4	0.000000	0.000000	7.122270	360.83	NaN	0.000000	0.001662	0.001678	28.0844	84.9733	0.001857	45767.8	2.049150	174.609	359.062	1.107035	0.091816	0.091508	360.83	45767.8	0.085903	0.234728	1537.22	86307.9
1157	2.000000	1.109430	7.37638e+06	-57739.1	1105.82	-29736.4	0.000000	0.000000	7.124765	370.749	NaN	0.000000	0.001624	0.001702	28.0839	88.1147	0.001921	45870.1	7.608875	169.193	374.021	1.109133	0.093902	0.093606	370.749	45870.1	0.087840	0.244138	1518.61	84817.4
1157	2.000000	1.111460	7.37638e+06	-57739.1	1105.82	-29736.4	0.000000	0.000000	7.127494	387.715	NaN	0.000000	0.001606	0.001676	28.0841	88.2191	0.001810	48728.3	6.607786	170.274	391.801	1.111065	0.095933	0.095538	387.715	48728.3	0.089966	0.254658	1522.49	88221.8
1157	2.000000	1.113350	7.37638e+06	-57739.1	1105.82	-29736.4	0.000000	0.000000	7.129870	399.554	NaN	0.000000	0.001602	0.001668	28.0839	90.7036	0.001861	48731.6	6.218652	170.292	398.946	1.113069	0.097823	0.097542	399.554	48731.6	0.091673	0.263262	1517.71	86774.1
1157	2.000000	1.115267	7.37638e+06	-57739.1	1105.82	-29736.4	0.000000	0.000000	7.132061	406.2	NaN	0.000000	0.001634	0.001721	28.084	91.6355	0.001789	51229	3.404375	172.138	399.673	1.115088	0.099740	0.099561	406.2	51229	0.093793	0.274127	1481.79	89395.1
1157	2.000000	1.117314	7.37638e+06	-57739.1	1105.82	-29736.4	0.000000	0.000000	7.134694	420.458	NaN	0.000000	0.001623	0.001689	28.0841	92.2444	0.001664	55423.3	2.779237	172.496	418.034	1.117026	0.101787	0.101499	420.458	55423.3	0.096097	0.286168	1469.27	94657.5
1157	2.000000	1.119345	7.37638e+06	-57739.1	1105.82	-29736.4	0.000000	0.000000	7.137483	438.865	NaN	0.000000	0.001626	0.001688	28.0842	96.5322	0.001780	54227	6.197137	169.122	436.968	1.119028	0.103818	0.103500	438.865	54227	0.097748	0.294945	1487.96	91226
1157	2.000000	1.121390	7.37638e+06	-57739.1	1105.82	-29736.4	0.000000	0.000000	7.139941	448.911	NaN	0.000000	0.001623	0.001668	28.0843	97.2694	0.001947	49963.7	3.529010	172.797	448.116	1.121186	0.105862	0.105659	448.911	49963.7	0.099124	0.302355	1484.72	83017.5
1157	2.000000	1.123350	7.37638e+06	-57739.1	1105.82	-29736.4	0.000000	0.000000	7.142862	472.251	NaN	0.000000	0.001590	0.001689	28.0839	99.6424	0.001811	55015.4	5.170101	170.792	469.121	1.122952	0.107823	0.107424	472.251	55015.4	0.101385	0.314722	1500.54	89597.1