File: remote_trans/data/nanoindenter/0828-1/data/Data_2025-08-06,11h17m57s/2025-07-22_16-23-58_1_1116.txt
2025-07-22, 16:23:58, 1
Index	Phase	Displacement	Time	Pos X	Pos Y	Pos Z	Rot A	Rot B	Piezo Z	Force A	Force B	Gripper	Voltage A	Voltage B	Temperature	Amplitude force	Amplitude pos	Stiffness	Phase shift	Phase excitation	Force A raw	Displacement raw	HMax	HMax raw	Real Force	Real Stiffness	Contact Depth	Area	Hardness	Reduced Mod.
[#]	[#]	[um]	[s]	[um]	[um]	[um]	[m°]	[m°]	[um]	[uN]	[uN]	[V]	[V]	[V]	[°C]	[uN]	[um]	[N/m]	[°]	[°]	[uN]	[um]	[um]	[um]	[uN]	[N/m]	[um]	[um^2]	[MPa]	[MPa]
1116	1.000000	0.002364	7.37597e+06	-55939.1	1055.82	-29740.3	0.000000	0.000000	6.002799	-0.054938	NaN	0.000000	0.001597	0.001713	28.0827	0.027217	0.000990	27.4933	-132.928	-168.67	0.046838	0.001101	-1.045034	-1.046297	-0.054938	27.4933	-1.043535	-8.739777E+13	6.285999E-16	NaN
1116	1.000000	0.010328	7.37597e+06	-55939.1	1055.82	-29740.3	0.000000	0.000000	6.010763	-0.072271	NaN	0.000000	0.001639	0.001698	28.083	0.057953	0.000897	64.5864	-124.431	-170.302	-0.034162	0.009006	-1.037070	-1.038392	-0.072271	64.5864	-1.036230	-6.970679E+13	1.036793E-15	NaN
1116	1.000000	0.018282	7.37597e+06	-55939.1	1055.82	-29740.3	0.000000	0.000000	6.018718	-0.028379	NaN	0.000000	0.001595	0.001772	28.0827	0.022053	0.001756	12.5569	-41.753	-167.655	0.011290	0.016975	-1.029116	-1.030423	-0.028379	12.5569	-1.027421	-5.306262E+13	5.348212E-16	NaN
1116	1.000000	0.026343	7.37597e+06	-55939.1	1055.82	-29740.3	0.000000	0.000000	6.026778	-0.057201	NaN	0.000000	0.001628	0.001699	28.0828	0.031137	0.001967	15.8314	-20.3524	-164.927	-0.059363	0.024992	-1.021055	-1.022406	-0.057201	15.8314	-1.018346	-4.005815E+13	1.427955E-15	NaN
1116	1.000000	0.034344	7.37597e+06	-55939.1	1055.82	-29740.3	0.000000	0.000000	6.034780	-0.033423	NaN	0.000000	0.001603	0.001733	28.0829	0.056244	0.001850	30.4024	-15.7703	-163.824	-0.007289	0.033009	-1.013054	-1.014389	-0.033423	30.4024	-1.012229	-3.314268E+13	1.008450E-15	NaN
1116	1.000000	0.042267	7.37597e+06	-55939.1	1055.82	-29740.3	0.000000	0.000000	6.042701	-0.078742	NaN	0.000000	0.001648	0.001729	28.0843	0.045539	0.002064	22.0653	-13.3154	-166.32	-0.085825	0.040955	-1.005131	-1.006443	-0.078742	22.0653	-1.002455	-2.448015E+13	3.216550E-15	NaN
1116	1.000000	0.050325	7.37597e+06	-55939.1	1055.82	-29740.3	0.000000	0.000000	6.050761	-0.034958	NaN	0.000000	0.001666	0.001741	28.0842	0.089193	0.001999	44.6078	1.660345	-166.077	0.010013	0.048987	-0.997073	-0.998411	-0.034958	44.6078	-0.996485	-2.034435E+13	1.718333E-15	NaN
1116	1.000000	0.058300	7.37597e+06	-55939.1	1055.82	-29740.3	0.000000	0.000000	6.058736	-0.035024	NaN	0.000000	0.001636	0.001688	28.0845	0.084373	0.001952	43.2282	-165.386	-164.912	-0.049161	0.056975	-0.989098	-0.990423	-0.035024	43.2282	-0.988490	-1.587746E+13	2.205896E-15	NaN
1116	1.000000	0.066318	7.37597e+06	-55939.1	1055.82	-29740.3	0.000000	0.000000	6.066754	-0.014393	NaN	0.000000	0.001642	0.001768	28.0844	0.065031	0.002050	31.7281	158.149	-166.541	-0.035531	0.065010	-0.981080	-0.982388	-0.014393	31.7281	-0.980740	-1.248485E+13	1.152829E-15	NaN
1116	1.000000	0.074307	7.37597e+06	-55939.1	1055.82	-29740.3	0.000000	0.000000	6.074742	-0.055370	NaN	0.000000	0.001624	0.001731	28.0845	0.057433	0.002105	27.2778	-163.808	-163.968	-0.036928	0.072992	-0.973091	-0.974406	-0.055370	27.2778	-0.971568	-9.392916E+12	5.894853E-15	NaN
1116	1.000000	0.082329	7.37597e+06	-55939.1	1055.82	-29740.3	0.000000	0.000000	6.082771	0.098394	NaN	0.000000	0.001673	0.001726	28.0846	0.051357	0.002027	25.3388	122.313	-166.779	0.053175	0.081042	-0.965069	-0.966356	0.098394	25.3388	-0.967981	-8.403354E+12	-1.170892E-14	NaN
1116	1.000000	0.090344	7.37597e+06	-55939.1	1055.82	-29740.3	0.000000	0.000000	6.090779	-0.060758	NaN	0.000000	0.001666	0.001760	28.0844	0.075123	0.001919	39.1367	-59.0939	-167.791	-0.064805	0.089006	-0.957054	-0.958392	-0.060758	39.1367	-0.955889	-5.773620E+12	1.052330E-14	NaN
1116	1.000000	0.098330	7.37597e+06	-55939.1	1055.82	-29740.3	0.000000	0.000000	6.098767	-0.022613	NaN	0.000000	0.001640	0.001781	28.0844	0.132378	0.002033	65.1221	153.056	-167.008	-0.001923	0.097025	-0.949068	-0.950373	-0.022613	65.1221	-0.948807	-4.633822E+12	4.879981E-15	NaN
1116	1.000000	0.106352	7.37597e+06	-55939.1	1055.82	-29740.3	0.000000	0.000000	6.106791	0.022117	NaN	0.000000	0.001653	0.001789	28.0846	0.024245	0.001943	12.4764	-158.349	-166.94	-0.058037	0.104976	-0.941046	-0.942422	0.022117	12.4764	-0.942375	-3.794739E+12	-5.828324E-15	NaN
1116	1.000000	0.114319	7.37597e+06	-55939.1	1055.82	-29740.3	0.000000	0.000000	6.114754	-0.050710	NaN	0.000000	0.001663	0.001771	28.0846	0.039819	0.002036	19.5543	-82.1195	-166.466	-0.087613	0.112960	-0.933079	-0.934438	-0.050710	19.5543	-0.931134	-2.676099E+12	1.894940E-14	NaN
1116	1.000000	0.122347	7.37597e+06	-55939.1	1055.82	-29740.3	0.000000	0.000000	6.122783	-0.043294	NaN	0.000000	0.001656	0.001786	28.0844	0.215080	0.002008	107.12	131.424	-166.477	-0.042483	0.121020	-0.925051	-0.926378	-0.043294	107.12	-0.924748	-2.194324E+12	1.972996E-14	NaN
1116	1.000000	0.130304	7.37597e+06	-55939.1	1055.82	-29740.3	0.000000	0.000000	6.130743	0.035660	NaN	0.000000	0.001650	0.001796	28.0843	0.095451	0.001846	51.7017	-127.361	-166.208	0.001675	0.128998	-0.917094	-0.918400	0.035660	51.7017	-0.917611	-1.757721E+12	-2.028764E-14	NaN
1116	1.000000	0.138330	7.37597e+06	-55939.1	1055.82	-29740.3	0.000000	0.000000	6.138769	0.037647	NaN	0.000000	0.001659	0.001762	28.0843	0.074281	0.002002	37.1044	-163.645	-165.689	-0.036306	0.137047	-0.909068	-0.910351	0.037647	37.1044	-0.909829	-1.379903E+12	-2.728237E-14	NaN
1116	1.000000	0.146367	7.37597e+06	-55939.1	1055.82	-29740.3	0.000000	0.000000	6.146804	-0.027772	NaN	0.000000	0.001644	0.001717	28.0844	0.030880	0.002049	15.0721	-12.9345	-165.726	0.034894	0.145054	-0.901031	-0.902344	-0.027772	15.0721	-0.899649	-1.005356E+12	2.762447E-14	NaN
1116	1.000000	0.154355	7.37597e+06	-55939.1	1055.82	-29740.3	0.000000	0.000000	6.154790	-0.066370	NaN	0.000000	0.001706	0.001709	28.0842	0.098949	0.002032	48.694	79.5169	-171.519	-0.022849	0.153013	-0.893043	-0.894385	-0.066370	48.694	-0.892021	-7.929234E+11	8.370287E-14	NaN
1116	1.000000	0.162327	7.37597e+06	-55939.1	1055.82	-29740.3	0.000000	0.000000	6.162765	0.006335	NaN	0.000000	0.001696	0.001722	28.0841	0.083109	0.002041	40.7109	-35.6141	-167.536	0.000721	0.161061	-0.885071	-0.886337	0.006335	40.7109	-0.885188	-6.409954E+11	-9.883773E-15	NaN
1116	1.000000	0.170359	7.37597e+06	-55939.1	1055.82	-29740.3	0.000000	0.000000	6.170794	-0.045680	NaN	0.000000	0.001678	0.001726	28.0841	0.103200	0.002062	50.0516	-103.894	-166.65	-0.045224	0.169058	-0.877039	-0.878340	-0.045680	50.0516	-0.876355	-4.868680E+11	9.382331E-14	NaN
1116	1.000000	0.178340	7.37597e+06	-55939.1	1055.82	-29740.3	0.000000	0.000000	6.178773	-0.102777	NaN	0.000000	0.001718	0.001722	28.0827	0.062209	0.001952	31.8723	79.6573	-167.243	-0.074141	0.177065	-0.869058	-0.870333	-0.102777	31.8723	-0.866640	-3.597328E+11	2.857028E-13	NaN
1116	1.000000	0.186369	7.37597e+06	-55939.1	1055.82	-29740.3	0.000000	0.000000	6.186803	-0.069519	NaN	0.000000	0.001727	0.001724	28.083	0.148162	0.002059	71.9566	107.027	-163.394	-0.022321	0.185064	-0.861029	-0.862335	-0.069519	71.9566	-0.860304	-2.952850E+11	2.354294E-13	NaN
1116	1.000000	0.194351	7.37597e+06	-55939.1	1055.82	-29740.3	0.000000	0.000000	6.194783	-0.131377	NaN	0.000000	0.001712	0.001717	28.0829	0.069734	0.001980	35.2242	-159.004	-163.467	-0.118848	0.193073	-0.853047	-0.854325	-0.131377	35.2242	-0.850250	-2.158339E+11	6.086947E-13	NaN
1116	1.000000	0.202378	7.37597e+06	-55939.1	1055.82	-29740.3	0.000000	0.000000	6.202814	-0.038552	NaN	0.000000	0.001703	0.001705	28.0832	0.127187	0.002015	63.1276	108.524	-168.212	0.022144	0.201078	-0.845020	-0.846320	-0.038552	63.1276	-0.844562	-1.807564E+11	2.132833E-13	NaN
1116	1.000000	0.210361	7.37597e+06	-55939.1	1055.82	-29740.3	0.000000	0.000000	6.210798	-0.016823	NaN	0.000000	0.001683	0.001703	28.0832	0.085416	0.001948	43.8589	-38.6778	-163.512	-0.110274	0.209139	-0.837037	-0.838259	-0.016823	43.8589	-0.836749	-1.416591E+11	1.187550E-13	NaN
1116	1.000000	0.218377	7.37597e+06	-55939.1	1055.82	-29740.3	0.000000	0.000000	6.218814	7.661723E-5	NaN	0.000000	0.001705	0.001714	28.0832	0.055725	0.001995	27.9344	-175.032	-164.213	-0.067196	0.217022	-0.829021	-0.830376	7.661723E-5	27.9344	-0.829023	-1.113131E+11	-6.883039E-16	NaN
1116	1.000000	0.226364	7.37597e+06	-55939.1	1055.82	-29740.3	0.000000	0.000000	6.226802	0.001095	NaN	0.000000	0.001727	0.001696	28.083	0.092395	0.002123	43.5213	-125.672	-167.981	0.070623	0.225094	-0.821034	-0.822304	0.001095	43.5213	-0.821053	-8.679313E+10	-1.261380E-14	NaN
1116	1.000000	0.234389	7.37597e+06	-55939.1	1055.82	-29740.3	0.000000	0.000000	6.234826	-0.006136	NaN	0.000000	0.001725	0.001682	28.0831	0.003671	0.001923	1.908984	32.7258	-168.383	-0.038522	0.233139	-0.813009	-0.814259	-0.006136	1.908984	-0.810598	-6.261594E+10	9.799655E-14	NaN
1116	1.000000	0.242399	7.37597e+06	-55939.1	1055.82	-29740.3	0.000000	0.000000	6.242834	-0.055827	NaN	0.000000	0.001713	0.001735	28.0831	0.134301	0.001991	67.4537	113.783	-165.268	-0.095161	0.241076	-0.804999	-0.806322	-0.055827	67.4537	-0.804379	-5.155780E+10	1.082811E-12	NaN
1116	1.000000	0.250421	7.37597e+06	-55939.1	1055.82	-29740.3	0.000000	0.000000	6.250858	-0.024202	NaN	0.000000	0.001649	0.001717	28.0833	0.069755	0.001974	35.3334	-178.576	-165.359	-0.090034	0.249090	-0.796977	-0.798308	-0.024202	35.3334	-0.796463	-4.025731E+10	6.011888E-13	NaN
1116	1.000000	0.258411	7.37597e+06	-55939.1	1055.82	-29740.3	0.000000	0.000000	6.258847	-0.025907	NaN	0.000000	0.001644	0.001741	28.0834	0.043744	0.002192	19.9533	62.7393	-165.28	-0.066644	0.257109	-0.788987	-0.790289	-0.025907	19.9533	-0.788013	-3.091021E+10	8.381304E-13	NaN
1116	1.000000	0.266368	7.37597e+06	-55939.1	1055.82	-29740.3	0.000000	0.000000	6.266806	0.006618	NaN	0.000000	0.001616	0.001703	28.0832	0.058766	0.001995	29.4566	-167.521	-162.221	-0.081640	0.265135	-0.781030	-0.782263	0.006618	29.4566	-0.781198	-2.497534E+10	-2.649942E-13	NaN
1116	1.000000	0.274369	7.37597e+06	-55939.1	1055.82	-29740.3	0.000000	0.000000	6.274803	-0.087342	NaN	0.000000	0.001639	0.001708	28.0833	0.050807	0.001982	25.6344	52.5598	-166.606	-0.113902	0.273120	-0.773029	-0.774279	-0.087342	25.6344	-0.770473	-1.785422E+10	4.891966E-12	NaN
1116	1.000000	0.282385	7.37597e+06	-55939.1	1055.82	-29740.3	0.000000	0.000000	6.282821	-0.027393	NaN	0.000000	0.001645	0.001691	28.0833	0.015314	0.002017	7.591109	125.474	-168.059	-0.028214	0.281095	-0.765013	-0.766303	-0.027393	7.591109	-0.762307	-1.382559E+10	1.981314E-12	NaN
1116	1.000000	0.290403	7.37597e+06	-55939.1	1055.82	-29740.3	0.000000	0.000000	6.290835	-0.133846	NaN	0.000000	0.001646	0.001687	28.0833	0.095420	0.002005	47.593	94.7229	-161.688	-0.138172	0.289098	-0.756995	-0.758300	-0.133846	47.593	-0.754886	-1.095768E+10	1.221480E-11	NaN
1116	1.000000	0.298394	7.37597e+06	-55939.1	1055.82	-29740.3	0.000000	0.000000	6.298829	-0.067793	NaN	0.000000	0.001658	0.001709	28.0833	0.029649	0.002014	14.7242	-23.8505	-166.159	-0.004099	0.297100	-0.749004	-0.750298	-0.067793	14.7242	-0.745551	-8.177954E+9	8.289748E-12	NaN
1116	1.000000	0.306421	7.37597e+06	-55939.1	1055.82	-29740.3	0.000000	0.000000	6.306857	-0.027084	NaN	0.000000	0.001668	0.001732	28.0833	0.074771	0.001972	37.9213	-161.727	-169.437	-0.089726	0.305119	-0.740977	-0.742279	-0.027084	37.9213	-0.740441	-6.967362E+9	3.887257E-12	NaN
1116	1.000000	0.314419	7.37597e+06	-55939.1	1055.82	-29740.3	0.000000	0.000000	6.314856	0.000502	NaN	0.000000	0.001658	0.001745	28.0845	0.046948	0.002044	22.9737	-90.8626	-169.136	-0.045413	0.313111	-0.732979	-0.734287	0.000502	22.9737	-0.732996	-5.516086E+9	-9.108153E-14	NaN
1116	1.000000	0.322422	7.37597e+06	-55939.1	1055.82	-29740.3	0.000000	0.000000	6.322857	-0.056646	NaN	0.000000	0.001660	0.001722	28.0844	0.041660	0.002019	20.6331	75.8497	-165.801	-0.076202	0.321117	-0.724976	-0.726281	-0.056646	20.6331	-0.722917	-4.020210E+9	1.409037E-11	NaN
1116	1.000000	0.330410	7.37597e+06	-55939.1	1055.82	-29740.3	0.000000	0.000000	6.330845	-0.045746	NaN	0.000000	0.001628	0.001715	28.0844	0.061184	0.002097	29.1794	-3.399759	-167.341	-0.102169	0.329139	-0.716988	-0.718259	-0.045746	29.1794	-0.715813	-3.216305E+9	1.422300E-11	NaN
1116	1.000000	0.338413	7.37597e+06	-55939.1	1055.82	-29740.3	0.000000	0.000000	6.338845	-0.136121	NaN	0.000000	0.001656	0.001765	28.0844	0.017066	0.001985	8.599022	139.049	-168.489	-0.055994	0.337080	-0.708985	-0.710318	-0.136121	8.599022	-0.697113	-1.786899E+9	7.617714E-11	NaN
1116	1.000000	0.346465	7.37597e+06	-55939.1	1055.82	-29740.3	0.000000	0.000000	6.346901	-0.026351	NaN	0.000000	0.001680	0.001741	28.0846	0.050807	0.002092	24.2827	47.6332	-167.997	-0.018219	0.345139	-0.700933	-0.702259	-0.026351	24.2827	-0.700119	-1.964087E+9	1.341642E-11	NaN
1116	1.000000	0.354445	7.37597e+06	-55939.1	1055.82	-29740.3	0.000000	0.000000	6.354879	-0.068204	NaN	0.000000	0.001682	0.001762	28.0845	0.044474	0.002040	21.7971	138.14	-165.23	-0.027850	0.353165	-0.692953	-0.694233	-0.068204	21.7971	-0.690607	-1.456154E+9	4.683817E-11	NaN
1116	1.000000	0.362435	7.37597e+06	-55939.1	1055.82	-29740.3	0.000000	0.000000	6.362871	-0.016006	NaN	0.000000	0.001643	0.001745	28.0843	0.099925	0.001965	50.8581	52.5779	-163.097	-0.041007	0.361132	-0.684963	-0.686266	-0.016006	50.8581	-0.684727	-1.210175E+9	1.322606E-11	NaN
1116	1.000000	0.370482	7.37597e+06	-55939.1	1055.82	-29740.3	0.000000	0.000000	6.370917	-0.058278	NaN	0.000000	0.001669	0.001745	28.0844	0.032611	0.001998	16.3237	70.8221	-167.197	-0.009660	0.369166	-0.676916	-0.678232	-0.058278	16.3237	-0.674239	-8.697488E+8	6.700609E-11	NaN
1116	1.000000	0.378430	7.37597e+06	-55939.1	1055.82	-29740.3	0.000000	0.000000	6.378865	-0.064882	NaN	0.000000	0.001660	0.001755	28.0843	0.121502	0.001706	71.2197	-50.2707	-166.619	-0.070729	0.377132	-0.668968	-0.670266	-0.064882	71.2197	-0.668285	-7.209639E+8	8.999289E-11	NaN
1116	1.000000	0.386461	7.37597e+06	-55939.1	1055.82	-29740.3	0.000000	0.000000	6.386897	-0.030817	NaN	0.000000	0.001669	0.001764	28.0842	0.028806	0.002142	13.4457	112.569	-167.114	-0.064641	0.385111	-0.660937	-0.662287	-0.030817	13.4457	-0.659218	-5.416973E+8	5.688931E-11	NaN
1116	1.000000	0.394469	7.37597e+06	-55939.1	1055.82	-29740.3	0.000000	0.000000	6.394905	-0.024927	NaN	0.000000	0.001653	0.001738	28.0843	0.094340	0.001984	47.5605	-98.2665	-165.122	-0.015443	0.393117	-0.652929	-0.654281	-0.024927	47.5605	-0.652536	-4.387357E+8	5.681455E-11	NaN
1116	1.000000	0.402516	7.37597e+06	-55939.1	1055.82	-29740.3	0.000000	0.000000	6.402953	-0.001539	NaN	0.000000	0.001677	0.001803	28.0844	0.048629	0.002133	22.7969	105.258	-165.353	-0.012885	0.401145	-0.644882	-0.646253	-0.001539	22.7969	-0.644831	-3.440066E+8	4.475121E-12	NaN
1116	1.000000	0.410448	7.37597e+06	-55939.1	1055.82	-29740.3	0.000000	0.000000	6.410886	-0.001348	NaN	0.000000	0.001667	0.001782	28.0845	0.055135	0.001995	27.6387	-65.6417	-164.511	-0.020614	0.409136	-0.636950	-0.638262	-0.001348	27.6387	-0.636913	-2.678746E+8	5.033711E-12	NaN
1116	1.000000	0.418486	7.37597e+06	-55939.1	1055.82	-29740.3	0.000000	0.000000	6.418921	-0.063857	NaN	0.000000	0.001661	0.001750	28.0842	0.097424	0.001982	49.1628	83.2581	-166.929	-0.094745	0.417173	-0.628912	-0.630225	-0.063857	49.1628	-0.627938	-2.016995E+8	3.165947E-10	NaN
1116	1.000000	0.426490	7.37597e+06	-55939.1	1055.82	-29740.3	0.000000	0.000000	6.426927	-0.021991	NaN	0.000000	0.001674	0.001743	28.0842	0.051696	0.001827	28.2931	-121.861	-167.708	-0.024816	0.425189	-0.620908	-0.622209	-0.021991	28.2931	-0.620325	-1.585245E+8	1.387226E-10	NaN
1116	1.000000	0.434448	7.37597e+06	-55939.1	1055.82	-29740.3	0.000000	0.000000	6.434884	-0.037598	NaN	0.000000	0.001664	0.001714	28.0842	0.047298	0.001924	24.5888	74.9203	-166.165	0.008637	0.433146	-0.612950	-0.614252	-0.037598	24.5888	-0.611803	-1.210371E+8	3.106289E-10	NaN
1116	1.000000	0.442468	7.37597e+06	-55939.1	1055.82	-29740.3	0.000000	0.000000	6.442903	-0.060556	NaN	0.000000	0.001631	0.001743	28.0845	0.081908	0.001981	41.3513	86.2889	-165.736	-0.018717	0.441132	-0.604930	-0.606266	-0.060556	41.3513	-0.603832	-9.402119E+7	6.440721E-10	NaN
1116	1.000000	0.450465	7.37597e+06	-55939.1	1055.82	-29740.3	0.000000	0.000000	6.450904	0.027529	NaN	0.000000	0.001614	0.001743	28.0831	0.054654	0.001989	27.478	167.608	-169.872	0.027590	0.449193	-0.596933	-0.598205	0.027529	27.478	-0.597684	-7.736755E+7	-3.558177E-10	NaN
1116	1.000000	0.458454	7.37597e+06	-55939.1	1055.82	-29740.3	0.000000	0.000000	6.458891	-0.025417	NaN	0.000000	0.001578	0.001731	28.0833	0.098385	0.001961	50.1598	161.42	-163.797	0.007545	0.457168	-0.588944	-0.590230	-0.025417	50.1598	-0.588563	-5.792423E+7	4.387966E-10	NaN
1116	1.000000	0.466482	7.37597e+06	-55939.1	1055.82	-29740.3	0.000000	0.000000	6.466917	-0.053760	NaN	0.000000	0.001599	0.001733	28.0832	0.090790	0.001966	46.1903	-139.068	-166.65	-0.023532	0.465201	-0.580916	-0.582197	-0.053760	46.1903	-0.580043	-4.419020E+7	1.216563E-9	NaN
1116	1.000000	0.474476	7.37597e+06	-55939.1	1055.82	-29740.3	0.000000	0.000000	6.474913	-0.003638	NaN	0.000000	0.001604	0.001707	28.0833	0.068428	0.001869	36.6156	-15.5073	-169.663	-0.045205	0.473202	-0.572922	-0.574196	-0.003638	36.6156	-0.572847	-3.515337E+7	1.034972E-10	NaN
1116	1.000000	0.482497	7.37597e+06	-55939.1	1055.82	-29740.3	0.000000	0.000000	6.482931	-0.080914	NaN	0.000000	0.001579	0.001709	28.0843	0.008186	0.001911	4.284850	-82.056	-171.415	0.007493	0.481136	-0.564901	-0.566262	-0.080914	4.284850	-0.550738	-1.738536E+7	4.654119E-9	NaN
1116	1.000000	0.490488	7.37597e+06	-55939.1	1055.82	-29740.3	0.000000	0.000000	6.490926	0.017604	NaN	0.000000	0.001576	0.001752	28.0832	0.028213	0.001951	14.4624	162.583	-164.729	0.126217	0.489175	-0.556910	-0.558223	0.017604	14.4624	-0.557823	-2.178980E+7	-8.079151E-10	NaN
1116	1.000000	0.498508	7.37597e+06	-55939.1	1055.82	-29740.3	0.000000	0.000000	6.498943	-0.070593	NaN	0.000000	0.001595	0.001776	28.0834	0.041569	0.002054	20.2337	-71.7861	-166.951	-0.074164	0.497200	-0.548890	-0.550198	-0.070593	20.2337	-0.546273	-1.507718E+7	4.682114E-9	NaN
1116	1.000000	0.506518	7.37597e+06	-55939.1	1055.82	-29740.3	0.000000	0.000000	6.506952	-0.079379	NaN	0.000000	0.001548	0.001765	28.0834	0.058420	0.002154	27.1159	-163.19	-163.042	-0.141626	0.505142	-0.540880	-0.542256	-0.079379	27.1159	-0.538685	-1.183352E+7	6.707945E-9	NaN
1116	1.000000	0.514534	7.37597e+06	-55939.1	1055.82	-29740.3	0.000000	0.000000	6.514968	-0.075875	NaN	0.000000	0.001582	0.001734	28.0834	0.067782	0.002104	32.2157	143.61	-166.956	-0.128615	0.513208	-0.532864	-0.534190	-0.075875	32.2157	-0.531097	-9.28572e+06	8.171108E-9	NaN
1116	1.000000	0.522513	7.37597e+06	-55939.1	1055.82	-29740.3	0.000000	0.000000	6.522949	-0.042155	NaN	0.000000	0.001602	0.001718	28.0833	0.042168	0.001913	22.0379	-136.914	-167.039	-0.049864	0.521192	-0.524885	-0.526206	-0.042155	22.0379	-0.523450	-7.27053e+06	5.798124E-9	NaN
1116	1.000000	0.530518	7.37597e+06	-55939.1	1055.82	-29740.3	0.000000	0.000000	6.530955	-0.023452	NaN	0.000000	0.001609	0.001743	28.0833	0.074846	0.002024	36.9715	81.3619	-166.909	-0.055842	0.529262	-0.516880	-0.518136	-0.023452	36.9715	-0.516404	-5.80193e+06	4.042073E-9	NaN
1116	1.000000	0.538517	7.37597e+06	-55939.1	1055.82	-29740.3	0.000000	0.000000	6.538946	-0.190548	NaN	0.000000	0.001586	0.001748	28.0834	0.024891	0.001898	13.1159	-145.791	-167.986	-0.109612	0.537165	-0.508881	-0.510233	-0.190548	13.1159	-0.497985	-3.21295e+06	5.930629E-8	NaN
1116	1.000000	0.546543	7.37597e+06	-55939.1	1055.82	-29740.3	0.000000	0.000000	6.546981	0.021289	NaN	0.000000	0.001571	0.001716	28.0832	0.070624	0.001975	35.7681	-22.8888	-167.139	0.106665	0.545178	-0.500855	-0.502220	0.021289	35.7681	-0.501301	-3.57412e+06	-5.956341E-9	NaN
1116	1.000000	0.554517	7.37597e+06	-55939.1	1055.82	-29740.3	0.000000	0.000000	6.554952	-0.048716	NaN	0.000000	0.001565	0.001699	28.0833	0.015846	0.001905	8.319487	-154.817	-162.388	-0.025774	0.553186	-0.492881	-0.494212	-0.048716	8.319487	-0.488489	-2.36746e+06	2.057719E-8	NaN
1116	1.000000	0.562548	7.37597e+06	-55939.1	1055.82	-29740.3	0.000000	0.000000	6.562982	-0.069572	NaN	0.000000	0.001594	0.001717	28.0835	0.068807	0.001865	36.9029	130.63	-163.565	-0.086066	0.561186	-0.484850	-0.486212	-0.069572	36.9029	-0.483436	-2.01195e+06	3.457929E-8	NaN
1116	1.000000	0.570539	7.37597e+06	-55939.1	1055.82	-29740.3	0.000000	0.000000	6.570973	-0.085919	NaN	0.000000	0.001568	0.001736	28.0832	0.058586	0.002023	28.963	-178.402	-168.134	-0.066533	0.569216	-0.476859	-0.478182	-0.085919	28.963	-0.474634	-1.51484e+06	5.671818E-8	NaN
1116	1.000000	0.578552	7.37597e+06	-55939.1	1055.82	-29740.3	0.000000	0.000000	6.578988	-0.024043	NaN	0.000000	0.001590	0.001716	28.0842	0.070376	0.002093	33.6288	96.291	-164.535	-0.032639	0.577232	-0.468846	-0.470166	-0.024043	33.6288	-0.468310	-1.23511e+06	1.946593E-8	NaN
1116	1.000000	0.586528	7.37597e+06	-55939.1	1055.82	-29740.3	0.000000	0.000000	6.586964	-0.030350	NaN	0.000000	0.001552	0.001719	28.0847	0.025082	0.001892	13.259	-178.271	-162.368	-0.108314	0.585249	-0.460870	-0.462149	-0.030350	13.259	-0.459153	-918585	3.304049E-8	NaN
1116	1.000000	0.594522	7.37597e+06	-55939.1	1055.82	-29740.3	0.000000	0.000000	6.594958	-0.029773	NaN	0.000000	0.001607	0.001750	28.0846	0.055800	0.001997	27.9376	-105.197	-165.569	-0.053748	0.593214	-0.452876	-0.454184	-0.029773	27.9376	-0.452077	-730433	4.076025E-8	NaN
1116	1.000000	0.602535	7.37597e+06	-55939.1	1055.82	-29740.3	0.000000	0.000000	6.602973	0.024366	NaN	0.000000	0.001595	0.001750	28.0847	0.068226	0.001874	36.4009	-67.0292	-168.948	0.087434	0.601244	-0.444863	-0.446154	0.024366	36.4009	-0.445366	-587550	-4.147117E-8	NaN
1116	1.000000	0.610539	7.37597e+06	-55939.1	1055.82	-29740.3	0.000000	0.000000	6.610977	-0.000804	NaN	0.000000	0.001530	0.001736	28.0846	0.010325	0.001911	5.403886	115.274	-166.117	-0.024805	0.609225	-0.436859	-0.438173	-0.000804	5.403886	-0.436747	-444052	1.810893E-9	NaN
1116	1.000000	0.618561	7.37597e+06	-55939.1	1055.82	-29740.3	0.000000	0.000000	6.618997	-0.026192	NaN	0.000000	0.001524	0.001698	28.0851	0.114678	0.002080	55.1321	-130.509	-162.844	-0.020170	0.617226	-0.428837	-0.430172	-0.026192	55.1321	-0.428481	-339286	7.719746E-8	NaN
1116	1.000000	0.626586	7.37597e+06	-55939.1	1055.82	-29740.3	0.000000	0.000000	6.627021	-0.047111	NaN	0.000000	0.001570	0.001726	28.0845	0.057333	0.002034	28.1871	72.7859	-167.613	-0.017209	0.625264	-0.420812	-0.422134	-0.047111	28.1871	-0.419559	-253603	1.857651E-7	NaN
1116	1.000000	0.634558	7.37597e+06	-55939.1	1055.82	-29740.3	0.000000	0.000000	6.634991	-0.101474	NaN	0.000000	0.001563	0.001723	28.0846	0.078138	0.002031	38.4767	99.2812	-167.048	-0.140400	0.633261	-0.412840	-0.414137	-0.101474	38.4767	-0.410862	-190834	5.317397E-7	NaN
1116	1.000000	0.642573	7.37597e+06	-55939.1	1055.82	-29740.3	0.000000	0.000000	6.643010	-0.017389	NaN	0.000000	0.001549	0.001756	28.0846	0.188164	0.002007	93.7477	165.956	-165.942	-0.046118	0.641236	-0.404825	-0.406162	-0.017389	93.7477	-0.404686	-155873	1.115610E-7	NaN
1116	1.000000	0.650565	7.37597e+06	-55939.1	1055.82	-29740.3	0.000000	0.000000	6.651000	-0.051546	NaN	0.000000	0.001560	0.001739	28.0844	0.065592	0.002130	30.7937	37.1183	-165.259	-0.017233	0.649178	-0.396833	-0.398220	-0.051546	30.7937	-0.395577	-115579	4.459832E-7	NaN
1116	1.000000	0.658542	7.37597e+06	-55939.1	1055.82	-29740.3	0.000000	0.000000	6.658980	0.014902	NaN	0.000000	0.001564	0.001719	28.0847	0.052116	0.001972	26.4245	156.449	-167.171	-0.055775	0.657223	-0.388856	-0.390175	0.014902	26.4245	-0.389279	-93939.4	-1.586308E-7	NaN
1116	1.000000	0.666560	7.37597e+06	-55939.1	1055.82	-29740.3	0.000000	0.000000	6.666993	-0.116402	NaN	0.000000	0.001553	0.001741	28.0846	0.084261	0.001887	44.6468	27.6487	-162.751	-0.115713	0.665246	-0.380838	-0.382152	-0.116402	44.6468	-0.378882	-66656.6	1.746289E-6	NaN
1116	1.000000	0.674579	7.37597e+06	-55939.1	1055.82	-29740.3	0.000000	0.000000	6.675016	0.006405	NaN	0.000000	0.001537	0.001768	28.0847	0.022384	0.002101	10.6561	-72.3133	-166.896	0.006818	0.673315	-0.372819	-0.374083	0.006405	10.6561	-0.373270	-55359.8	-1.157054E-7	NaN
1116	1.000000	0.682578	7.37597e+06	-55939.1	1055.82	-29740.3	0.000000	0.000000	6.683016	-0.000984	NaN	0.000000	0.001572	0.001734	28.0844	0.065404	0.001939	33.7236	72.5285	-164.76	-0.042254	0.681234	-0.364820	-0.366164	-0.000984	33.7236	-0.364798	-41796.1	2.353472E-8	NaN
1116	1.000000	0.690566	7.37597e+06	-55939.1	1055.82	-29740.3	0.000000	0.000000	6.691000	-0.091429	NaN	0.000000	0.001541	0.001703	28.0844	0.117107	0.001907	61.3985	-174.587	-163.473	-0.044509	0.689258	-0.356832	-0.358140	-0.091429	61.3985	-0.355715	-30892.1	2.959630E-6	NaN
1116	1.000000	0.698574	7.37597e+06	-55939.1	1055.82	-29740.3	0.000000	0.000000	6.699009	-0.057233	NaN	0.000000	0.001600	0.001705	28.0845	0.032774	0.002060	15.91	-52.3739	-166.662	-0.029757	0.697284	-0.348824	-0.350114	-0.057233	15.91	-0.346126	-22424.7	2.552237E-6	NaN
1116	1.000000	0.706549	7.37597e+06	-55939.1	1055.82	-29740.3	0.000000	0.000000	6.706986	-0.010584	NaN	0.000000	0.001580	0.001752	28.0844	0.090086	0.002135	42.2011	31.3018	-163.647	-0.034716	0.705269	-0.340849	-0.342129	-0.010584	42.2011	-0.340660	-18671.5	5.668579E-7	NaN
1116	1.000000	0.714574	7.37597e+06	-55939.1	1055.82	-29740.3	0.000000	0.000000	6.715008	-0.085669	NaN	0.000000	0.001619	0.001714	28.0846	0.046144	0.002068	22.3153	-174.896	-165.09	-0.090898	0.713267	-0.332824	-0.334131	-0.085669	22.3153	-0.329945	-13021	6.579276E-6	NaN
1116	1.000000	0.722622	7.37597e+06	-55939.1	1055.82	-29740.3	0.000000	0.000000	6.723056	-0.071219	NaN	0.000000	0.001596	0.001721	28.0836	0.088423	0.001963	45.0368	-86.8623	-167.174	-0.056614	0.721237	-0.324776	-0.326161	-0.071219	45.0368	-0.323590	-10505.9	6.778972E-6	NaN
1116	1.000000	0.730588	7.37597e+06	-55939.1	1055.82	-29740.3	0.000000	0.000000	6.731024	-0.010666	NaN	0.000000	0.001582	0.001760	28.0832	0.027224	0.002096	12.9908	-126	-167.955	-0.026929	0.729258	-0.316810	-0.318140	-0.010666	12.9908	-0.316195	-8176.61	1.304413E-6	NaN
1116	1.000000	0.738601	7.37597e+06	-55939.1	1055.82	-29740.3	0.000000	0.000000	6.739037	-0.018545	NaN	0.000000	0.001590	0.001705	28.0832	0.135295	0.001907	70.9446	74.4772	-164.261	-0.032139	0.737286	-0.308797	-0.310112	-0.018545	70.9446	-0.308601	-6314.59	2.936850E-6	NaN
1116	1.000000	0.746607	7.37597e+06	-55939.1	1055.82	-29740.3	0.000000	0.000000	6.747043	-0.035935	NaN	0.000000	0.001587	0.001724	28.0831	0.060955	0.001941	31.3983	-178.265	-164.959	-0.004489	0.745243	-0.300791	-0.302155	-0.035935	31.3983	-0.299933	-4694.98	7.653946E-6	NaN
1116	1.000000	0.754654	7.37597e+06	-55939.1	1055.82	-29740.3	0.000000	0.000000	6.755090	-0.033193	NaN	0.000000	0.001607	0.001774	28.0832	0.079621	0.001969	40.4386	-83.9858	-166.172	-0.095495	0.753273	-0.292744	-0.294125	-0.033193	40.4386	-0.292129	-3590.65	9.244201E-6	NaN
1116	1.000000	0.762618	7.37597e+06	-55939.1	1055.82	-29740.3	0.000000	0.000000	6.763055	-0.008928	NaN	0.000000	0.001590	0.001778	28.0833	0.027738	0.001875	14.7951	-154.419	-164.1	-0.082983	0.761339	-0.284780	-0.286059	-0.008928	14.7951	-0.284327	-2742.54	3.255454E-6	NaN
1116	1.000000	0.770616	7.37597e+06	-55939.1	1055.82	-29740.3	0.000000	0.000000	6.771052	-0.022162	NaN	0.000000	0.001568	0.001721	28.0837	0.045282	0.002007	22.5669	-56.3974	-165.45	-0.075630	0.769317	-0.276782	-0.278081	-0.022162	22.5669	-0.276045	-2056.95	1.077423E-5	NaN
1116	1.000000	0.778636	7.37597e+06	-55939.1	1055.82	-29740.3	0.000000	0.000000	6.779071	-0.045574	NaN	0.000000	0.001564	0.001744	28.0833	0.018930	0.001924	9.839705	115.383	-168.137	-0.046986	0.777299	-0.268762	-0.270099	-0.045574	9.839705	-0.265288	-1411.85	3.227947E-5	NaN
1116	1.000000	0.786637	7.37597e+06	-55939.1	1055.82	-29740.3	0.000000	0.000000	6.787070	-0.096376	NaN	0.000000	0.001538	0.001728	28.0835	0.121415	0.001983	61.2401	138.378	-170.139	-0.101218	0.785265	-0.260761	-0.262133	-0.096376	61.2401	-0.259581	-1154.77	8.345921E-5	NaN
1116	1.000000	0.794648	7.37597e+06	-55939.1	1055.82	-29740.3	0.000000	0.000000	6.795086	0.008780	NaN	0.000000	0.001562	0.001746	28.0834	0.080498	0.001939	41.515	117.019	-166.628	-0.013830	0.793359	-0.252750	-0.254039	0.008780	41.515	-0.252909	-911.782	-9.629481E-6	NaN
1116	1.000000	0.802644	7.37597e+06	-55939.1	1055.82	-29740.3	0.000000	0.000000	6.803081	-0.001654	NaN	0.000000	0.001559	0.001798	28.0831	0.093951	0.002022	46.4629	9.737916	-162.745	0.004508	0.801306	-0.244754	-0.246092	-0.001654	46.4629	-0.244728	-681.116	2.428250E-6	NaN
1116	1.000000	0.810632	7.37597e+06	-55939.1	1055.82	-29740.3	0.000000	0.000000	6.811068	-0.044311	NaN	0.000000	0.001534	0.001728	28.0833	0.040217	0.001958	20.5429	121.174	-163.421	-0.018530	0.809318	-0.236766	-0.238080	-0.044311	20.5429	-0.235148	-482.583	9.181968E-5	NaN
1116	1.000000	0.818640	7.37597e+06	-55939.1	1055.82	-29740.3	0.000000	0.000000	6.819078	0.015718	NaN	0.000000	0.001563	0.001741	28.0831	0.061842	0.002052	30.1369	24.3062	-164.784	-0.067557	0.817331	-0.228758	-0.230067	0.015718	30.1369	-0.229149	-388.22	-4.048775E-5	NaN
1116	1.000000	0.826661	7.37597e+06	-55939.1	1055.82	-29740.3	0.000000	0.000000	6.827099	0.015223	NaN	0.000000	0.001554	0.001723	28.0836	0.090423	0.001967	45.9755	-30.3128	-163.616	0.011719	0.825337	-0.220737	-0.222061	0.015223	45.9755	-0.220985	-288.011	-5.285626E-5	NaN
1116	1.000000	0.834658	7.37597e+06	-55939.1	1055.82	-29740.3	0.000000	0.000000	6.835094	-0.039311	NaN	0.000000	0.001544	0.001758	28.0833	0.114668	0.002069	55.4098	134.456	-166.944	-0.065166	0.833350	-0.212740	-0.214048	-0.039311	55.4098	-0.212208	-208.217	0.000189	NaN
1116	1.000000	0.842663	7.37597e+06	-55939.1	1055.82	-29740.3	0.000000	0.000000	6.843098	-0.055259	NaN	0.000000	0.001568	0.001707	28.0834	0.044751	0.001939	23.0848	-42.918	-166.563	-0.110810	0.841297	-0.204735	-0.206101	-0.055259	23.0848	-0.202940	-147.198	0.000375	NaN
1116	1.000000	0.850645	7.37597e+06	-55939.1	1055.82	-29740.3	0.000000	0.000000	6.851082	-0.001954	NaN	0.000000	0.001521	0.001717	28.0834	0.046019	0.002030	22.6728	-155.747	-163.532	-0.105251	0.849370	-0.196753	-0.198028	-0.001954	22.6728	-0.196689	-116.182	1.682245E-5	NaN
1116	1.000000	0.858662	7.37597e+06	-55939.1	1055.82	-29740.3	0.000000	0.000000	6.859095	-0.085764	NaN	0.000000	0.001548	0.001736	28.0839	0.130265	0.001804	72.2078	45.4618	-162.348	-0.064837	0.857360	-0.188736	-0.190038	-0.085764	72.2078	-0.187846	-82.7886	0.001036	NaN
1116	1.000000	0.866682	7.37597e+06	-55939.1	1055.82	-29740.3	0.000000	0.000000	6.867117	-0.057483	NaN	0.000000	0.001526	0.001733	28.085	0.072529	0.001992	36.4139	-69.7239	-163.481	-0.060571	0.865371	-0.180716	-0.182027	-0.057483	36.4139	-0.179532	-59.9103	0.000959	NaN
1116	1.000000	0.874655	7.37597e+06	-55939.1	1055.82	-29740.3	0.000000	0.000000	6.875093	0.016841	NaN	0.000000	0.001561	0.001735	28.0845	0.019919	0.002019	9.863713	-13.1003	-166.158	-0.013023	0.873338	-0.172743	-0.174060	0.016841	9.863713	-0.174024	-48.2161	-0.000349	NaN
1116	1.000000	0.882637	7.37597e+06	-55939.1	1055.82	-29740.3	0.000000	0.000000	6.883070	-0.098369	NaN	0.000000	0.001562	0.001712	28.0846	0.085437	0.002018	42.339	-28.6606	-165.515	-0.043043	0.881335	-0.164761	-0.166063	-0.098369	42.339	-0.163019	-31.0054	0.003173	NaN
1116	1.000000	0.890678	7.37597e+06	-55939.1	1055.82	-29740.3	0.000000	0.000000	6.891116	0.009011	NaN	0.000000	0.001555	0.001713	28.0846	0.163285	0.001830	89.2224	25.3924	-165.3	0.057398	0.889307	-0.156720	-0.158091	0.009011	89.2224	-0.156796	-24.0338	-0.000375	NaN
1116	1.000000	0.898667	7.37597e+06	-55939.1	1055.82	-29740.3	0.000000	0.000000	6.899102	-0.071474	NaN	0.000000	0.001547	0.001765	28.0844	0.084990	0.001917	44.333	37.2529	-164.392	-0.032021	0.897336	-0.148731	-0.150062	-0.071474	44.333	-0.147521	-16.3171	0.004380	NaN
1116	1.000000	0.906685	7.37597e+06	-55939.1	1055.82	-29740.3	0.000000	0.000000	6.907120	-0.053500	NaN	0.000000	0.001571	0.001774	28.0846	0.060034	0.001989	30.1873	-45.0244	-163.355	-0.104507	0.905317	-0.140713	-0.142081	-0.053500	30.1873	-0.139384	-11.5183	0.004645	NaN
1116	1.000000	0.914640	7.37597e+06	-55939.1	1055.82	-29740.3	0.000000	0.000000	6.915074	-0.081381	NaN	0.000000	0.001553	0.001756	28.0844	0.040083	0.002083	19.247	-85.6874	-167.728	-0.108606	0.913369	-0.132758	-0.134029	-0.081381	19.247	-0.129587	-7.481256	0.010878	NaN
1116	1.000000	0.922661	7.37597e+06	-55939.1	1055.82	-29740.3	0.000000	0.000000	6.923095	-0.072146	NaN	0.000000	0.001581	0.001751	28.0849	0.116253	0.001969	59.0532	18.8046	-166.709	-0.096547	0.921366	-0.124737	-0.126032	-0.072146	59.0532	-0.123821	-5.762550	0.012520	NaN
1116	1.000000	0.930688	7.37597e+06	-55939.1	1055.82	-29740.3	0.000000	0.000000	6.931123	-0.058792	NaN	0.000000	0.001570	0.001728	28.0845	0.126225	0.002096	60.2143	53.9951	-169.06	-0.098308	0.929372	-0.116710	-0.118026	-0.058792	60.2143	-0.115978	-4.001535	0.014692	NaN
1116	1.000000	0.938686	7.37597e+06	-55939.1	1055.82	-29740.3	0.000000	0.000000	6.939122	-0.044106	NaN	0.000000	0.001584	0.001710	28.0844	0.139738	0.001861	75.0856	157.949	-166.451	-0.118929	0.937355	-0.108712	-0.110043	-0.044106	75.0856	-0.108271	-2.762276	0.015967	NaN
1116	1.000000	0.946714	7.37597e+06	-55939.1	1055.82	-29740.3	0.000000	0.000000	6.947148	-0.066494	NaN	0.000000	0.001551	0.001787	28.0843	0.081058	0.001966	41.2239	80.47	-163.434	0.015511	0.945411	-0.100684	-0.101987	-0.066494	41.2239	-0.099474	-1.778714	0.037383	NaN
1116	1.000000	0.954704	7.37597e+06	-55939.1	1055.82	-29740.3	0.000000	0.000000	6.955138	-0.083873	NaN	0.000000	0.001563	0.001790	28.0843	0.093193	0.002151	43.3242	-157.603	-166.307	-0.101727	0.953380	-0.092694	-0.094018	-0.083873	43.3242	-0.091242	-1.155690	0.072574	NaN
1116	1.000000	0.962679	7.37597e+06	-55939.1	1055.82	-29740.3	0.000000	0.000000	6.963114	-0.057133	NaN	0.000000	0.001562	0.001802	28.0848	0.092028	0.001921	47.9022	153.812	-163.395	-0.034703	0.961397	-0.084719	-0.086001	-0.057133	47.9022	-0.083824	-0.769345	0.074262	NaN
1116	1.000000	0.970701	7.37597e+06	-55939.1	1055.82	-29740.3	0.000000	0.000000	6.971137	-0.041101	NaN	0.000000	0.001551	0.001744	28.0844	0.049263	0.002086	23.6142	-34.7966	-167.6	0.006340	0.969420	-0.076697	-0.077978	-0.041101	23.6142	-0.075391	-0.472753	0.086939	NaN
1116	1.000000	0.978678	7.37597e+06	-55939.1	1055.82	-29740.4	0.000000	0.000000	6.979113	-0.051977	NaN	0.000000	0.001596	0.001780	28.0846	0.049191	0.001998	24.6175	130.582	-166.552	-0.044973	0.977425	-0.068720	-0.069973	-0.051977	24.6175	-0.067136	-0.285367	0.182141	NaN
1116	1.000000	0.986692	7.37597e+06	-55939.1	1055.82	-29740.4	0.000000	0.000000	6.987125	-0.116570	NaN	0.000000	0.001572	0.001755	28.0844	0.036620	0.002005	18.2679	47.9188	-166.071	-0.023852	0.985422	-0.060706	-0.061976	-0.116570	18.2679	-0.055920	-0.137076	0.850403	NaN
1116	1.000000	0.994710	7.37597e+06	-55939.1	1055.82	-29740.4	0.000000	0.000000	6.995147	-0.003254	NaN	0.000000	0.001555	0.001747	28.0841	0.121061	0.001934	62.591	166.993	-167.61	-0.047477	0.993398	-0.052688	-0.054000	-0.003254	62.591	-0.052649	-0.109631	0.029683	NaN
1116	1.000000	1.002708	7.37597e+06	-55939.1	1055.82	-29740.4	0.000000	0.000000	7.003144	-0.012456	NaN	0.000000	0.001598	0.001769	28.0832	0.108680	0.001953	55.6463	-29.249	-168.157	-0.040638	1.001361	-0.044690	-0.046037	-0.012456	55.6463	-0.044523	-0.062143	0.200447	NaN
1116	1.000000	1.010722	7.37597e+06	-55939.1	1055.82	-29740.4	0.000000	0.000000	7.011157	-0.042455	NaN	0.000000	0.001586	0.001721	28.0833	0.103339	0.002087	49.527	120.591	-169.646	0.075984	1.009402	-0.036676	-0.037996	-0.042455	49.527	-0.036033	-0.034359	1.235631	NaN
1116	1.000000	1.018730	7.37597e+06	-55939.1	1055.82	-29740.4	0.000000	0.000000	7.019167	-0.009736	NaN	0.000000	0.001538	0.001726	28.0832	0.193864	0.001955	99.1538	38.1276	-164.794	-0.036234	1.017377	-0.028668	-0.030021	-0.009736	99.1538	-0.028595	-0.021046	0.462615	NaN
1116	1.000000	1.026775	7.37597e+06	-55939.1	1055.82	-29740.4	0.000000	0.000000	7.027211	-0.032477	NaN	0.000000	0.001551	0.001769	28.0832	0.022131	0.002146	10.315	-114.637	-167.492	-0.040803	1.025376	-0.020623	-0.022022	-0.032477	10.315	-0.018262	-0.011338	2.864447	NaN
1116	1.000000	1.034694	7.37597e+06	-55939.1	1055.82	-29740.4	0.000000	0.000000	7.035158	0.665516	NaN	0.000000	0.001576	0.001749	28.0834	0.635852	0.001923	330.584	11.0392	-164.693	0.486619	1.033370	-0.012704	-0.014028	0.665516	330.584	-0.014214	-0.008809	-75.5483	NaN
1116	1.000000	1.042735	7.37597e+06	-55939.1	1055.82	-29740.4	0.000000	0.000000	7.043246	1.788113	NaN	0.000000	0.001607	0.001771	28.0831	1.342711	0.001972	681.052	11.187	-164.725	1.873734	1.041405	-0.004663	-0.005993	1.788113	681.052	-0.006633	-0.004420	-404.543	NaN
1116	1.000000	1.050722	7.37597e+06	-55939.1	1055.82	-29740.4	0.000000	0.000000	7.051303	3.491168	NaN	0.000000	0.001613	0.001748	28.0832	2.954943	0.001916	1542.29	12.0039	-165.188	2.955252	1.049357	0.003324	0.001959	3.491168	1542.29	0.001626	0.001255	2782.19	39778.3
1116	2.000000	1.056394	7.37597e+06	-55939.1	1055.82	-29740.4	0.000000	0.000000	7.057186	8.623474	NaN	0.000000	0.001608	0.001757	28.0834	8.023418	0.001654	4851.75	9.915954	-173.358	8.754852	1.056022	0.008996	0.008624	8.623474	4851.75	0.007663	0.006698	1287.48	54162.7
1116	2.000000	1.058389	7.37597e+06	-55939.1	1055.82	-29740.4	0.000000	0.000000	7.059302	11.5591	NaN	0.000000	0.001605	0.001705	28.0831	10.4721	0.001691	6191.79	8.611944	-173.438	11.803	1.058032	0.010991	0.010634	11.5591	6191.79	0.009591	0.008731	1323.99	60543.8
1116	2.000000	1.060323	7.37597e+06	-55939.1	1055.82	-29740.4	0.000000	0.000000	7.061319	13.5803	NaN	0.000000	0.001625	0.001769	28.0836	12.0063	0.001764	6805.84	7.639431	-174.115	13.099	1.060074	0.012925	0.012676	13.5803	6805.84	0.011428	0.010812	1256.02	59799.6
1116	2.000000	1.062358	7.37597e+06	-55939.1	1055.82	-29740.4	0.000000	0.000000	7.063404	14.7818	NaN	0.000000	0.001631	0.001716	28.0835	14.4616	0.001943	7442.82	8.299722	-175.004	14.7977	1.062038	0.014960	0.014640	14.7818	7442.82	0.013471	0.013300	1111.42	58963.9
1116	2.000000	1.064313	7.37597e+06	-55939.1	1055.82	-29740.4	0.000000	0.000000	7.065542	19.2481	NaN	0.000000	0.001647	0.001784	28.0832	16.0016	0.001789	8943.09	5.270532	-174.424	18.2754	1.064013	0.016914	0.016615	19.2481	8943.09	0.015300	0.015688	1226.94	65234.7
1116	2.000000	1.066287	7.37597e+06	-55939.1	1055.82	-29740.4	0.000000	0.000000	7.067683	23.2923	NaN	0.000000	0.001672	0.001764	28.0841	18.3686	0.001865	9849.95	8.323418	-177.919	22.5788	1.065961	0.018889	0.018563	23.2923	9849.95	0.017115	0.018211	1279.05	66687.5
1116	2.000000	1.068308	7.37597e+06	-55939.1	1055.82	-29740.4	0.000000	0.000000	7.069830	26.3723	NaN	0.000000	0.001622	0.001761	28.083	20.0254	0.001907	10500.3	4.862946	-173.755	25.9154	1.068031	0.020910	0.020633	26.3723	10500.3	0.019026	0.021035	1253.72	66145.6
1116	2.000000	1.070262	7.37597e+06	-55939.1	1055.82	-29740.4	0.000000	0.000000	7.071950	30.3885	NaN	0.000000	0.001621	0.001738	28.083	21.4791	0.001792	11982.8	5.028838	-175.729	29.2465	1.069968	0.022864	0.022570	30.3885	11982.8	0.020962	0.024077	1262.12	70555.2
1116	2.000000	1.072262	7.37597e+06	-55939.1	1055.82	-29740.4	0.000000	0.000000	7.074222	37.0023	NaN	0.000000	0.001628	0.001775	28.0828	23.5259	0.001734	13564.7	1.494288	-173.948	35.9435	1.071965	0.024864	0.024567	37.0023	13564.7	0.022818	0.027166	1362.07	75191.7
1116	2.000000	1.074240	7.37597e+06	-55939.1	1055.82	-29740.4	0.000000	0.000000	7.076381	41.4063	NaN	0.000000	0.001637	0.001727	28.0831	25.1168	0.001755	14309.8	3.885508	-175.93	39.6566	1.073931	0.026842	0.026533	41.4063	14309.8	0.024672	0.030421	1361.11	74958.3
1116	2.000000	1.076286	7.37597e+06	-55939.1	1055.82	-29740.4	0.000000	0.000000	7.078590	45.3851	NaN	0.000000	0.001637	0.001787	28.0856	27.923	0.001701	16415	6.152728	-179.629	45.5084	1.075958	0.028888	0.028560	45.3851	16415	0.026814	0.034399	1319.36	80861.1
1116	2.000000	1.078267	7.37597e+06	-55939.1	1055.82	-29740.4	0.000000	0.000000	7.080875	52.7615	NaN	0.000000	0.001632	0.001763	28.0843	30.0617	0.001798	16719.5	6.183284	-179.893	51.1906	1.078006	0.030869	0.030607	52.7615	16719.5	0.028502	0.037697	1399.63	78676.4
1116	2.000000	1.080256	7.37597e+06	-55939.1	1055.82	-29740.4	0.000000	0.000000	7.083052	57.3335	NaN	0.000000	0.001652	0.001778	28.0841	32.0724	0.001806	17754.7	5.532003	179.73	55.8783	1.079968	0.032858	0.032570	57.3335	17754.7	0.030436	0.041652	1376.48	79481.7
1116	2.000000	1.082281	7.37597e+06	-55939.1	1055.82	-29740.4	0.000000	0.000000	7.085348	63.9146	NaN	0.000000	0.001646	0.001777	28.0845	33.7556	0.001833	18420.1	5.304192	179.965	64.0499	1.081959	0.034883	0.034561	63.9146	18420.1	0.032281	0.045604	1401.51	78806.5
1116	2.000000	1.084226	7.37597e+06	-55939.1	1055.82	-29740.4	0.000000	0.000000	7.087599	71.3543	NaN	0.000000	0.001633	0.001791	28.0843	34.9739	0.001755	19931.9	3.142697	-178.503	70.9031	1.083942	0.036828	0.036544	71.3543	19931.9	0.034143	0.049769	1433.7	81628.5
1116	2.000000	1.086211	7.37597e+06	-55939.1	1055.82	-29740.4	0.000000	0.000000	7.089844	77.6667	NaN	0.000000	0.001643	0.001788	28.0847	37.8406	0.001790	21142	5.328950	178.621	75.8637	1.085858	0.038813	0.038460	77.6667	21142	0.036058	0.054238	1431.97	82940.8
1116	2.000000	1.088302	7.37597e+06	-55939.1	1055.82	-29740.4	0.000000	0.000000	7.092100	81.6865	NaN	0.000000	0.001616	0.001767	28.0845	39.7757	0.001736	22918.6	6.438502	177.25	83.7396	1.087984	0.040904	0.040586	81.6865	22918.6	0.038231	0.059536	1372.06	85816.8
1116	2.000000	1.090235	7.37597e+06	-55939.1	1055.82	-29740.4	0.000000	0.000000	7.094405	90.7251	NaN	0.000000	0.001570	0.001746	28.0842	41.1218	0.001783	23060	3.922792	179.344	87.9292	1.089925	0.042837	0.042527	90.7251	23060	0.039887	0.063736	1423.45	83452.7
1116	2.000000	1.092270	7.37597e+06	-55939.1	1055.82	-29740.4	0.000000	0.000000	7.096718	97.4926	NaN	0.000000	0.001560	0.001747	28.0845	43.3472	0.001742	24890.6	5.028818	176.711	98.4192	1.091990	0.044872	0.044592	97.4926	24890.6	0.041934	0.069123	1410.41	86496.1
1116	2.000000	1.094252	7.37597e+06	-55939.1	1055.82	-29740.4	0.000000	0.000000	7.099167	108.846	NaN	0.000000	0.001594	0.001751	28.0842	44.7675	0.001747	25627.4	6.940755	175.125	109.773	1.093902	0.046854	0.046504	108.846	25627.4	0.043668	0.073852	1473.84	86158.2
1116	2.000000	1.096168	7.37597e+06	-55939.1	1055.82	-29740.4	0.000000	0.000000	7.101485	118.615	NaN	0.000000	0.001568	0.001766	28.0847	46.9731	0.001702	27601.2	2.705564	179.051	114.801	1.095862	0.048770	0.048464	118.615	27601.2	0.045547	0.079147	1498.67	89636.4
1116	2.000000	1.098247	7.37597e+06	-55939.1	1055.82	-29740.4	0.000000	0.000000	7.103987	128.915	NaN	0.000000	0.001659	0.001783	28.0845	50.5323	0.001883	26833.2	8.941368	173.382	126.862	1.097881	0.050849	0.050483	128.915	26833.2	0.047245	0.084089	1533.07	84542.6
1116	2.000000	1.100202	7.37597e+06	-55939.1	1055.82	-29740.4	0.000000	0.000000	7.106415	140.379	NaN	0.000000	0.001675	0.001756	28.0843	50.7501	0.001656	30641.1	3.073369	177.41	136.978	1.099869	0.052804	0.052471	140.379	30641.1	0.049368	0.090470	1551.65	93073.2
1116	2.000000	1.102241	7.37597e+06	-55939.1	1055.82	-29740.4	0.000000	0.000000	7.108672	145.679	NaN	0.000000	0.001657	0.001756	28.0848	55.0032	0.001861	29558.8	2.843779	178.179	145.75	1.101991	0.054843	0.054593	145.679	29558.8	0.051147	0.095992	1517.62	87165.3
1116	2.000000	1.104205	7.37597e+06	-55939.1	1055.82	-29740.4	0.000000	0.000000	7.111106	157.102	NaN	0.000000	0.001667	0.001765	28.0843	55.7268	0.001787	31184.6	5.060465	175.205	154.23	1.103875	0.056807	0.056477	157.102	31184.6	0.053029	0.102005	1540.14	89208
1116	2.000000	1.106211	7.37597e+06	-55939.1	1055.82	-29740.4	0.000000	0.000000	7.113603	169.065	NaN	0.000000	0.001656	0.001748	28.0845	58.6223	0.001769	33137.8	5.889407	174.147	167	1.105800	0.058813	0.058402	169.065	33137.8	0.054986	0.108447	1558.97	91936.8
1116	2.000000	1.108204	7.37597e+06	-55939.1	1055.82	-29740.4	0.000000	0.000000	7.115902	176.494	NaN	0.000000	0.001647	0.001757	28.0844	60.0517	0.001798	33405	2.381495	177.606	174.89	1.107968	0.060806	0.060570	176.494	33405	0.056843	0.114732	1538.31	90103.7
1116	2.000000	1.110180	7.37597e+06	-55939.1	1055.82	-29740.4	0.000000	0.000000	7.118296	186.654	NaN	0.000000	0.001656	0.001735	28.0829	62.1861	0.001901	32714.6	3.800705	176.633	185.071	1.109878	0.062782	0.062480	186.654	32714.6	0.058503	0.120494	1549.07	86105.7
1116	2.000000	1.112244	7.37597e+06	-55939.1	1055.82	-29740.4	0.000000	0.000000	7.120797	197.288	NaN	0.000000	0.001612	0.001739	28.0838	64.1782	0.001778	36091.4	4.812475	174.364	198.483	1.111986	0.064846	0.064588	197.288	36091.4	0.060746	0.128496	1535.36	91988.1
1116	2.000000	1.114213	7.37597e+06	-55939.1	1055.82	-29740.4	0.000000	0.000000	7.123439	213.633	NaN	0.000000	0.001584	0.001726	28.083	64.8128	0.001805	35898.7	5.289664	175.114	216.315	1.113879	0.066815	0.066481	213.633	35898.7	0.062352	0.134375	1589.82	89473.1
1116	2.000000	1.116221	7.37597e+06	-55939.1	1055.82	-29740.4	0.000000	0.000000	7.126006	227.204	NaN	0.000000	0.001598	0.001755	28.0832	67.7824	0.001790	37876.6	5.717652	173.973	226.989	1.115850	0.068823	0.068452	227.204	37876.6	0.064324	0.141770	1602.62	91907.6
1116	2.000000	1.118132	7.37597e+06	-55939.1	1055.82	-29740.4	0.000000	0.000000	7.128505	241.52	NaN	0.000000	0.001604	0.001754	28.083	69.446	0.001914	36286.6	3.236145	176.56	235.091	1.117925	0.070734	0.070527	241.52	36286.6	0.065742	0.147200	1640.76	86410.2
1116	2.000000	1.120284	7.37597e+06	-55939.1	1055.82	-29740.4	0.000000	0.000000	7.131105	252.395	NaN	0.000000	0.001595	0.001730	28.083	71.3544	0.001792	39825.9	5.893307	172.495	253.626	1.119906	0.072886	0.072508	252.395	39825.9	0.068133	0.156576	1611.97	91955.2
1116	2.000000	1.122151	7.37597e+06	-55939.1	1055.82	-29740.4	0.000000	0.000000	7.133279	259.867	NaN	0.000000	0.001572	0.001742	28.0834	74.009	0.001793	41273.3	0.528856	177.428	256.713	1.121940	0.074753	0.074542	259.867	41273.3	0.070031	0.164213	1582.5	93054.8
1116	2.000000	1.124246	7.37597e+06	-55939.1	1055.82	-29740.4	0.000000	0.000000	7.135999	275.06	NaN	0.000000	0.001568	0.001757	28.0829	75.7421	0.001663	45549.9	6.109552	170.879	277.891	1.124014	0.076848	0.076616	275.06	45549.9	0.072319	0.173649	1584	99867.5
1116	2.000000	1.126214	7.37597e+06	-55939.1	1055.82	-29740.4	0.000000	0.000000	7.138687	292.561	NaN	0.000000	0.001598	0.001744	28.0833	78.2866	0.001782	43922.2	6.243746	172.137	293.646	1.125831	0.078815	0.078433	292.561	43922.2	0.073820	0.179973	1625.58	94591.9
1116	2.000000	1.128272	7.37597e+06	-55939.1	1055.82	-29740.4	0.000000	0.000000	7.141461	309.977	NaN	0.000000	0.001573	0.001752	28.0829	80.4387	0.001735	46375.2	9.666599	168.848	310.839	1.127723	0.080874	0.080325	309.977	46375.2	0.075861	0.188742	1642.33	97526.9
1116	2.000000	1.130151	7.37597e+06	-55939.1	1055.82	-29740.4	0.000000	0.000000	7.143765	320.302	NaN	0.000000	0.001599	0.001741	28.0828	80.3096	0.001733	46354.7	2.504047	174.976	315.305	1.129900	0.082753	0.082502	320.302	46354.7	0.077571	0.196241	1632.19	95603.2
1116	2.000000	1.132199	7.37597e+06	-55939.1	1055.82	-29740.4	0.000000	0.000000	7.145999	324.801	NaN	0.000000	0.001618	0.001720	28.0832	83.9275	0.001900	44178.1	4.091001	173.76	324.231	1.131988	0.084801	0.084590	324.801	44178.1	0.079287	0.203905	1592.9	89385.3
1116	2.000000	1.134133	7.37597e+06	-55939.1	1055.82	-29740.4	0.000000	0.000000	7.148898	348.264	NaN	0.000000	0.001597	0.001736	28.0829	84.0131	0.001754	47886.6	3.569588	173.611	345.398	1.133891	0.086735	0.086493	348.264	47886.6	0.081280	0.212978	1635.22	94802.5
1116	2.000000	1.136178	7.37597e+06	-55939.1	1055.82	-29740.4	0.000000	0.000000	7.151645	365.329	NaN	0.000000	0.001649	0.001752	28.0836	85.9883	0.001811	47476.1	6.062716	171.393	364.895	1.135856	0.088780	0.088458	365.329	47476.1	0.083009	0.220994	1653.12	92269.4
1116	2.000000	1.138282	7.37597e+06	-55939.1	1055.82	-29740.4	0.000000	0.000000	7.154318	379.166	NaN	0.000000	0.001577	0.001734	28.0831	88.247	0.001813	48671.8	7.128222	171.379	381.293	1.137741	0.090884	0.090343	379.166	48671.8	0.085041	0.230598	1644.28	92602.6
1116	2.000000	1.140118	7.37597e+06	-55939.1	1055.82	-29740.4	0.000000	0.000000	7.156591	389.806	NaN	0.000000	0.001563	0.001706	28.0831	89.0826	0.001700	52401.7	5.970546	170.794	387.637	1.139949	0.092720	0.092551	389.806	52401.7	0.087140	0.240718	1619.35	97580.8
1116	2.000000	1.142263	7.37597e+06	-55939.1	1055.82	-29740.4	0.000000	0.000000	7.159523	408.916	NaN	0.000000	0.001560	0.001734	28.0832	92.8026	0.001796	51679.6	3.265348	173.916	411.717	1.141874	0.094865	0.094476	408.916	51679.6	0.088930	0.249508	1638.89	94525.8
1116	2.000000	1.144124	7.37597e+06	-55939.1	1055.82	-29740.4	0.000000	0.000000	7.162181	428.301	NaN	0.000000	0.001603	0.001725	28.0843	93.3883	0.001868	49997.3	4.593747	173.103	426.969	1.143782	0.096726	0.096384	428.301	49997.3	0.090301	0.256337	1670.85	90222.5
1116	2.000000	1.146100	7.37597e+06	-55939.1	1055.82	-29740.4	0.000000	0.000000	7.164641	440.053	NaN	0.000000	0.001614	0.001728	28.0845	96.6153	0.001808	53440.3	5.564174	171.735	434.219	1.145777	0.098702	0.098379	440.053	53440.3	0.092527	0.267609	1644.38	94382.5
1116	2.000000	1.148134	7.37597e+06	-55939.1	1055.82	-29740.4	0.000000	0.000000	7.167390	457.419	NaN	0.000000	0.001575	0.001735	28.0843	98.7118	0.001902	51892.5	3.708983	173.922	453.423	1.147868	0.100736	0.100470	457.419	51892.5	0.094125	0.275848	1658.23	90269.8
1116	2.000000	1.150130	7.37597e+06	-55939.1	1055.82	-29740.4	0.000000	0.000000	7.169923	470.503	NaN	0.000000	0.001585	0.001746	28.0843	99.8768	0.001797	55581.9	3.935530	172.952	466.547	1.149705	0.102732	0.102307	470.503	55581.9	0.096383	0.287680	1635.51	94678.7
1116	2.000000	1.152171	7.37597e+06	-55939.1	1055.82	-29740.4	0.000000	0.000000	7.172635	486.808	NaN	0.000000	0.001568	0.001755	28.0841	102.411	0.001718	59608.5	1.253514	174.557	484.772	1.151871	0.104773	0.104473	486.808	59608.5	0.098648	0.299781	1623.88	99467
1116	2.000000	1.154068	7.37597e+06	-55939.1	1055.82	-29740.4	0.000000	0.000000	7.175306	505.62	NaN	0.000000	0.001568	0.001727	28.0842	102.972	0.001774	58043.4	0.966398	175.501	500.051	1.153854	0.106670	0.106456	505.62	58043.4	0.100136	0.307864	1642.35	95575.5