File: remote_trans/data/nanoindenter/0828-1/data/Data_2025-08-06,11h17m57s/2025-07-22_16-23-58_1_598.txt
2025-07-22, 16:23:58, 1
Index	Phase	Displacement	Time	Pos X	Pos Y	Pos Z	Rot A	Rot B	Piezo Z	Force A	Force B	Gripper	Voltage A	Voltage B	Temperature	Amplitude force	Amplitude pos	Stiffness	Phase shift	Phase excitation	Force A raw	Displacement raw	HMax	HMax raw	Real Force	Real Stiffness	Contact Depth	Area	Hardness	Reduced Mod.
[#]	[#]	[um]	[s]	[um]	[um]	[um]	[m°]	[m°]	[um]	[uN]	[uN]	[V]	[V]	[V]	[°C]	[uN]	[um]	[N/m]	[°]	[°]	[uN]	[um]	[um]	[um]	[uN]	[N/m]	[um]	[um^2]	[MPa]	[MPa]
598	1.000000	0.002701	7.3709e+06	-47189.1	1005.82	-29766.8	0.000000	0.000000	6.002801	-0.056969	NaN	0.000000	0.001569	0.001792	28.0791	0.061499	0.000974	63.1724	146.211	-171.963	-0.073365	0.001464	-1.126080	-1.127317	-0.056969	63.1724	-1.125404	-1.098924E+15	5.184057E-17	NaN
598	1.000000	0.012750	7.3709e+06	-47189.1	1005.82	-29766.8	0.000000	0.000000	6.012852	-0.019561	NaN	0.000000	0.001550	0.001782	28.0789	0.018052	0.001135	15.9003	113.501	19.6021	-0.015340	0.011336	-1.116031	-1.117444	-0.019561	15.9003	-1.115108	-7.995341E+14	2.446563E-17	NaN
598	1.000000	0.022663	7.3709e+06	-47189.1	1005.82	-29766.8	0.000000	0.000000	6.022763	-0.063881	NaN	0.000000	0.001606	0.001805	28.0788	0.074593	0.001554	47.9998	147.633	-166.198	0.033157	0.021366	-1.106118	-1.107415	-0.063881	47.9998	-1.105120	-5.872114E+14	1.087872E-16	NaN
598	1.000000	0.032640	7.3709e+06	-47189.1	1005.82	-29766.8	0.000000	0.000000	6.032737	-0.137247	NaN	0.000000	0.001621	0.001781	28.0789	0.024542	0.001813	13.5384	83.6806	12.2104	-0.081144	0.031314	-1.096141	-1.097466	-0.137247	13.5384	-1.088537	-3.516992E+14	3.902397E-16	NaN
598	1.000000	0.042641	7.3709e+06	-47189.1	1005.82	-29766.8	0.000000	0.000000	6.042744	-0.012570	NaN	0.000000	0.001578	0.001771	28.0789	0.055560	0.002096	26.5034	75.8303	-163.779	0.020057	0.041353	-1.086140	-1.087428	-0.012570	26.5034	-1.085784	-3.229954E+14	3.891765E-17	NaN
598	1.000000	0.052637	7.3709e+06	-47189.1	1005.82	-29766.8	0.000000	0.000000	6.052734	-0.140092	NaN	0.000000	0.001553	0.001806	28.0788	0.089245	0.002168	41.1564	45.7138	15.9612	-0.030395	0.051291	-1.076144	-1.077490	-0.140092	41.1564	-1.073591	-2.215267E+14	6.323936E-16	NaN
598	1.000000	0.062630	7.3709e+06	-47189.1	1005.82	-29766.8	0.000000	0.000000	6.062733	0.008494	NaN	0.000000	0.001543	0.001783	28.0788	0.091951	0.001979	46.465	-133.714	-164.29	-0.139337	0.061287	-1.066151	-1.067493	0.008494	46.465	-1.066288	-1.767342E+14	-4.806065E-17	NaN
598	1.000000	0.072647	7.3709e+06	-47189.1	1005.82	-29766.8	0.000000	0.000000	6.072746	-0.110798	NaN	0.000000	0.001548	0.001783	28.0788	0.126987	0.002172	58.4617	15.1305	15.1854	-0.141804	0.071357	-1.056133	-1.057424	-0.110798	58.4617	-1.054712	-1.235240E+14	8.969719E-16	NaN
598	1.000000	0.082650	7.3709e+06	-47189.1	1005.82	-29766.8	0.000000	0.000000	6.082749	-0.099683	NaN	0.000000	0.001546	0.001761	28.0791	0.045133	0.002048	22.0403	141.509	-165.934	-0.031833	0.081316	-1.046131	-1.047465	-0.099683	22.0403	-1.042739	-8.526940E+13	1.169040E-15	NaN
598	1.000000	0.092669	7.3709e+06	-47189.1	1005.82	-29766.8	0.000000	0.000000	6.092771	-0.038887	NaN	0.000000	0.001561	0.001767	28.0789	0.051466	0.002050	25.1075	-147.535	14.6643	-0.068026	0.091326	-1.036111	-1.037455	-0.038887	25.1075	-1.034950	-6.699688E+13	5.804258E-16	NaN
598	1.000000	0.102653	7.3709e+06	-47189.1	1005.82	-29766.8	0.000000	0.000000	6.102754	-0.036273	NaN	0.000000	0.001547	0.001750	28.0791	0.088835	0.001908	46.5602	54.512	-166.303	-0.106067	0.101345	-1.026128	-1.027436	-0.036273	46.5602	-1.025544	-5.006525E+13	7.245198E-16	NaN
598	1.000000	0.112675	7.3709e+06	-47189.1	1005.82	-29766.8	0.000000	0.000000	6.112776	-0.045180	NaN	0.000000	0.001515	0.001777	28.0802	0.123412	0.001940	63.6269	-101.925	14.2293	0.040645	0.111284	-1.016106	-1.017497	-0.045180	63.6269	-1.015573	-3.676071E+13	1.229026E-15	NaN
598	1.000000	0.122688	7.3709e+06	-47189.1	1005.82	-29766.8	0.000000	0.000000	6.122787	-0.082305	NaN	0.000000	0.001498	0.001817	28.0806	0.034825	0.001997	17.4355	-126.122	-166.098	-0.026379	0.121334	-1.006093	-1.007447	-0.082305	17.4355	-1.002553	-2.455479E+13	3.351882E-15	NaN
598	1.000000	0.132676	7.3709e+06	-47189.1	1005.82	-29766.8	0.000000	0.000000	6.132776	-0.062504	NaN	0.000000	0.001524	0.001801	28.0801	0.084514	0.002018	41.8791	-94.0911	14.3087	0.020003	0.131303	-0.996105	-0.997478	-0.062504	41.8791	-0.994985	-1.942002E+13	3.218539E-15	NaN
598	1.000000	0.142701	7.3709e+06	-47189.1	1005.82	-29766.8	0.000000	0.000000	6.142803	-0.006617	NaN	0.000000	0.001537	0.001778	28.0805	0.078981	0.001913	41.2772	156.35	-165.362	-0.113007	0.141338	-0.986080	-0.987443	-0.006617	41.2772	-0.985960	-1.467889E+13	4.508071E-16	NaN
598	1.000000	0.152668	7.3709e+06	-47189.1	1005.82	-29766.8	0.000000	0.000000	6.152769	-0.050292	NaN	0.000000	0.001526	0.001804	28.0803	0.010698	0.002021	5.294486	-175.396	13.9506	-0.063988	0.151343	-0.976113	-0.977438	-0.050292	5.294486	-0.968989	-8.670321E+12	5.800452E-15	NaN
598	1.000000	0.162679	7.3709e+06	-47189.1	1005.82	-29766.8	0.000000	0.000000	6.162781	-0.021329	NaN	0.000000	0.001538	0.001785	28.0806	0.010797	0.002078	5.195056	-49.642	-162.232	-0.072848	0.161399	-0.966102	-0.967382	-0.021329	5.195056	-0.963022	-7.204652E+12	2.960430E-15	NaN
598	1.000000	0.172706	7.3709e+06	-47189.1	1005.82	-29766.8	0.000000	0.000000	6.172807	-0.034488	NaN	0.000000	0.001505	0.001808	28.0801	0.090342	0.002067	43.7053	-29.6063	15.1192	-0.039774	0.171327	-0.956075	-0.957454	-0.034488	43.7053	-0.955483	-5.701214E+12	6.049250E-15	NaN
598	1.000000	0.182696	7.3709e+06	-47189.1	1005.82	-29766.8	0.000000	0.000000	6.182794	-0.118387	NaN	0.000000	0.001515	0.001819	28.0806	0.066077	0.002003	32.9818	-38.6082	-164.264	-0.102682	0.181394	-0.946085	-0.947387	-0.118387	32.9818	-0.943393	-3.916592E+12	3.022698E-14	NaN
598	1.000000	0.192696	7.3709e+06	-47189.1	1005.82	-29766.8	0.000000	0.000000	6.192798	-0.011285	NaN	0.000000	0.001560	0.001770	28.0804	0.042604	0.002039	20.8904	81.7145	16.8997	0.032884	0.191327	-0.936085	-0.937454	-0.011285	20.8904	-0.935680	-3.082118E+12	3.661406E-15	NaN
598	1.000000	0.202708	7.3709e+06	-47189.1	1005.82	-29766.8	0.000000	0.000000	6.202809	-0.048111	NaN	0.000000	0.001502	0.001819	28.0804	0.095038	0.002080	45.6903	131.574	-162.849	0.011256	0.201412	-0.926073	-0.927369	-0.048111	45.6903	-0.925283	-2.231134E+12	2.156339E-14	NaN
598	1.000000	0.212725	7.3709e+06	-47189.1	1005.82	-29766.8	0.000000	0.000000	6.212824	-0.094550	NaN	0.000000	0.001511	0.001811	28.0802	0.076229	0.001938	39.3346	-43.4398	17.2133	0.031585	0.211348	-0.916056	-0.917432	-0.094550	39.3346	-0.914253	-1.583451E+12	5.971165E-14	NaN
598	1.000000	0.222728	7.3709e+06	-47189.1	1005.82	-29766.8	0.000000	0.000000	6.222829	-0.040362	NaN	0.000000	0.001497	0.001796	28.0803	0.060262	0.002023	29.7848	176.743	-166.74	-0.082857	0.221445	-0.906053	-0.907336	-0.040362	29.7848	-0.905037	-1.188832E+12	3.395056E-14	NaN
598	1.000000	0.232737	7.3709e+06	-47189.1	1005.82	-29766.8	0.000000	0.000000	6.232840	-0.006742	NaN	0.000000	0.001512	0.001820	28.0803	0.008301	0.001988	4.174490	22.9615	13.6525	0.029436	0.231331	-0.896043	-0.897450	-0.006742	4.174490	-0.894832	-8.654221E+11	7.790430E-15	NaN
598	1.000000	0.242729	7.3709e+06	-47189.1	1005.82	-29766.8	0.000000	0.000000	6.242831	-0.033828	NaN	0.000000	0.001517	0.001807	28.0804	0.059572	0.001915	31.1092	173.893	-167.017	0.095259	0.241460	-0.886052	-0.887320	-0.033828	31.1092	-0.885236	-6.419632E+11	5.269500E-14	NaN
598	1.000000	0.252740	7.3709e+06	-47189.1	1005.82	-29766.8	0.000000	0.000000	6.252840	-0.071211	NaN	0.000000	0.001526	0.001796	28.0792	0.111653	0.002016	55.3761	-91.5179	17.949	-0.060404	0.251329	-0.876040	-0.877451	-0.071211	55.3761	-0.875076	-4.678535E+11	1.522081E-13	NaN
598	1.000000	0.262748	7.3709e+06	-47189.1	1005.82	-29766.8	0.000000	0.000000	6.262849	-0.036588	NaN	0.000000	0.001518	0.001808	28.0794	0.047499	0.002043	23.2489	-112.508	-166.999	0.011150	0.261425	-0.866033	-0.867356	-0.036588	23.2489	-0.864853	-3.402503E+11	1.075325E-13	NaN
598	1.000000	0.272738	7.3709e+06	-47189.1	1005.82	-29766.8	0.000000	0.000000	6.272840	-0.012706	NaN	0.000000	0.001541	0.001830	28.0791	0.056410	0.002101	26.8452	13.8944	12.181	-0.094262	0.271340	-0.856043	-0.857441	-0.012706	26.8452	-0.855688	-2.557095E+11	4.969024E-14	NaN
598	1.000000	0.282753	7.3709e+06	-47189.1	1005.82	-29766.8	0.000000	0.000000	6.282856	0.003750	NaN	0.000000	0.001529	0.001798	28.0793	0.079050	0.001997	39.5788	-41.9624	-162.792	0.028099	0.281372	-0.846028	-0.847409	0.003750	39.5788	-0.846099	-1.896317E+11	-1.977446E-14	NaN
598	1.000000	0.292742	7.3709e+06	-47189.1	1005.82	-29766.8	0.000000	0.000000	6.292842	-0.068560	NaN	0.000000	0.001540	0.001807	28.0794	0.074867	0.002022	37.0261	-176.045	15.7912	-0.018700	0.291382	-0.836039	-0.837399	-0.068560	37.0261	-0.834651	-1.326818E+11	5.167236E-13	NaN
598	1.000000	0.302764	7.3709e+06	-47189.1	1005.82	-29766.8	0.000000	0.000000	6.302865	-0.050815	NaN	0.000000	0.001527	0.001826	28.0794	0.036935	0.001833	20.1486	99.5144	-164.192	-0.017266	0.301434	-0.826017	-0.827347	-0.050815	20.1486	-0.824125	-9.553139E+10	5.319153E-13	NaN
598	1.000000	0.312753	7.3709e+06	-47189.1	1005.82	-29766.8	0.000000	0.000000	6.312853	-0.069644	NaN	0.000000	0.001506	0.001814	28.0789	0.072287	0.001952	37.0357	-137.405	21.0379	-0.066891	0.311372	-0.816028	-0.817409	-0.069644	37.0357	-0.814618	-7.099297E+10	9.809919E-13	NaN
598	1.000000	0.322730	7.3709e+06	-47189.1	1005.82	-29766.8	0.000000	0.000000	6.322832	-0.031941	NaN	0.000000	0.001535	0.001834	28.0791	0.070205	0.002097	33.4857	-4.106552	-164.628	-0.031843	0.321433	-0.806051	-0.807348	-0.031941	33.4857	-0.805335	-5.312219E+10	6.012700E-13	NaN
598	1.000000	0.332769	7.3709e+06	-47189.1	1005.82	-29766.8	0.000000	0.000000	6.332871	-0.032173	NaN	0.000000	0.001540	0.001787	28.0791	0.046594	0.001947	23.9258	-88.61	14.6577	-0.082197	0.331447	-0.796011	-0.797334	-0.032173	23.9258	-0.795003	-3.846105E+10	8.365039E-13	NaN
598	1.000000	0.342785	7.3709e+06	-47189.1	1005.82	-29766.8	0.000000	0.000000	6.342886	-0.034614	NaN	0.000000	0.001567	0.001782	28.0791	0.025664	0.002070	12.3953	119.668	-165.772	0.035309	0.341457	-0.785996	-0.787324	-0.034614	12.3953	-0.783901	-2.717956E+10	1.273529E-12	NaN
598	1.000000	0.352784	7.3709e+06	-47189.1	1005.82	-29766.8	0.000000	0.000000	6.352886	-0.022071	NaN	0.000000	0.001565	0.001773	28.0792	0.060688	0.002045	29.6807	159.823	14.219	-0.040937	0.351411	-0.775997	-0.777370	-0.022071	29.6807	-0.775439	-2.085674E+10	1.058213E-12	NaN
598	1.000000	0.362790	7.3709e+06	-47189.1	1005.82	-29766.8	0.000000	0.000000	6.362891	-0.048909	NaN	0.000000	0.001551	0.001770	28.079	0.103774	0.002086	49.7532	53.8311	-166.61	-0.011534	0.361415	-0.765990	-0.767366	-0.048909	49.7532	-0.765253	-1.516203E+10	3.225766E-12	NaN
598	1.000000	0.372812	7.3709e+06	-47189.1	1005.82	-29766.8	0.000000	0.000000	6.372914	-0.024169	NaN	0.000000	0.001590	0.001766	28.0792	0.117580	0.002103	55.9212	-149.217	15.3386	-0.026533	0.371422	-0.755969	-0.757359	-0.024169	55.9212	-0.755645	-1.122131E+10	2.153885E-12	NaN
598	1.000000	0.382801	7.3709e+06	-47189.1	1005.82	-29766.8	0.000000	0.000000	6.382900	-0.093908	NaN	0.000000	0.001547	0.001762	28.0797	0.067584	0.001946	34.7359	-24.1367	-165.404	-0.107270	0.381492	-0.745980	-0.747288	-0.093908	34.7359	-0.743952	-7.778152E+9	1.207336E-11	NaN
598	1.000000	0.392797	7.3709e+06	-47189.1	1005.82	-29766.8	0.000000	0.000000	6.392897	-0.080906	NaN	0.000000	0.001558	0.001795	28.0803	0.054754	0.002063	26.5442	-41.2437	16.0787	-0.038518	0.391440	-0.735983	-0.737341	-0.080906	26.5442	-0.733697	-5.638905E+9	1.434777E-11	NaN
598	1.000000	0.402812	7.3709e+06	-47189.1	1005.82	-29766.8	0.000000	0.000000	6.402913	-0.037853	NaN	0.000000	0.001577	0.001810	28.0803	0.034519	0.001906	18.1067	55.1356	-163.514	-0.011786	0.401526	-0.725969	-0.727255	-0.037853	18.1067	-0.724401	-4.211946E+9	8.987019E-12	NaN
598	1.000000	0.412768	7.3709e+06	-47189.1	1005.82	-29766.8	0.000000	0.000000	6.412867	-0.086927	NaN	0.000000	0.001552	0.001795	28.08	0.113376	0.001906	59.4705	-157.897	13.81	-0.077101	0.411395	-0.716013	-0.717386	-0.086927	59.4705	-0.714916	-3.127035E+9	2.779862E-11	NaN
598	1.000000	0.422797	7.3709e+06	-47189.1	1005.82	-29766.8	0.000000	0.000000	6.422898	-0.043747	NaN	0.000000	0.001556	0.001783	28.0799	0.075087	0.001913	39.2571	126.711	-163.382	-0.055921	0.421484	-0.705984	-0.707297	-0.043747	39.2571	-0.705148	-2.300528E+9	1.901599E-11	NaN
598	1.000000	0.432792	7.3709e+06	-47189.1	1005.82	-29766.8	0.000000	0.000000	6.432895	-0.000747	NaN	0.000000	0.001546	0.001806	28.0802	0.048277	0.002083	23.182	-156.679	10.5798	-0.008566	0.431429	-0.695988	-0.697352	-0.000747	23.182	-0.695964	-1.723490E+9	4.336287E-13	NaN
598	1.000000	0.442811	7.3709e+06	-47189.1	1005.82	-29766.8	0.000000	0.000000	6.442914	0.000825	NaN	0.000000	0.001562	0.001779	28.0803	0.094260	0.001882	50.0842	-179.788	-166.177	-0.013191	0.441548	-0.685970	-0.687233	0.000825	50.0842	-0.685982	-1.258939E+9	-6.552890E-13	NaN
598	1.000000	0.452825	7.3709e+06	-47189.1	1005.82	-29766.8	0.000000	0.000000	6.452924	-0.089857	NaN	0.000000	0.001549	0.001808	28.08	0.116152	0.002036	57.0368	-177.857	15.8637	-0.045101	0.451474	-0.675956	-0.677306	-0.089857	57.0368	-0.674775	-8.845589E+8	1.015838E-10	NaN
598	1.000000	0.462803	7.3709e+06	-47189.1	1005.82	-29766.8	0.000000	0.000000	6.462905	-0.033222	NaN	0.000000	0.001586	0.001764	28.0801	0.122911	0.002052	59.9116	-20.1523	-166.271	-0.085758	0.461510	-0.665978	-0.667271	-0.033222	59.9116	-0.665562	-6.616581E+8	5.021044E-11	NaN
598	1.000000	0.472809	7.3709e+06	-47189.1	1005.82	-29766.8	0.000000	0.000000	6.472909	-0.071791	NaN	0.000000	0.001577	0.001787	28.0801	0.020950	0.002005	10.4472	174.539	14.3434	-0.067159	0.471443	-0.655972	-0.657338	-0.071791	10.4472	-0.650818	-4.155795E+8	1.727483E-10	NaN
598	1.000000	0.482840	7.3709e+06	-47189.1	1005.82	-29766.8	0.000000	0.000000	6.482940	-0.070776	NaN	0.000000	0.001568	0.001775	28.0802	0.040713	0.002086	19.5167	-46.3979	-165.414	-0.040369	0.481553	-0.645941	-0.647228	-0.070776	19.5167	-0.643221	-3.269484E+8	2.164753E-10	NaN
598	1.000000	0.492775	7.3709e+06	-47189.1	1005.82	-29766.8	0.000000	0.000000	6.492875	-0.078583	NaN	0.000000	0.001602	0.001780	28.0802	0.099457	0.002043	48.6843	-88.9833	16.5731	-0.044345	0.491465	-0.636005	-0.637316	-0.078583	48.6843	-0.634795	-2.505274E+8	3.136711E-10	NaN
598	1.000000	0.502848	7.3709e+06	-47189.1	1005.82	-29766.8	0.000000	0.000000	6.502947	-0.099096	NaN	0.000000	0.001558	0.001755	28.0801	0.044047	0.002093	21.0418	16.0013	-165.976	-0.155963	0.501547	-0.625933	-0.627233	-0.099096	21.0418	-0.622401	-1.692898E+8	5.853617E-10	NaN
598	1.000000	0.512837	7.3709e+06	-47189.1	1005.82	-29766.8	0.000000	0.000000	6.512939	-0.031883	NaN	0.000000	0.001529	0.001784	28.0806	0.112596	0.001812	62.15	102.498	13.401	-0.036980	0.511473	-0.615944	-0.617308	-0.031883	62.15	-0.615559	-1.363252E+8	2.338726E-10	NaN
598	1.000000	0.522854	7.3709e+06	-47189.1	1005.82	-29766.8	0.000000	0.000000	6.522956	-0.030429	NaN	0.000000	0.001594	0.001790	28.0789	0.054349	0.001981	27.4395	-17.8289	-165.474	-0.002451	0.521548	-0.605927	-0.607233	-0.030429	27.4395	-0.605095	-9.786114E+7	3.109371E-10	NaN
598	1.000000	0.532822	7.3709e+06	-47189.1	1005.82	-29766.8	0.000000	0.000000	6.532921	-0.089759	NaN	0.000000	0.001552	0.001784	28.0789	0.048222	0.001987	24.2651	-162.73	15.9734	-0.197286	0.531511	-0.595959	-0.597270	-0.089759	24.2651	-0.593184	-6.707517E+7	1.338192E-9	NaN
598	1.000000	0.542863	7.3709e+06	-47189.1	1005.82	-29766.8	0.000000	0.000000	6.542964	-0.045887	NaN	0.000000	0.001543	0.001772	28.0786	0.057645	0.001987	29.0055	-145.633	-166.987	-0.010032	0.541544	-0.585918	-0.587237	-0.045887	29.0055	-0.584731	-5.128735E+7	8.947114E-10	NaN
598	1.000000	0.552849	7.3709e+06	-47189.1	1005.82	-29766.8	0.000000	0.000000	6.552951	-0.017387	NaN	0.000000	0.001540	0.001834	28.079	0.092389	0.001994	46.3403	70.3808	11.3465	-0.051011	0.551552	-0.575932	-0.577228	-0.017387	46.3403	-0.575650	-3.843077E+7	4.524213E-10	NaN
598	1.000000	0.562843	7.3709e+06	-47189.1	1005.82	-29766.8	0.000000	0.000000	6.562945	-0.029336	NaN	0.000000	0.001547	0.001793	28.0789	0.045694	0.001886	24.2267	142.14	-166.074	-0.049200	0.561530	-0.565938	-0.567251	-0.029336	24.2267	-0.565030	-2.741156E+7	1.070195E-9	NaN
598	1.000000	0.572852	7.3709e+06	-47189.1	1005.82	-29766.8	0.000000	0.000000	6.572953	-0.040650	NaN	0.000000	0.001576	0.001771	28.0791	0.005171	0.002061	2.509054	-108.054	13.8579	-0.026672	0.571504	-0.555929	-0.557276	-0.040650	2.509054	-0.543778	-1.392323E+7	2.919553E-9	NaN
598	1.000000	0.582881	7.3709e+06	-47189.1	1005.82	-29766.8	0.000000	0.000000	6.582981	-0.062842	NaN	0.000000	0.001549	0.001820	28.0791	0.072381	0.001915	37.7988	-112.661	-164.729	-0.009120	0.581571	-0.545900	-0.547210	-0.062842	37.7988	-0.544653	-1.431752E+7	4.389134E-9	NaN
598	1.000000	0.592920	7.3709e+06	-47189.1	1005.82	-29766.8	0.000000	0.000000	6.593022	-0.034068	NaN	0.000000	0.001565	0.001812	28.079	0.082997	0.001967	42.1861	139.516	15.8003	-0.053641	0.591589	-0.535860	-0.537192	-0.034068	42.1861	-0.535255	-1.060534E+7	3.212315E-9	NaN
598	1.000000	0.602857	7.3709e+06	-47189.1	1005.82	-29766.8	0.000000	0.000000	6.602960	0.004779	NaN	0.000000	0.001496	0.001809	28.0791	0.136387	0.002061	66.1876	121.129	-167.791	-0.049927	0.601613	-0.525924	-0.527168	0.004779	66.1876	-0.525978	-7.88323e+06	-6.061859E-10	NaN
598	1.000000	0.612847	7.3709e+06	-47189.1	1005.82	-29766.8	0.000000	0.000000	6.612946	-0.107224	NaN	0.000000	0.001485	0.001777	28.0791	0.036762	0.002028	18.1279	-21.3845	14.9313	-0.098028	0.611536	-0.515933	-0.517245	-0.107224	18.1279	-0.511497	-4.95757e+06	2.162831E-8	NaN
598	1.000000	0.622851	7.3709e+06	-47189.1	1005.82	-29766.8	0.000000	0.000000	6.622951	-0.079763	NaN	0.000000	0.001500	0.001790	28.0791	0.003935	0.002087	1.885767	68.6383	-167.737	-0.116629	0.621629	-0.505930	-0.507152	-0.079763	1.885767	-0.474207	-1.49411e+06	5.338458E-8	NaN
598	1.000000	0.632890	7.3709e+06	-47189.1	1005.82	-29766.8	0.000000	0.000000	6.632987	-0.142080	NaN	0.000000	0.001545	0.001812	28.0789	0.065333	0.001936	33.7404	165.149	14.1987	-0.142888	0.631554	-0.495891	-0.497227	-0.142080	33.7404	-0.492732	-2.71373e+06	5.235618E-8	NaN
598	1.000000	0.642916	7.3709e+06	-47189.1	1005.82	-29766.8	0.000000	0.000000	6.643018	-0.003256	NaN	0.000000	0.001548	0.001849	28.0789	0.049731	0.001943	25.5941	-86.6033	-166.291	-0.023986	0.641586	-0.485865	-0.487195	-0.003256	25.5941	-0.485770	-2.16899e+06	1.501122E-9	NaN
598	1.000000	0.652892	7.3709e+06	-47189.1	1005.82	-29766.8	0.000000	0.000000	6.652991	-0.085065	NaN	0.000000	0.001495	0.001839	28.079	0.127604	0.002076	61.4682	-133.655	14.8966	-0.094164	0.651595	-0.475889	-0.477186	-0.085065	61.4682	-0.474851	-1.52551e+06	5.576170E-8	NaN
598	1.000000	0.662886	7.3709e+06	-47189.1	1005.82	-29766.8	0.000000	0.000000	6.662986	-0.075252	NaN	0.000000	0.001538	0.001805	28.0804	0.052045	0.001870	27.8288	-114.361	-162.978	-0.061395	0.661618	-0.465895	-0.467163	-0.075252	27.8288	-0.463867	-1.06988e+06	7.033668E-8	NaN
598	1.000000	0.672937	7.3709e+06	-47189.1	1005.82	-29766.8	0.000000	0.000000	6.673035	-0.103872	NaN	0.000000	0.001510	0.001778	28.0802	0.056570	0.001825	30.992	-148.146	15.4564	-0.077463	0.671544	-0.455844	-0.457237	-0.103872	30.992	-0.453330	-760724	1.365434E-7	NaN
598	1.000000	0.682914	7.3709e+06	-47189.1	1005.82	-29766.8	0.000000	0.000000	6.683012	-0.122113	NaN	0.000000	0.001515	0.001763	28.0804	0.110621	0.002081	53.1598	-31.9576	-164.771	-0.133898	0.681601	-0.445866	-0.447180	-0.122113	53.1598	-0.444144	-564701	2.162431E-7	NaN
598	1.000000	0.692919	7.3709e+06	-47189.1	1005.82	-29766.8	0.000000	0.000000	6.693020	-0.049635	NaN	0.000000	0.001509	0.001781	28.0803	0.052968	0.002052	25.8107	-95.5453	13.9734	-0.022746	0.691607	-0.435862	-0.437174	-0.049635	25.8107	-0.434419	-411670	1.205699E-7	NaN
598	1.000000	0.702937	7.3709e+06	-47189.1	1005.82	-29766.8	0.000000	0.000000	6.703038	-0.029174	NaN	0.000000	0.001502	0.001779	28.0808	0.075046	0.001882	39.8667	112.273	-166.428	-0.018212	0.701637	-0.425844	-0.427143	-0.029174	39.8667	-0.425295	-305818	9.539599E-8	NaN
598	1.000000	0.712934	7.3709e+06	-47189.1	1005.82	-29766.8	0.000000	0.000000	6.713034	-0.070935	NaN	0.000000	0.001601	0.001810	28.0801	0.052600	0.001940	27.1137	109.016	14.6869	-0.101864	0.711575	-0.415847	-0.417206	-0.070935	27.1137	-0.413885	-210675	3.367046E-7	NaN
598	1.000000	0.722935	7.3709e+06	-47189.1	1005.82	-29766.8	0.000000	0.000000	6.723035	-0.057347	NaN	0.000000	0.001598	0.001778	28.0804	0.075702	0.002077	36.4459	-115.849	-167.242	-0.044365	0.721650	-0.405846	-0.407131	-0.057347	36.4459	-0.404666	-155773	3.681454E-7	NaN
598	1.000000	0.732924	7.3709e+06	-47189.1	1005.82	-29766.8	0.000000	0.000000	6.733024	-0.067575	NaN	0.000000	0.001651	0.001735	28.0804	0.018249	0.001982	9.209557	20.1394	13.5937	-0.114010	0.731596	-0.395857	-0.397185	-0.067575	9.209557	-0.390354	-97326.1	6.943193E-7	NaN
598	1.000000	0.742928	7.3709e+06	-47189.1	1005.82	-29766.8	0.000000	0.000000	6.743028	-0.078185	NaN	0.000000	0.001539	0.001775	28.0803	0.066704	0.001920	34.7499	157.809	-167.058	-0.029234	0.741635	-0.385853	-0.387146	-0.078185	34.7499	-0.384165	-79363.9	9.851498E-7	NaN
598	1.000000	0.752942	7.3709e+06	-47189.1	1005.82	-29766.8	0.000000	0.000000	6.753043	-0.038278	NaN	0.000000	0.001544	0.001791	28.0803	0.073241	0.002046	35.7993	-95.156	10.8001	0.026336	0.751602	-0.375839	-0.377179	-0.038278	35.7993	-0.375037	-58695.5	6.521479E-7	NaN
598	1.000000	0.762956	7.3709e+06	-47189.1	1005.82	-29766.8	0.000000	0.000000	6.763058	-0.003277	NaN	0.000000	0.001549	0.001785	28.0807	0.127519	0.002051	62.1869	-28.3843	-167.023	-0.046128	0.761629	-0.365825	-0.367151	-0.003277	62.1869	-0.365786	-43190.6	7.586980E-8	NaN
598	1.000000	0.772935	7.3709e+06	-47189.1	1005.82	-29766.8	0.000000	0.000000	6.773036	-0.027921	NaN	0.000000	0.001549	0.001793	28.0803	0.051841	0.002106	24.614	8.286675	12.8403	-0.040905	0.771596	-0.355846	-0.357185	-0.027921	24.614	-0.354995	-30159.9	9.257503E-7	NaN
598	1.000000	0.782948	7.3709e+06	-47189.1	1005.82	-29766.8	0.000000	0.000000	6.783047	-0.085370	NaN	0.000000	0.001531	0.001806	28.0803	0.058663	0.001928	30.4347	12.4166	-165.031	-0.186452	0.781673	-0.345833	-0.347108	-0.085370	30.4347	-0.343729	-20695.3	4.125111E-6	NaN
598	1.000000	0.792974	7.3709e+06	-47189.1	1005.82	-29766.8	0.000000	0.000000	6.793078	0.029185	NaN	0.000000	0.001537	0.001814	28.0791	0.184402	0.002066	89.2593	-121.756	18.155	0.055107	0.791633	-0.335807	-0.337147	0.029185	89.2593	-0.336052	-15993.8	-1.824787E-6	NaN
598	1.000000	0.802953	7.3709e+06	-47189.1	1005.82	-29766.8	0.000000	0.000000	6.803054	-0.053394	NaN	0.000000	0.001531	0.001829	28.0792	0.016885	0.001927	8.762750	20.4996	-165.554	-0.078426	0.801647	-0.325828	-0.327134	-0.053394	8.762750	-0.321258	-9708.26	5.499900E-6	NaN
598	1.000000	0.812960	7.3709e+06	-47189.1	1005.82	-29766.8	0.000000	0.000000	6.813066	0.069026	NaN	0.000000	0.001539	0.001811	28.0787	0.143526	0.001927	74.4944	-19.885	15.188	-0.000921	0.811599	-0.315821	-0.317182	0.069026	74.4944	-0.316516	-8266.17	-8.350470E-6	NaN
598	1.000000	0.822970	7.3709e+06	-47189.1	1005.82	-29766.8	0.000000	0.000000	6.823072	-0.014126	NaN	0.000000	0.001525	0.001802	28.079	0.085069	0.001937	43.9181	148.02	-170.475	-0.084723	0.821656	-0.305811	-0.307125	-0.014126	43.9181	-0.305570	-5693.9	2.480884E-6	NaN
598	1.000000	0.832991	7.3709e+06	-47189.1	1005.82	-29766.8	0.000000	0.000000	6.833091	-0.064555	NaN	0.000000	0.001534	0.001817	28.0788	0.019573	0.002097	9.333206	-61.8042	16.2852	-0.058891	0.831662	-0.295790	-0.297119	-0.064555	9.333206	-0.290602	-3406.6	1.894991E-5	NaN
598	1.000000	0.842984	7.3709e+06	-47189.1	1005.82	-29766.8	0.000000	0.000000	6.843085	-0.063023	NaN	0.000000	0.001536	0.001814	28.0791	0.068575	0.002080	32.9751	59.351	-162.591	-0.083761	0.841671	-0.285796	-0.287110	-0.063023	32.9751	-0.284363	-2745.92	2.295160E-5	NaN
598	1.000000	0.852997	7.3709e+06	-47189.1	1005.82	-29766.8	0.000000	0.000000	6.853096	-0.082952	NaN	0.000000	0.001529	0.001793	28.0788	0.037610	0.001973	19.0619	173.134	13.9872	-0.061223	0.851634	-0.275784	-0.277147	-0.082952	19.0619	-0.272520	-1818.94	4.560438E-5	NaN
598	1.000000	0.863019	7.3709e+06	-47189.1	1005.82	-29766.8	0.000000	0.000000	6.863117	-0.112062	NaN	0.000000	0.001543	0.001764	28.0789	0.071578	0.001858	38.5228	-141.983	-165.48	-0.090966	0.861690	-0.265762	-0.267091	-0.112062	38.5228	-0.263581	-1329.57	8.428452E-5	NaN
598	1.000000	0.872982	7.3709e+06	-47189.1	1005.82	-29766.8	0.000000	0.000000	6.873084	-0.026380	NaN	0.000000	0.001626	0.001815	28.0788	0.042070	0.001971	21.3486	-39.3957	17.4441	-0.042093	0.871677	-0.255799	-0.257104	-0.026380	21.3486	-0.254872	-977.573	2.698537E-5	NaN
598	1.000000	0.883008	7.3709e+06	-47189.1	1005.82	-29766.8	0.000000	0.000000	6.883108	-0.061772	NaN	0.000000	0.001605	0.001810	28.0789	0.124690	0.002003	62.247	140.648	-164.878	-0.082968	0.881655	-0.245773	-0.247126	-0.061772	62.247	-0.245029	-688.496	8.971961E-5	NaN
598	1.000000	0.893008	7.3709e+06	-47189.1	1005.82	-29766.8	0.000000	0.000000	6.893108	-0.065414	NaN	0.000000	0.001606	0.001810	28.079	0.187858	0.001917	98.0057	-53.1797	15.0638	-0.034129	0.891642	-0.235773	-0.237139	-0.065414	98.0057	-0.235272	-484.758	0.000135	NaN
598	1.000000	0.902996	7.3709e+06	-47189.1	1005.82	-29766.8	0.000000	0.000000	6.903097	-0.034198	NaN	0.000000	0.001545	0.001822	28.0787	0.062376	0.001845	33.8162	-77.7973	-163.022	-0.031622	0.901685	-0.225785	-0.227096	-0.034198	33.8162	-0.225027	-334.01	0.000102	NaN
598	1.000000	0.913022	7.3709e+06	-47189.1	1005.82	-29766.8	0.000000	0.000000	6.913122	-0.070126	NaN	0.000000	0.001586	0.001774	28.079	0.017868	0.001978	9.031193	-9.276054	14.8192	-0.042410	0.911661	-0.215759	-0.217120	-0.070126	9.031193	-0.209935	-191.325	0.000367	NaN
598	1.000000	0.922993	7.3709e+06	-47189.1	1005.82	-29766.8	0.000000	0.000000	6.923091	-0.107332	NaN	0.000000	0.001573	0.001787	28.0788	0.027077	0.001978	13.6889	-164.978	-166.029	-0.040334	0.921745	-0.205788	-0.207036	-0.107332	13.6889	-0.199908	-131.275	0.000818	NaN
598	1.000000	0.932995	7.3709e+06	-47189.1	1005.82	-29766.8	0.000000	0.000000	6.933094	-0.082237	NaN	0.000000	0.001573	0.001776	28.0802	0.086680	0.002061	42.0475	49.2525	13.3137	-0.114383	0.931660	-0.195786	-0.197121	-0.082237	42.0475	-0.194319	-106.149	0.000775	NaN
598	1.000000	0.943016	7.3709e+06	-47189.1	1005.82	-29766.8	0.000000	0.000000	6.943115	-0.092437	NaN	0.000000	0.001520	0.001791	28.08	0.082804	0.002074	39.9326	161.599	-167.477	-0.070175	0.941721	-0.185765	-0.187060	-0.092437	39.9326	-0.184029	-71.4093	0.001294	NaN
598	1.000000	0.953005	7.3709e+06	-47189.1	1005.82	-29766.8	0.000000	0.000000	6.953106	-0.043034	NaN	0.000000	0.001519	0.001754	28.0803	0.108019	0.002009	53.7732	-70.3035	17.506	-0.037712	0.951642	-0.175775	-0.177139	-0.043034	53.7732	-0.175175	-50.4651	0.000853	NaN
598	1.000000	0.963040	7.3709e+06	-47189.1	1005.82	-29766.8	0.000000	0.000000	6.963141	-0.021522	NaN	0.000000	0.001570	0.001753	28.0798	0.092664	0.001967	47.1107	-131.651	-163.647	0.059939	0.961704	-0.165741	-0.167077	-0.021522	47.1107	-0.165399	-34.1431	0.000630	NaN
598	1.000000	0.973046	7.3709e+06	-47189.1	1005.82	-29766.8	0.000000	0.000000	6.973144	-0.106540	NaN	0.000000	0.001576	0.001742	28.0799	0.059570	0.002018	29.5132	103.661	11.3743	-0.094233	0.971628	-0.155735	-0.157153	-0.106540	29.5132	-0.153028	-20.5587	0.005182	NaN
598	1.000000	0.983025	7.3709e+06	-47189.1	1005.82	-29766.8	0.000000	0.000000	6.983128	0.017583	NaN	0.000000	0.001542	0.001787	28.0798	0.086835	0.002082	41.7174	89.1128	-163.541	0.044602	0.981679	-0.145756	-0.147101	0.017583	41.7174	-0.146072	-15.3451	-0.001146	NaN
598	1.000000	0.993037	7.3709e+06	-47189.1	1005.82	-29766.8	0.000000	0.000000	6.993135	-0.118829	NaN	0.000000	0.001514	0.001778	28.0799	0.096533	0.002087	46.2603	103.457	14.1494	-0.114587	0.991704	-0.135743	-0.137077	-0.118829	46.2603	-0.133817	-9.029385	0.013160	NaN
598	1.000000	1.003030	7.3709e+06	-47189.1	1005.82	-29766.8	0.000000	0.000000	7.003130	-0.059304	NaN	0.000000	0.001516	0.001792	28.0797	0.090073	0.001997	45.103	-10.7113	-163.505	-0.077129	1.001704	-0.125751	-0.127077	-0.059304	45.103	-0.124765	-6.016348	0.009857	NaN
598	1.000000	1.013060	7.3709e+06	-47189.1	1005.82	-29766.8	0.000000	0.000000	7.013162	-0.017282	NaN	0.000000	0.001530	0.001763	28.0798	0.067005	0.001981	33.8157	-130.485	9.632059	-0.027328	1.011708	-0.115721	-0.117073	-0.017282	33.8157	-0.115338	-3.882052	0.004452	NaN
598	1.000000	1.023069	7.3709e+06	-47189.1	1005.82	-29766.8	0.000000	0.000000	7.023169	-0.078610	NaN	0.000000	0.001464	0.001781	28.0799	0.033785	0.001913	17.6581	44.6022	-164.993	-0.065075	1.021643	-0.105712	-0.107138	-0.078610	17.6581	-0.102373	-2.060831	0.038145	NaN
598	1.000000	1.033054	7.3709e+06	-47189.1	1005.82	-29766.8	0.000000	0.000000	7.033156	-0.026629	NaN	0.000000	0.001495	0.001789	28.0799	0.059745	0.002037	29.3279	-122.63	12.8612	-0.057299	1.031644	-0.095727	-0.097137	-0.026629	29.3279	-0.095046	-1.414048	0.018832	NaN
598	1.000000	1.043035	7.3709e+06	-47189.1	1005.82	-29766.8	0.000000	0.000000	7.043134	-0.096455	NaN	0.000000	0.001545	0.001802	28.0797	0.082686	0.002028	40.7639	-132.968	-167.125	-0.083221	1.041703	-0.085746	-0.087078	-0.096455	40.7639	-0.083971	-0.775695	0.124347	NaN
598	1.000000	1.053050	7.3709e+06	-47189.1	1005.82	-29766.8	0.000000	0.000000	7.053150	-0.070455	NaN	0.000000	0.001521	0.001796	28.0797	0.031756	0.001930	16.456	99.4626	12.2309	-0.047169	1.051708	-0.075731	-0.077073	-0.070455	16.456	-0.072520	-0.397922	0.177056	NaN
598	1.000000	1.063075	7.3709e+06	-47189.1	1005.82	-29766.8	0.000000	0.000000	7.063174	-0.106671	NaN	0.000000	0.001500	0.001790	28.0798	0.045451	0.002029	22.3965	73.6426	-163.293	-0.142687	1.061724	-0.065706	-0.067057	-0.106671	22.3965	-0.062133	-0.207144	0.514961	NaN
598	1.000000	1.073075	7.3709e+06	-47189.1	1005.82	-29766.8	0.000000	0.000000	7.073177	-0.032507	NaN	0.000000	0.001520	0.001795	28.0785	0.136465	0.001988	68.6447	-60.5632	16.1106	-0.053620	1.071770	-0.055705	-0.057011	-0.032507	68.6447	-0.055350	-0.131881	0.246488	NaN
598	1.000000	1.083106	7.37091e+06	-47189.1	1005.82	-29766.8	0.000000	0.000000	7.083206	-0.076523	NaN	0.000000	0.001510	0.001801	28.0785	0.092133	0.001935	47.6072	-144.708	-163.967	-0.067469	1.081751	-0.045675	-0.047030	-0.076523	47.6072	-0.044469	-0.061909	1.236045	NaN
598	1.000000	1.093120	7.37091e+06	-47189.1	1005.82	-29766.8	0.000000	0.000000	7.093220	-0.073951	NaN	0.000000	0.001509	0.001813	28.079	0.043895	0.001981	22.1584	154.482	14.4481	-0.075974	1.091709	-0.035660	-0.037072	-0.073951	22.1584	-0.033157	-0.028293	2.613767	NaN
598	1.000000	1.103089	7.37091e+06	-47189.1	1005.82	-29766.8	0.000000	0.000000	7.103188	-0.097168	NaN	0.000000	0.001511	0.001792	28.0787	0.028542	0.001968	14.5022	25.7362	-167.379	-0.056774	1.101798	-0.025691	-0.026983	-0.097168	14.5022	-0.020666	-0.013060	7.439874	NaN
598	1.000000	1.113099	7.37091e+06	-47189.1	1005.82	-29766.8	0.000000	0.000000	7.113200	-0.032397	NaN	0.000000	0.001518	0.001796	28.0789	0.116964	0.001840	63.554	96.3788	11.1224	0.028515	1.111653	-0.015682	-0.017127	-0.032397	63.554	-0.015300	-0.009456	3.426200	NaN
598	1.000000	1.123086	7.37091e+06	-47189.1	1005.82	-29766.8	0.000000	0.000000	7.123185	-0.075828	NaN	0.000000	0.001523	0.001798	28.0786	0.070864	0.001986	35.6777	134.134	-166.144	-0.067419	1.121757	-0.005695	-0.007024	-0.075828	35.6777	-0.004101	-0.002844	26.6597	NaN
598	1.000000	1.133063	7.37091e+06	-47189.1	1005.82	-29766.8	0.000000	0.000000	7.133226	1.461561	NaN	0.000000	0.001528	0.001757	28.0791	2.030990	0.001917	1059.72	9.246439	13.5002	0.395876	1.131708	0.004282	0.002927	1.461561	1059.72	0.003248	0.002589	564.447	19026.9
598	2.000000	1.140633	7.37091e+06	-47189.1	1005.82	-29766.8	0.000000	0.000000	7.141138	9.792587	NaN	0.000000	0.001530	0.001779	28.0798	9.296536	0.001666	5580.52	7.409127	-171.248	9.856510	1.140328	0.011852	0.011547	9.792587	5580.52	0.010536	0.009783	1000.98	51548
598	2.000000	1.143127	7.37091e+06	-47189.1	1005.82	-29766.8	0.000000	0.000000	7.143781	13.4056	NaN	0.000000	0.001547	0.001792	28.0788	12.33	0.001762	6998.13	9.624586	2.869686	12.9321	1.142691	0.014346	0.013910	13.4056	6998.13	0.012910	0.012598	1064.1	56964.5
598	2.000000	1.145600	7.37091e+06	-47189.1	1005.82	-29766.8	0.000000	0.000000	7.146394	16.7984	NaN	0.000000	0.001526	0.001765	28.079	15.1646	0.001936	7834.5	8.759177	-175.59	16.6104	1.145324	0.016819	0.016543	16.7984	7834.5	0.015211	0.015568	1079.03	57367.7
598	2.000000	1.148081	7.37091e+06	-47189.1	1005.82	-29766.8	0.000000	0.000000	7.149147	23.4365	NaN	0.000000	0.001573	0.001789	28.079	17.2595	0.001787	9656.56	5.797797	7.255106	22.7112	1.147703	0.019300	0.018922	23.4365	9656.56	0.017480	0.018736	1250.91	64455.8
598	2.000000	1.150572	7.37091e+06	-47189.1	1005.82	-29766.8	0.000000	0.000000	7.151797	27.307	NaN	0.000000	0.001575	0.001779	28.0789	19.4005	0.001763	11006.4	2.673696	-173.486	25.872	1.150279	0.021791	0.021498	27.307	11006.4	0.019930	0.022433	1217.29	67139.7
598	2.000000	1.153074	7.37091e+06	-47189.1	1005.82	-29766.8	0.000000	0.000000	7.154549	33.383	NaN	0.000000	0.001564	0.001813	28.0787	22.8531	0.001677	13623.4	5.341180	0.819704	32.5723	1.152714	0.024293	0.023933	33.383	13623.4	0.022455	0.026548	1257.48	76391.5
598	2.000000	1.155581	7.37091e+06	-47189.1	1005.82	-29766.8	0.000000	0.000000	7.157316	39.7137	NaN	0.000000	0.001624	0.001799	28.0801	25.4675	0.001667	15277.7	1.729755	-177.413	38.8253	1.155298	0.026800	0.026518	39.7137	15277.7	0.024850	0.030744	1291.77	79607.4
598	2.000000	1.158026	7.37091e+06	-47189.1	1005.82	-29766.8	0.000000	0.000000	7.160182	49.9388	NaN	0.000000	0.001572	0.001795	28.0802	27.661	0.001679	16470.2	4.621036	0.574550	47.9678	1.157642	0.029245	0.028861	49.9388	16470.2	0.026971	0.034699	1439.2	80782
598	2.000000	1.160506	7.37091e+06	-47189.1	1005.82	-29766.8	0.000000	0.000000	7.162897	55.6693	NaN	0.000000	0.001603	0.001816	28.0801	30.7745	0.001753	17555.4	7.662933	177.017	54.5382	1.160185	0.031725	0.031404	55.6693	17555.4	0.029347	0.039401	1412.9	80803.8
598	2.000000	1.163073	7.37091e+06	-47189.1	1005.82	-29766.8	0.000000	0.000000	7.165725	62.0177	NaN	0.000000	0.001611	0.001751	28.0799	33.5421	0.001828	18351.9	3.356196	0.609818	62.5988	1.162722	0.034292	0.033941	62.0177	18351.9	0.031757	0.044465	1394.76	79514.4
598	2.000000	1.165545	7.37091e+06	-47189.1	1005.82	-29766.8	0.000000	0.000000	7.168518	69.8075	NaN	0.000000	0.001637	0.001793	28.0804	36.8371	0.001890	19487.4	8.561908	175.547	69.4485	1.165194	0.036764	0.036413	69.8075	19487.4	0.034078	0.049620	1406.83	79927.7
598	2.000000	1.168038	7.37091e+06	-47189.1	1005.82	-29766.8	0.000000	0.000000	7.171405	79.4205	NaN	0.000000	0.001597	0.001806	28.0801	38.6351	0.001775	21767.1	8.455448	-5.929104	78.1981	1.167684	0.039257	0.038903	79.4205	21767.1	0.036520	0.055345	1435.01	84534.6
598	2.000000	1.170445	7.37091e+06	-47189.1	1005.82	-29766.8	0.000000	0.000000	7.174256	90.1942	NaN	0.000000	0.001599	0.001812	28.0806	40.2799	0.001872	21517.4	5.708834	178.388	87.496	1.170209	0.041664	0.041429	90.1942	21517.4	0.038520	0.060260	1496.75	80084.5
598	2.000000	1.173004	7.37091e+06	-47189.1	1005.82	-29766.8	0.000000	0.000000	7.177202	99.6075	NaN	0.000000	0.001589	0.001838	28.0801	43.1328	0.001843	23397.3	7.155357	-5.043875	96.227	1.172680	0.044223	0.043899	99.6075	23397.3	0.041030	0.066718	1492.96	82759.3
598	2.000000	1.175479	7.37091e+06	-47189.1	1005.82	-29766.8	0.000000	0.000000	7.180091	109.695	NaN	0.000000	0.001630	0.001808	28.0802	44.9036	0.001800	24943.2	2.013718	179.512	107.402	1.175176	0.046698	0.046396	109.695	24943.2	0.043400	0.073109	1500.42	84282.7
598	2.000000	1.178028	7.37091e+06	-47189.1	1005.82	-29766.8	0.000000	0.000000	7.182958	117.414	NaN	0.000000	0.001647	0.001801	28.0803	47.5116	0.001726	27522.2	5.849878	-4.942653	115.636	1.177638	0.049248	0.048857	117.414	27522.2	0.046048	0.080590	1456.92	88575.9
598	2.000000	1.180523	7.37091e+06	-47189.1	1005.82	-29766.8	0.000000	0.000000	7.185812	126.16	NaN	0.000000	0.001614	0.001814	28.0804	50.1917	0.001857	27030.1	6.588585	175.138	125.864	1.180180	0.051742	0.051399	126.16	27030.1	0.048241	0.087054	1449.21	83700.2
598	2.000000	1.182987	7.37091e+06	-47189.1	1005.82	-29766.8	0.000000	0.000000	7.188736	137.325	NaN	0.000000	0.001570	0.001795	28.0802	52.2145	0.001806	28909.8	5.841572	-4.937386	135.138	1.182665	0.054206	0.053884	137.325	28909.8	0.050644	0.094414	1454.51	85960.8
598	2.000000	1.185416	7.37091e+06	-47189.1	1005.82	-29766.8	0.000000	0.000000	7.191702	150.408	NaN	0.000000	0.001620	0.001779	28.0801	55.6535	0.001853	30029.8	4.624240	175.57	146.023	1.185263	0.056635	0.056482	150.408	30029.8	0.052879	0.101518	1481.59	86110
598	2.000000	1.187998	7.37091e+06	-47189.1	1005.82	-29766.8	0.000000	0.000000	7.194711	160.783	NaN	0.000000	0.001594	0.001841	28.0802	57.4837	0.001841	31226.8	5.442202	-4.456089	157.09	1.187620	0.059218	0.058840	160.783	31226.8	0.055356	0.109684	1465.88	86144.7
598	2.000000	1.190444	7.37091e+06	-47189.1	1005.82	-29766.8	0.000000	0.000000	7.197498	169.068	NaN	0.000000	0.001614	0.001780	28.0789	60.3793	0.001865	32367.9	4.631423	174.808	166.025	1.190259	0.061663	0.061478	169.068	32367.9	0.057746	0.117850	1434.6	86143.6
598	2.000000	1.193051	7.37091e+06	-47189.1	1005.82	-29766.8	0.000000	0.000000	7.200444	177.31	NaN	0.000000	0.001597	0.001776	28.0787	62.4561	0.001815	34404.7	4.248070	-4.966894	178.017	1.192694	0.064271	0.063913	177.31	34404.7	0.060405	0.127266	1393.23	88112.1
598	2.000000	1.195465	7.37091e+06	-47189.1	1005.82	-29766.8	0.000000	0.000000	7.203538	193.855	NaN	0.000000	0.001576	0.001778	28.079	65.0271	0.001801	36105	6.583795	171.925	193.19	1.195196	0.066684	0.066415	193.855	36105	0.062658	0.135510	1430.56	89609.6
598	2.000000	1.198024	7.37091e+06	-47189.1	1005.82	-29766.8	0.000000	0.000000	7.206779	210.451	NaN	0.000000	0.001594	0.001830	28.0789	65.9774	0.001776	37157.6	4.881250	-5.053941	208.782	1.197634	0.069243	0.068853	210.451	37157.6	0.064995	0.144328	1458.14	89360.3
598	2.000000	1.200431	7.37091e+06	-47189.1	1005.82	-29766.8	0.000000	0.000000	7.209593	220.351	NaN	0.000000	0.001612	0.001826	28.0791	69.0211	0.001788	38607.1	5.511515	172.569	216.001	1.200161	0.071650	0.071380	220.351	38607.1	0.067370	0.153553	1435.01	90014.4
598	2.000000	1.202930	7.37091e+06	-47189.1	1005.82	-29766.8	0.000000	0.000000	7.212685	234.764	NaN	0.000000	0.001606	0.001794	28.079	71.2786	0.001761	40483.8	2.044534	-3.888014	229.754	1.202630	0.074149	0.073849	234.764	40483.8	0.069800	0.163276	1437.84	91536.3
598	2.000000	1.205439	7.37091e+06	-47189.1	1005.82	-29766.8	0.000000	0.000000	7.215814	249.856	NaN	0.000000	0.001578	0.001842	28.0789	74.3224	0.001867	39816.8	5.081680	173.539	247.29	1.205076	0.076658	0.076295	249.856	39816.8	0.071952	0.172119	1451.65	87685
598	2.000000	1.208015	7.37091e+06	-47189.1	1005.82	-29766.8	0.000000	0.000000	7.219018	265.158	NaN	0.000000	0.001548	0.001825	28.0789	76.1055	0.001729	44009.4	7.925412	-10.2964	265.617	1.207620	0.079234	0.078839	265.158	44009.4	0.074715	0.183795	1442.68	93789
598	2.000000	1.210429	7.37091e+06	-47189.1	1005.82	-29766.8	0.000000	0.000000	7.222152	282.65	NaN	0.000000	0.001512	0.001816	28.0792	77.4827	0.001748	44314.1	3.249478	174.609	280.384	1.210165	0.081649	0.081384	282.65	44314.1	0.076865	0.193129	1463.53	92128.1
598	2.000000	1.212940	7.37091e+06	-47189.1	1005.82	-29766.8	0.000000	0.000000	7.225204	295.806	NaN	0.000000	0.001506	0.001800	28.0789	80.9679	0.001733	46718.6	5.804351	-8.627810	293.809	1.212660	0.084159	0.083879	295.806	46718.6	0.079410	0.204461	1446.76	94396.9
598	2.000000	1.215444	7.37091e+06	-47189.1	1005.82	-29766.8	0.000000	0.000000	7.228201	307.806	NaN	0.000000	0.001528	0.001821	28.079	84.5563	0.001802	46919	4.596607	171.92	306.933	1.215151	0.086663	0.086370	307.806	46919	0.081743	0.215110	1430.92	92425.4
598	2.000000	1.217991	7.37091e+06	-47189.1	1005.82	-29766.8	0.000000	0.000000	7.231408	323.85	NaN	0.000000	0.001521	0.001864	28.0788	85.7061	0.001736	49360.4	3.905555	-7.344022	321.262	1.217693	0.089210	0.088912	323.85	49360.4	0.084289	0.227023	1426.51	94649.2
598	2.000000	1.220443	7.37091e+06	-47189.1	1005.82	-29766.8	0.000000	0.000000	7.234767	345.912	NaN	0.000000	0.001547	0.001864	28.0793	87.0867	0.001786	48774.1	3.374800	173.352	344.407	1.220048	0.091662	0.091267	345.912	48774.1	0.086343	0.236849	1460.48	91564.5
598	2.000000	1.222966	7.37091e+06	-47189.1	1005.82	-29766.8	0.000000	0.000000	7.237459	350.023	NaN	0.000000	0.001525	0.001820	28.0788	90.766	0.001831	49568.8	3.932073	-7.201619	349.648	1.222612	0.094185	0.093832	350.023	49568.8	0.088889	0.249302	1404.01	90702.4
598	2.000000	1.225328	7.37091e+06	-47189.1	1005.82	-29766.8	0.000000	0.000000	7.240879	375.755	NaN	0.000000	0.001560	0.001815	28.0804	92.5172	0.001744	53036.7	1.254523	175.306	368.625	1.225066	0.096548	0.096285	375.755	53036.7	0.091234	0.261035	1439.48	94841.9
598	2.000000	1.227993	7.37091e+06	-47189.1	1005.82	-29766.8	0.000000	0.000000	7.243712	379.837	NaN	0.000000	0.001549	0.001884	28.0802	94.757	0.001664	56950.3	4.293056	-8.922806	379.007	1.227740	0.099213	0.098959	379.837	56950.3	0.094210	0.276289	1374.78	98989.2
598	2.000000	1.230532	7.37091e+06	-47189.1	1005.82	-29766.8	0.000000	0.000000	7.247079	399.989	NaN	0.000000	0.001570	0.001844	28.0805	96.974	0.001775	54634.7	5.372749	170.404	404.745	1.230256	0.101751	0.101475	399.989	54634.7	0.096260	0.287028	1393.55	93170.8
598	2.000000	1.232924	7.37091e+06	-47189.1	1005.82	-29766.8	0.000000	0.000000	7.250548	426.164	NaN	0.000000	0.001506	0.001842	28.0802	99.2619	0.001794	55322.8	4.293123	-7.904615	423.414	1.232463	0.104144	0.103682	426.164	55322.8	0.098366	0.298264	1428.81	92550
598	2.000000	1.235344	7.37091e+06	-47189.1	1005.82	-29766.8	0.000000	0.000000	7.253385	436.32	NaN	0.000000	0.001555	0.001820	28.0803	103.001	0.001801	57193.6	4.642651	170.928	430.411	1.235089	0.106563	0.106308	436.32	57193.6	0.100842	0.311728	1399.68	93590.8
598	2.000000	1.237861	7.37091e+06	-47189.1	1005.82	-29766.8	0.000000	0.000000	7.256869	459.849	NaN	0.000000	0.001544	0.001847	28.0804	103.586	0.001626	63716.5	6.278812	-11.0517	452.672	1.237484	0.109080	0.108703	459.849	63716.5	0.103667	0.327435	1404.4	101733
598	2.000000	1.238438	7.37091e+06	-47189.1	1005.82	-29766.8	0.000000	0.000000	7.257573	462.949	NaN	0.000000	0.001545	0.001816	28.0805	106.338	0.001840	57804.7	8.485211	167.212	463.345	1.238114	0.109657	0.109333	462.949	57804.7	0.103650	0.327341	1414.27	92307.3