File: remote_trans/data/nanoindenter/0828-1/data/Data_2025-08-06,11h17m57s/2025-07-22_16-23-58_1_283.txt
2025-07-22, 16:23:58, 1
Index	Phase	Displacement	Time	Pos X	Pos Y	Pos Z	Rot A	Rot B	Piezo Z	Force A	Force B	Gripper	Voltage A	Voltage B	Temperature	Amplitude force	Amplitude pos	Stiffness	Phase shift	Phase excitation	Force A raw	Displacement raw	HMax	HMax raw	Real Force	Real Stiffness	Contact Depth	Area	Hardness	Reduced Mod.
[#]	[#]	[um]	[s]	[um]	[um]	[um]	[m°]	[m°]	[um]	[uN]	[uN]	[V]	[V]	[V]	[°C]	[uN]	[um]	[N/m]	[°]	[°]	[uN]	[um]	[um]	[um]	[uN]	[N/m]	[um]	[um^2]	[MPa]	[MPa]
283	1.000000	0.002647	7.36782e+06	-52789.1	955.819	-29748.5	0.000000	0.000000	6.002795	0.013996	NaN	0.000000	0.001705	0.001719	28.0784	0.107207	0.001052	101.916	-134.836	-159.317	-0.088460	0.001381	-1.125980	-1.127246	0.013996	101.916	-1.126083	-1.122219E+15	-1.247186E-17	NaN
283	1.000000	0.012681	7.36782e+06	-52789.1	955.818	-29748.5	0.000000	0.000000	6.012825	-0.071884	NaN	0.000000	0.001695	0.001704	28.0784	0.052277	0.001230	42.5117	37.3831	9.990305	-0.093088	0.011236	-1.115947	-1.117391	-0.071884	42.5117	-1.114678	-7.889840E+14	9.110906E-17	NaN
283	1.000000	0.022624	7.36782e+06	-52789.1	955.818	-29748.5	0.000000	0.000000	6.022769	-0.056989	NaN	0.000000	0.001717	0.001709	28.0782	0.055675	0.001667	33.4021	-49.2051	-165.365	-0.112289	0.021274	-1.106003	-1.107353	-0.056989	33.4021	-1.104724	-5.800600E+14	9.824592E-17	NaN
283	1.000000	0.032588	7.36782e+06	-52789.1	955.818	-29748.5	0.000000	0.000000	6.032736	0.028137	NaN	0.000000	0.001705	0.001697	28.0782	0.066839	0.001938	34.488	-26.6852	14.1761	-0.017459	0.031258	-1.096039	-1.097369	0.028137	34.488	-1.096651	-4.519744E+14	-6.225285E-17	NaN
283	1.000000	0.042613	7.36782e+06	-52789.1	955.819	-29748.5	0.000000	0.000000	6.042756	-0.087030	NaN	0.000000	0.001716	0.001758	28.0795	0.084908	0.002044	41.5437	88.1001	-166.159	-0.069187	0.041260	-1.086015	-1.087367	-0.087030	41.5437	-1.084444	-3.098832E+14	2.808491E-16	NaN
283	1.000000	0.052600	7.36782e+06	-52789.1	955.818	-29748.5	0.000000	0.000000	6.052746	-0.048849	NaN	0.000000	0.001719	0.001747	28.0784	0.093794	0.002089	44.9003	123.681	14.8063	-0.060125	0.051208	-1.076027	-1.077420	-0.048849	44.9003	-1.075211	-2.329130E+14	2.097313E-16	NaN
283	1.000000	0.062634	7.36782e+06	-52789.1	955.819	-29748.5	0.000000	0.000000	6.062777	-0.105554	NaN	0.000000	0.001652	0.001742	28.0784	0.067590	0.002066	32.7227	85.7291	-164.565	-0.031226	0.061300	-1.065993	-1.067327	-0.105554	32.7227	-1.063574	-1.624985E+14	6.495686E-16	NaN
283	1.000000	0.072631	7.36782e+06	-52789.1	955.818	-29748.5	0.000000	0.000000	6.072777	-0.021945	NaN	0.000000	0.001656	0.001732	28.0783	0.141588	0.001996	70.939	72.6971	14.3436	0.010365	0.071186	-1.055996	-1.057442	-0.021945	70.939	-1.055764	-1.276132E+14	1.719660E-16	NaN
283	1.000000	0.082617	7.36782e+06	-52789.1	955.819	-29748.5	0.000000	0.000000	6.082762	-0.058848	NaN	0.000000	0.001706	0.001718	28.0785	0.101202	0.002133	47.4542	-32.1037	-167.075	0.013286	0.081266	-1.046010	-1.047361	-0.058848	47.4542	-1.045080	-9.167903E+13	6.418900E-16	NaN
283	1.000000	0.092591	7.36782e+06	-52789.1	955.819	-29748.5	0.000000	0.000000	6.092735	-0.068213	NaN	0.000000	0.001713	0.001717	28.0795	0.082039	0.001859	44.1362	-118.071	10.637	-0.022090	0.091219	-1.036037	-1.037408	-0.068213	44.1362	-1.034877	-6.684673E+13	1.020441E-15	NaN
283	1.000000	0.102628	7.36782e+06	-52789.1	955.818	-29748.5	0.000000	0.000000	6.102775	-0.008248	NaN	0.000000	0.001732	0.001743	28.0796	0.046004	0.002046	22.4876	-143.242	-164.621	-0.046550	0.101374	-1.026000	-1.027253	-0.008248	22.4876	-1.025725	-5.034662E+13	1.638200E-16	NaN
283	1.000000	0.112617	7.36782e+06	-52789.1	955.817	-29748.5	0.000000	0.000000	6.112761	-0.081561	NaN	0.000000	0.001713	0.001706	28.0794	0.087844	0.001933	45.4345	-154.405	14.2603	-0.003131	0.111290	-1.016010	-1.017337	-0.081561	45.4345	-1.014664	-3.573957E+13	2.282101E-15	NaN
283	1.000000	0.122641	7.36782e+06	-52789.1	955.819	-29748.5	0.000000	0.000000	6.122787	-0.035716	NaN	0.000000	0.001689	0.001730	28.0797	0.067025	0.002136	31.3794	159.574	-165.097	-0.018846	0.121273	-1.005986	-1.007354	-0.035716	31.3794	-1.005133	-2.659900E+13	1.342774E-15	NaN
283	1.000000	0.132619	7.36782e+06	-52789.1	955.818	-29748.5	0.000000	0.000000	6.132766	0.006590	NaN	0.000000	0.001728	0.001719	28.0795	0.044888	0.001983	22.6403	-76.7752	10.704	-0.009669	0.131305	-0.996009	-0.997322	0.006590	22.6403	-0.996227	-2.018220E+13	-3.265467E-16	NaN
283	1.000000	0.142633	7.36782e+06	-52789.1	955.818	-29748.5	0.000000	0.000000	6.142778	-0.057364	NaN	0.000000	0.001706	0.001715	28.0795	0.066421	0.002093	31.7397	-168.847	-165.284	-0.033362	0.141302	-0.985994	-0.987325	-0.057364	31.7397	-0.984639	-1.408958E+13	4.071374E-15	NaN
283	1.000000	0.152620	7.36782e+06	-52789.1	955.819	-29748.5	0.000000	0.000000	6.152767	0.007947	NaN	0.000000	0.001692	0.001723	28.0798	0.088516	0.002032	43.5536	84.6709	9.402408	-0.021661	0.151330	-0.976008	-0.977298	0.007947	43.5536	-0.976145	-1.082591E+13	-7.341149E-16	NaN
283	1.000000	0.162662	7.36782e+06	-52789.1	955.818	-29748.5	0.000000	0.000000	6.162810	0.007325	NaN	0.000000	0.001664	0.001724	28.0801	0.067423	0.001959	34.4209	-22.2545	-167.294	0.055276	0.161389	-0.965965	-0.967238	0.007325	34.4209	-0.966125	-7.932899E+12	-9.233131E-16	NaN
283	1.000000	0.172658	7.36782e+06	-52789.1	955.818	-29748.5	0.000000	0.000000	6.172805	0.002345	NaN	0.000000	0.001681	0.001725	28.0795	0.043239	0.001964	22.0147	-28.7954	13.7475	0.003534	0.171297	-0.955969	-0.957331	0.002345	22.0147	-0.956049	-5.802319E+12	-4.042016E-16	NaN
283	1.000000	0.182646	7.36782e+06	-52789.1	955.818	-29748.5	0.000000	0.000000	6.182790	-0.073948	NaN	0.000000	0.001688	0.001698	28.0795	0.108999	0.001879	58.0171	76.9893	-162.165	-0.066909	0.181315	-0.945982	-0.947312	-0.073948	58.0171	-0.945026	-4.120357E+12	1.794700E-14	NaN
283	1.000000	0.192662	7.36782e+06	-52789.1	955.82	-29748.5	0.000000	0.000000	6.192809	0.004496	NaN	0.000000	0.001700	0.001692	28.0797	0.063511	0.002015	31.5198	-102.39	15.0114	0.042600	0.191356	-0.935965	-0.937272	0.004496	31.5198	-0.936072	-3.119922E+12	-1.441026E-15	NaN
283	1.000000	0.202685	7.36782e+06	-52789.1	955.819	-29748.5	0.000000	0.000000	6.202832	-0.007956	NaN	0.000000	0.001690	0.001696	28.08	0.079512	0.002122	37.4731	137.885	-165.042	-0.016572	0.201359	-0.925943	-0.927268	-0.007956	37.4731	-0.925783	-2.266113E+12	3.511032E-15	NaN
283	1.000000	0.212678	7.36782e+06	-52789.1	955.819	-29748.5	0.000000	0.000000	6.212830	0.090570	NaN	0.000000	0.001651	0.001691	28.0794	0.049804	0.001999	24.9146	-59.4754	9.408575	0.007917	0.211305	-0.915949	-0.917322	0.090570	24.9146	-0.918675	-1.816849E+12	-4.984985E-14	NaN
283	1.000000	0.222656	7.36782e+06	-52789.1	955.819	-29748.5	0.000000	0.000000	6.222802	-0.029319	NaN	0.000000	0.001612	0.001701	28.0782	0.116733	0.001937	60.2759	20.7208	-172.021	-0.047930	0.221377	-0.905972	-0.907250	-0.029319	60.2759	-0.905607	-1.210091E+12	2.422853E-14	NaN
283	1.000000	0.232681	7.36782e+06	-52789.1	955.819	-29748.5	0.000000	0.000000	6.232830	0.024156	NaN	0.000000	0.001635	0.001684	28.0785	0.052105	0.002004	26.0056	-52.5135	11.6215	-0.036608	0.231319	-0.895946	-0.897309	0.024156	26.0056	-0.896643	-9.155861E+11	-2.638269E-14	NaN
283	1.000000	0.242665	7.36782e+06	-52789.1	955.819	-29748.5	0.000000	0.000000	6.242810	-0.062715	NaN	0.000000	0.001623	0.001709	28.0784	0.052023	0.002201	23.6348	-0.257310	-165.35	-0.087481	0.241391	-0.885962	-0.887237	-0.062715	23.6348	-0.883972	-6.171914E+11	1.016132E-13	NaN
283	1.000000	0.252681	7.36782e+06	-52789.1	955.819	-29748.5	0.000000	0.000000	6.252827	-0.038723	NaN	0.000000	0.001614	0.001719	28.0782	0.019975	0.001925	10.3779	29.3976	11.9249	-0.066996	0.251377	-0.875946	-0.877250	-0.038723	10.3779	-0.873148	-4.405841E+11	8.788913E-14	NaN
283	1.000000	0.262681	7.36782e+06	-52789.1	955.818	-29748.5	0.000000	0.000000	6.262826	-0.060821	NaN	0.000000	0.001586	0.001740	28.0781	0.171803	0.002027	84.7746	58.2655	-165.496	-0.102958	0.261428	-0.865946	-0.867200	-0.060821	84.7746	-0.865408	-3.461874E+11	1.756871E-13	NaN
283	1.000000	0.272727	7.36782e+06	-52789.1	955.819	-29748.5	0.000000	0.000000	6.272871	-0.079840	NaN	0.000000	0.001615	0.001703	28.0784	0.091026	0.002065	44.0856	-48.1537	15.0055	0.021680	0.271354	-0.855901	-0.857273	-0.079840	44.0856	-0.854542	-2.467418E+11	3.235781E-13	NaN
283	1.000000	0.282695	7.36782e+06	-52789.1	955.819	-29748.5	0.000000	0.000000	6.282841	-0.023702	NaN	0.000000	0.001625	0.001723	28.0782	0.024529	0.001943	12.6218	-13.8395	-165.236	-0.009383	0.281373	-0.845933	-0.847254	-0.023702	12.6218	-0.844524	-1.805428E+11	1.312820E-13	NaN
283	1.000000	0.292714	7.36782e+06	-52789.1	955.819	-29748.5	0.000000	0.000000	6.292856	-0.116559	NaN	0.000000	0.001697	0.001739	28.0783	0.122509	0.001905	64.3036	-16.3378	14.5682	-0.171677	0.291347	-0.835913	-0.837280	-0.116559	64.3036	-0.834554	-1.322825E+11	8.811359E-13	NaN
283	1.000000	0.302693	7.36782e+06	-52789.1	955.818	-29748.5	0.000000	0.000000	6.302841	-0.004786	NaN	0.000000	0.001646	0.001735	28.0784	0.038173	0.001995	19.135	-144.647	-167.763	0.004101	0.301393	-0.825934	-0.827235	-0.004786	19.135	-0.825746	-1.004900E+11	4.762285E-14	NaN
283	1.000000	0.312727	7.36782e+06	-52789.1	955.819	-29748.5	0.000000	0.000000	6.312870	-0.091851	NaN	0.000000	0.001691	0.001741	28.0782	0.041789	0.001882	22.2089	10.7021	13.9399	-0.012691	0.311353	-0.815901	-0.817274	-0.091851	22.2089	-0.812799	-6.707183E+10	1.369438E-12	NaN
283	1.000000	0.322718	7.36782e+06	-52789.1	955.819	-29748.5	0.000000	0.000000	6.322865	-0.004150	NaN	0.000000	0.001697	0.001685	28.0782	0.050803	0.002009	25.2909	-10.6039	-164.47	-0.011302	0.321373	-0.805909	-0.807254	-0.004150	25.2909	-0.805786	-5.387572E+10	7.703059E-14	NaN
283	1.000000	0.332696	7.36782e+06	-52789.1	955.818	-29748.5	0.000000	0.000000	6.332843	-0.010780	NaN	0.000000	0.001681	0.001684	28.0783	0.029146	0.001989	14.651	-65.4582	10.8862	-0.005754	0.331351	-0.795931	-0.797276	-0.010780	14.651	-0.795379	-3.891645E+10	2.770031E-13	NaN
283	1.000000	0.342736	7.36782e+06	-52789.1	955.819	-29748.5	0.000000	0.000000	6.342883	-0.009320	NaN	0.000000	0.001695	0.001676	28.0783	0.104483	0.002044	51.1256	151.342	-167.764	-0.033530	0.341400	-0.785891	-0.787227	-0.009320	51.1256	-0.785754	-2.880137E+10	3.235977E-13	NaN
283	1.000000	0.352719	7.36782e+06	-52789.1	955.818	-29748.5	0.000000	0.000000	6.352865	-0.027019	NaN	0.000000	0.001695	0.001719	28.0785	0.027297	0.001996	13.6763	-151.796	13.6625	-0.058292	0.351348	-0.775909	-0.777279	-0.027019	13.6763	-0.774427	-2.020640E+10	1.337133E-12	NaN
283	1.000000	0.362745	7.36782e+06	-52789.1	955.818	-29748.5	0.000000	0.000000	6.362893	0.009904	NaN	0.000000	0.001667	0.001697	28.0794	0.063518	0.001965	32.3267	108.818	-164.823	-0.022699	0.361431	-0.765883	-0.767196	0.009904	32.3267	-0.766112	-1.557547E+10	-6.358513E-13	NaN
283	1.000000	0.372730	7.36782e+06	-52789.1	955.818	-29748.5	0.000000	0.000000	6.372874	-0.092793	NaN	0.000000	0.001665	0.001714	28.0796	0.014660	0.002025	7.240107	-75.6585	15.8721	-0.123273	0.371429	-0.755897	-0.757198	-0.092793	7.240107	-0.746285	-8.368393E+9	1.108852E-11	NaN
283	1.000000	0.382742	7.36782e+06	-52789.1	955.818	-29748.5	0.000000	0.000000	6.382886	-0.095509	NaN	0.000000	0.001652	0.001681	28.0795	0.023708	0.001940	12.2217	-98.0469	-170.651	-0.089277	0.381469	-0.745885	-0.747158	-0.095509	12.2217	-0.740024	-6.876743E+9	1.388866E-11	NaN
283	1.000000	0.392775	7.36782e+06	-52789.1	955.819	-29748.5	0.000000	0.000000	6.392917	-0.133236	NaN	0.000000	0.001683	0.001720	28.0798	0.055591	0.001962	28.3371	-86.7501	14.0828	-0.013655	0.391379	-0.735852	-0.737248	-0.133236	28.3371	-0.732326	-5.401412E+9	2.466687E-11	NaN
283	1.000000	0.402756	7.36782e+06	-52789.1	955.819	-29748.5	0.000000	0.000000	6.402901	-0.068429	NaN	0.000000	0.001648	0.001691	28.0794	0.119552	0.002076	57.5826	-121.951	-163.681	-0.092574	0.401426	-0.725871	-0.727201	-0.068429	57.5826	-0.724980	-4.289240E+9	1.595363E-11	NaN
283	1.000000	0.412804	7.36782e+06	-52789.1	955.819	-29748.5	0.000000	0.000000	6.412950	-0.023784	NaN	0.000000	0.001661	0.001666	28.0795	0.038757	0.001983	19.5403	173.778	15.1931	-0.008090	0.411411	-0.715823	-0.717216	-0.023784	19.5403	-0.714911	-3.126455E+9	7.607440E-12	NaN
283	1.000000	0.422758	7.36782e+06	-52789.1	955.818	-29748.5	0.000000	0.000000	6.422906	0.009781	NaN	0.000000	0.001689	0.001695	28.0796	0.126435	0.002079	60.8166	92.6486	-166.326	0.036321	0.421456	-0.705869	-0.707171	0.009781	60.8166	-0.705990	-2.362205E+9	-4.140829E-12	NaN
283	1.000000	0.432759	7.36782e+06	-52789.1	955.818	-29748.5	0.000000	0.000000	6.432906	-0.020536	NaN	0.000000	0.001686	0.001681	28.08	0.056904	0.002000	28.4492	-4.751691	16.4372	-0.036162	0.431415	-0.695868	-0.697212	-0.020536	28.4492	-0.695327	-1.689263E+9	1.215652E-11	NaN
283	1.000000	0.442756	7.36782e+06	-52789.1	955.819	-29748.5	0.000000	0.000000	6.442899	-0.096432	NaN	0.000000	0.001693	0.001701	28.0795	0.005414	0.001970	2.748488	105.419	-167.467	-0.023665	0.441461	-0.685872	-0.687166	-0.096432	2.748488	-0.659558	-5.475307E+8	1.761209E-10	NaN
283	1.000000	0.452756	7.36782e+06	-52789.1	955.818	-29748.5	0.000000	0.000000	6.452902	-0.035184	NaN	0.000000	0.001688	0.001710	28.0794	0.090414	0.002030	44.5483	-148.872	12.9696	-0.075291	0.451399	-0.675871	-0.677228	-0.035184	44.5483	-0.675279	-8.987275E+8	3.914869E-11	NaN
283	1.000000	0.462788	7.36782e+06	-52789.1	955.818	-29748.5	0.000000	0.000000	6.462930	-0.111508	NaN	0.000000	0.001670	0.001731	28.0795	0.055783	0.002013	27.7175	55.3916	-164.312	0.019387	0.461458	-0.665840	-0.667169	-0.111508	27.7175	-0.662822	-6.069120E+8	1.837308E-10	NaN
283	1.000000	0.472787	7.36782e+06	-52789.1	955.819	-29748.5	0.000000	0.000000	6.472933	-0.030654	NaN	0.000000	0.001684	0.001705	28.0796	0.051748	0.001999	25.8935	6.962022	13.4512	-0.067615	0.471400	-0.655840	-0.657227	-0.030654	25.8935	-0.654952	-4.734905E+8	6.473990E-11	NaN
283	1.000000	0.482730	7.36782e+06	-52789.1	955.819	-29748.5	0.000000	0.000000	6.482878	0.012291	NaN	0.000000	0.001682	0.001664	28.0795	0.122009	0.002051	59.4811	150.725	-165.869	0.004008	0.481455	-0.645897	-0.647173	0.012291	59.4811	-0.646052	-3.575224E+8	-3.437773E-11	NaN
283	1.000000	0.492770	7.36782e+06	-52789.1	955.818	-29748.5	0.000000	0.000000	6.492915	-0.047853	NaN	0.000000	0.001659	0.001707	28.0794	0.066635	0.002103	31.6806	-138.08	13.9923	-0.000456	0.491406	-0.635857	-0.637221	-0.047853	31.6806	-0.634724	-2.499711E+8	1.914322E-10	NaN
283	1.000000	0.502769	7.36782e+06	-52789.1	955.819	-29748.5	0.000000	0.000000	6.502916	-0.008874	NaN	0.000000	0.001673	0.001664	28.0784	0.198459	0.001908	104.036	-89.8528	-166.948	0.030830	0.501475	-0.625858	-0.627152	-0.008874	104.036	-0.625795	-1.884776E+8	4.708312E-11	NaN
283	1.000000	0.512804	7.36782e+06	-52789.1	955.819	-29748.5	0.000000	0.000000	6.512949	-0.057670	NaN	0.000000	0.001715	0.001681	28.0783	0.135671	0.001945	69.7363	-167.768	14.309	-0.040569	0.511437	-0.615824	-0.617190	-0.057670	69.7363	-0.615204	-1.347997E+8	4.278215E-10	NaN
283	1.000000	0.522813	7.36782e+06	-52789.1	955.818	-29748.5	0.000000	0.000000	6.522958	-0.060503	NaN	0.000000	0.001679	0.001692	28.0785	0.047814	0.002048	23.3453	-79.9594	-166.114	0.003816	0.521486	-0.605815	-0.607141	-0.060503	23.3453	-0.603871	-9.413695E+7	6.427169E-10	NaN
283	1.000000	0.532810	7.36782e+06	-52789.1	955.818	-29748.5	0.000000	0.000000	6.532955	-0.077674	NaN	0.000000	0.001728	0.001754	28.0781	0.014217	0.002005	7.091864	-44.4129	13.594	-0.156528	0.531467	-0.595817	-0.597160	-0.077674	7.091864	-0.587602	-5.618328E+7	1.382513E-9	NaN
283	1.000000	0.542802	7.36782e+06	-52789.1	955.819	-29748.5	0.000000	0.000000	6.542947	-0.066421	NaN	0.000000	0.001676	0.001711	28.0788	0.128567	0.002082	61.7512	148.855	-165.593	-0.066543	0.541492	-0.585825	-0.587135	-0.066421	61.7512	-0.585018	-5.175645E+7	1.283343E-9	NaN
283	1.000000	0.552823	7.36783e+06	-52789.1	955.818	-29748.5	0.000000	0.000000	6.552968	-0.059669	NaN	0.000000	0.001656	0.001729	28.078	0.089668	0.002183	41.0681	-68.391	12.9752	-0.072760	0.551472	-0.575805	-0.577155	-0.059669	41.0681	-0.574715	-3.730466E+7	1.599496E-9	NaN
283	1.000000	0.562806	7.36783e+06	-52789.1	955.818	-29748.5	0.000000	0.000000	6.562955	0.040428	NaN	0.000000	0.001643	0.001722	28.0785	0.046394	0.002010	23.0824	99.9743	-167.883	-0.010104	0.561509	-0.565821	-0.567118	0.040428	23.0824	-0.567135	-2.931145E+7	-1.379246E-9	NaN
283	1.000000	0.572837	7.36783e+06	-52789.1	955.818	-29748.5	0.000000	0.000000	6.572984	-0.022399	NaN	0.000000	0.001669	0.001749	28.0781	0.058128	0.002019	28.7902	172.142	12.1184	0.009595	0.571449	-0.555790	-0.557178	-0.022399	28.7902	-0.555207	-2.004703E+7	1.117334E-9	NaN
283	1.000000	0.582823	7.36783e+06	-52789.1	955.818	-29748.5	0.000000	0.000000	6.582970	-0.016077	NaN	0.000000	0.001648	0.001742	28.0785	0.044309	0.002015	21.9873	-67.3808	-165.486	-0.120594	0.581608	-0.545804	-0.547019	-0.016077	21.9873	-0.545256	-1.459568E+7	1.101522E-9	NaN
283	1.000000	0.592848	7.36783e+06	-52789.1	955.819	-29748.5	0.000000	0.000000	6.592994	-0.026935	NaN	0.000000	0.001649	0.001705	28.0783	0.118736	0.002008	59.1397	-95.6394	11.9426	-0.118318	0.591421	-0.535780	-0.537206	-0.026935	59.1397	-0.535438	-1.066765E+7	2.524929E-9	NaN
283	1.000000	0.602839	7.36783e+06	-52789.1	955.818	-29748.5	0.000000	0.000000	6.602987	0.014996	NaN	0.000000	0.001648	0.001704	28.0785	0.104545	0.001891	55.285	160.625	-169.522	-0.010961	0.601545	-0.525788	-0.527082	0.014996	55.285	-0.525992	-7.88661e+06	-1.901507E-9	NaN
283	1.000000	0.612836	7.36783e+06	-52789.1	955.818	-29748.5	0.000000	0.000000	6.612981	-0.057285	NaN	0.000000	0.001626	0.001701	28.0782	0.034534	0.002060	16.7614	114.175	11.7271	-0.034412	0.611515	-0.515791	-0.517113	-0.057285	16.7614	-0.513228	-5.24039e+06	1.093141E-8	NaN
283	1.000000	0.622844	7.36783e+06	-52789.1	955.818	-29748.5	0.000000	0.000000	6.622987	-0.118039	NaN	0.000000	0.001635	0.001702	28.0781	0.132250	0.002018	65.5266	-123.481	-167.743	-0.044252	0.621539	-0.505783	-0.507089	-0.118039	65.5266	-0.504432	-3.95206e+06	2.986758E-8	NaN
283	1.000000	0.632833	7.36783e+06	-52789.1	955.819	-29748.5	0.000000	0.000000	6.632979	-0.037146	NaN	0.000000	0.001643	0.001714	28.0795	0.052092	0.001970	26.4429	20.0661	14.9403	-0.060628	0.631518	-0.495794	-0.497110	-0.037146	26.4429	-0.494740	-2.89474e+06	1.283239E-8	NaN
283	1.000000	0.642865	7.36783e+06	-52789.1	955.819	-29748.5	0.000000	0.000000	6.643010	-0.065761	NaN	0.000000	0.001618	0.001742	28.0794	0.063184	0.002076	30.4289	5.340390	-163.59	-0.105838	0.641517	-0.485762	-0.487110	-0.065761	30.4289	-0.484141	-2.05817e+06	3.195123E-8	NaN
283	1.000000	0.652824	7.36783e+06	-52789.1	955.818	-29748.5	0.000000	0.000000	6.652967	-0.109654	NaN	0.000000	0.001591	0.001703	28.0796	0.096208	0.002135	45.0535	156.926	12.1334	-0.049330	0.651475	-0.475803	-0.477153	-0.109654	45.0535	-0.473978	-1.48313e+06	7.393448E-8	NaN
283	1.000000	0.662844	7.36783e+06	-52789.1	955.819	-29748.5	0.000000	0.000000	6.662991	-0.000348	NaN	0.000000	0.001600	0.001725	28.0797	0.037065	0.001974	18.7772	139.267	-165.822	-0.028503	0.661599	-0.465783	-0.467029	-0.000348	18.7772	-0.465769	-1.13775e+06	3.062014E-10	NaN
283	1.000000	0.672862	7.36783e+06	-52789.1	955.818	-29748.5	0.000000	0.000000	6.673009	-0.004111	NaN	0.000000	0.001640	0.001723	28.0794	0.033380	0.002091	15.961	-135.318	10.8723	-0.069748	0.671494	-0.455766	-0.457133	-0.004111	15.961	-0.455572	-818029	5.025065E-9	NaN
283	1.000000	0.682847	7.36783e+06	-52789.1	955.818	-29748.5	0.000000	0.000000	6.682994	-0.001515	NaN	0.000000	0.001629	0.001721	28.0796	0.095412	0.001906	50.0581	159.396	-169.837	-0.058378	0.681580	-0.445780	-0.447048	-0.001515	50.0581	-0.445758	-595077	2.546365E-9	NaN
283	1.000000	0.692796	7.36783e+06	-52789.1	955.819	-29748.5	0.000000	0.000000	6.692942	-0.034467	NaN	0.000000	0.001601	0.001755	28.0797	0.028929	0.001928	15.0055	-165.734	13.083	-0.024411	0.691526	-0.435831	-0.437101	-0.034467	15.0055	-0.434109	-407530	8.457489E-8	NaN
283	1.000000	0.702875	7.36783e+06	-52789.1	955.818	-29748.5	0.000000	0.000000	6.703020	-0.057703	NaN	0.000000	0.001670	0.001725	28.0796	0.124993	0.002032	61.5227	16.3287	-167.229	-0.092390	0.701637	-0.425752	-0.426990	-0.057703	61.5227	-0.425049	-303370	1.902070E-7	NaN
283	1.000000	0.712902	7.36783e+06	-52789.1	955.819	-29748.5	0.000000	0.000000	6.713046	-0.078765	NaN	0.000000	0.001670	0.001719	28.0794	0.058865	0.001974	29.8212	-56.1688	10.6547	-0.031416	0.711527	-0.415725	-0.417100	-0.078765	29.8212	-0.413744	-209709	3.755933E-7	NaN
283	1.000000	0.722870	7.36783e+06	-52789.1	955.818	-29748.5	0.000000	0.000000	6.723018	0.007036	NaN	0.000000	0.001620	0.001696	28.0795	0.082375	0.001917	42.9656	27.6094	-165.153	0.003550	0.721579	-0.405757	-0.407049	0.007036	42.9656	-0.405880	-162099	-4.340680E-8	NaN
283	1.000000	0.732911	7.36783e+06	-52789.1	955.819	-29748.5	0.000000	0.000000	6.733059	0.017652	NaN	0.000000	0.001636	0.001721	28.0797	0.077645	0.002038	38.1078	-139.919	14.4659	0.011301	0.731519	-0.395717	-0.397109	0.017652	38.1078	-0.396064	-117443	-1.503022E-7	NaN
283	1.000000	0.742870	7.36783e+06	-52789.1	955.818	-29748.5	0.000000	0.000000	6.743017	-0.015711	NaN	0.000000	0.001606	0.001745	28.0796	0.066012	0.002094	31.5252	15.3797	-168.01	-0.025264	0.741557	-0.385757	-0.387070	-0.015711	31.5252	-0.385383	-82618.5	1.901683E-7	NaN
283	1.000000	0.752916	7.36783e+06	-52789.1	955.819	-29748.5	0.000000	0.000000	6.753059	-0.110307	NaN	0.000000	0.001594	0.001652	28.0797	0.043359	0.001921	22.5763	-16.8074	13.6215	-0.061057	0.751532	-0.375711	-0.377095	-0.110307	22.5763	-0.372046	-53160.5	2.074984E-6	NaN
283	1.000000	0.762912	7.36783e+06	-52789.1	955.818	-29748.5	0.000000	0.000000	6.763058	-0.043886	NaN	0.000000	0.001633	0.001730	28.0796	0.047691	0.001989	23.9809	71.1747	-165.164	0.027291	0.761594	-0.365715	-0.367033	-0.043886	23.9809	-0.364342	-41168.4	1.066007E-6	NaN
283	1.000000	0.772937	7.36783e+06	-52789.1	955.818	-29748.5	0.000000	0.000000	6.773084	0.002995	NaN	0.000000	0.001621	0.001706	28.0787	0.050555	0.002029	24.9199	119.54	11.9373	-0.049260	0.771502	-0.355691	-0.357125	0.002995	24.9199	-0.355781	-30960.3	-9.673493E-8	NaN
283	1.000000	0.782918	7.36783e+06	-52789.1	955.818	-29748.5	0.000000	0.000000	6.783064	-0.036226	NaN	0.000000	0.001613	0.001698	28.0782	0.032969	0.002059	16.0094	118.95	-168.102	-0.087274	0.781625	-0.345709	-0.347002	-0.036226	16.0094	-0.344012	-20892.1	1.733960E-6	NaN
283	1.000000	0.792912	7.36783e+06	-52789.1	955.818	-29748.5	0.000000	0.000000	6.793057	-0.061454	NaN	0.000000	0.001631	0.001695	28.0785	0.033450	0.001941	17.2333	-3.363979	12.5183	-0.073501	0.791568	-0.335715	-0.337059	-0.061454	17.2333	-0.333041	-14452.7	4.252075E-6	NaN
283	1.000000	0.802918	7.36783e+06	-52789.1	955.819	-29748.5	0.000000	0.000000	6.803063	-0.040105	NaN	0.000000	0.001627	0.001668	28.0782	0.113589	0.002137	53.1629	-116.562	-168.428	-0.086324	0.801639	-0.325710	-0.326988	-0.040105	53.1629	-0.325144	-11072.6	3.621989E-6	NaN
283	1.000000	0.812896	7.36783e+06	-52789.1	955.819	-29748.5	0.000000	0.000000	6.813042	-0.028416	NaN	0.000000	0.001608	0.001732	28.0788	0.083012	0.001938	42.8271	-103.524	13.8662	-0.063092	0.811554	-0.315732	-0.317073	-0.028416	42.8271	-0.315234	-7914.08	3.590509E-6	NaN
283	1.000000	0.822938	7.36783e+06	-52789.1	955.818	-29748.5	0.000000	0.000000	6.823084	-0.041942	NaN	0.000000	0.001599	0.001716	28.0781	0.053487	0.002032	26.3238	39.9285	-166.78	-0.004862	0.821570	-0.305689	-0.307058	-0.041942	26.3238	-0.304494	-5488.37	7.642059E-6	NaN
283	1.000000	0.832943	7.36783e+06	-52789.1	955.818	-29748.5	0.000000	0.000000	6.833092	0.046338	NaN	0.000000	0.001624	0.001702	28.0784	0.029827	0.001915	15.5763	112.307	16.9713	0.074408	0.831571	-0.295684	-0.297056	0.046338	15.5763	-0.297915	-4381.12	-1.057668E-5	NaN
283	1.000000	0.842940	7.36783e+06	-52789.1	955.819	-29748.5	0.000000	0.000000	6.843085	-0.061351	NaN	0.000000	0.001641	0.001724	28.0781	0.087945	0.002013	43.6822	14.6211	-165.725	-0.075312	0.841678	-0.285687	-0.286950	-0.061351	43.6822	-0.284634	-2771.78	2.213415E-5	NaN
283	1.000000	0.852939	7.36783e+06	-52789.1	955.818	-29748.5	0.000000	0.000000	6.853084	-0.048599	NaN	0.000000	0.001618	0.001696	28.079	0.061273	0.002019	30.3426	41.3139	13.2676	-0.050245	0.851629	-0.275688	-0.276999	-0.048599	30.3426	-0.274487	-1948.2	2.494546E-5	NaN
283	1.000000	0.862951	7.36783e+06	-52789.1	955.818	-29748.5	0.000000	0.000000	6.863096	-0.065095	NaN	0.000000	0.001621	0.001710	28.0783	0.069416	0.002054	33.7877	-13.5205	-166.057	-0.116961	0.861615	-0.265676	-0.267012	-0.065095	33.7877	-0.264231	-1360.36	4.785128E-5	NaN
283	1.000000	0.872944	7.36783e+06	-52789.1	955.819	-29748.5	0.000000	0.000000	6.873090	-0.043242	NaN	0.000000	0.001580	0.001740	28.0785	0.096780	0.001943	49.8063	59.1706	14.9889	-0.005935	0.871602	-0.255683	-0.257025	-0.043242	49.8063	-0.255032	-983.115	4.398479E-5	NaN
283	1.000000	0.882964	7.36783e+06	-52789.1	955.819	-29748.5	0.000000	0.000000	6.883110	-0.038488	NaN	0.000000	0.001638	0.001733	28.0785	0.109575	0.002096	52.2731	141.421	-170.573	-0.123670	0.881623	-0.245663	-0.247005	-0.038488	52.2731	-0.245111	-690.527	5.573774E-5	NaN
283	1.000000	0.892943	7.36783e+06	-52789.1	955.817	-29748.5	0.000000	0.000000	6.893089	-0.031108	NaN	0.000000	0.001616	0.001731	28.0784	0.031165	0.002081	14.9762	19.8297	12.6721	0.010785	0.891596	-0.235684	-0.237031	-0.031108	14.9762	-0.234126	-465.075	6.688809E-5	NaN
283	1.000000	0.902953	7.36783e+06	-52789.1	955.819	-29748.5	0.000000	0.000000	6.903102	0.041646	NaN	0.000000	0.001614	0.001741	28.0784	0.137139	0.002021	67.8513	-34.5983	-166.613	-0.036612	0.901678	-0.225674	-0.226949	0.041646	67.8513	-0.226135	-347.814	-0.000120	NaN
283	1.000000	0.912976	7.36783e+06	-52789.1	955.819	-29748.5	0.000000	0.000000	6.913122	-0.033394	NaN	0.000000	0.001634	0.001750	28.0796	0.123493	0.002057	60.0363	-147.596	16.6462	-0.018378	0.911579	-0.215651	-0.217048	-0.033394	60.0363	-0.215234	-232.957	0.000143	NaN
283	1.000000	0.922973	7.36783e+06	-52789.1	955.818	-29748.5	0.000000	0.000000	6.923120	-0.012484	NaN	0.000000	0.001578	0.001751	28.0796	0.032286	0.001806	17.8819	-161.868	-170.315	0.066873	0.921656	-0.205654	-0.206971	-0.012484	17.8819	-0.205130	-159.84	7.810461E-5	NaN
283	1.000000	0.932984	7.36783e+06	-52789.1	955.817	-29748.5	0.000000	0.000000	6.933130	-0.048501	NaN	0.000000	0.001596	0.001724	28.0794	0.030826	0.002008	15.3554	89.0027	16.413	-0.087114	0.931631	-0.195643	-0.196996	-0.048501	15.3554	-0.193274	-101.994	0.000476	NaN
283	1.000000	0.942964	7.36783e+06	-52789.1	955.818	-29748.5	0.000000	0.000000	6.943109	-0.045494	NaN	0.000000	0.001618	0.001739	28.0795	0.045501	0.001882	24.1783	104.505	-168.094	0.033788	0.941650	-0.185664	-0.186977	-0.045494	24.1783	-0.184252	-72.0317	0.000632	NaN
283	1.000000	0.952998	7.36783e+06	-52789.1	955.819	-29748.5	0.000000	0.000000	6.953144	-0.025845	NaN	0.000000	0.001574	0.001744	28.0795	0.052634	0.001881	27.9858	32.1819	8.975418	0.022157	0.951613	-0.175630	-0.177014	-0.025845	27.9858	-0.174937	-49.9915	0.000517	NaN
283	1.000000	0.962973	7.36783e+06	-52789.1	955.819	-29748.5	0.000000	0.000000	6.963124	0.079116	NaN	0.000000	0.001596	0.001749	28.0799	0.084962	0.002170	39.1601	167.415	-168.824	0.083741	0.961636	-0.165654	-0.166991	0.079116	39.1601	-0.167169	-36.6691	-0.002158	NaN
283	1.000000	0.973003	7.36783e+06	-52789.1	955.817	-29748.5	0.000000	0.000000	6.973149	-0.023087	NaN	0.000000	0.001646	0.001733	28.0797	0.094312	0.002008	46.9649	36.1283	12.8288	-0.052387	0.971663	-0.155624	-0.156964	-0.023087	46.9649	-0.155256	-22.5518	0.001024	NaN
283	1.000000	0.982994	7.36783e+06	-52789.1	955.818	-29748.5	0.000000	0.000000	6.983141	-0.022541	NaN	0.000000	0.001585	0.001687	28.0799	0.104596	0.002165	48.3085	52.8978	-168.608	-0.038184	0.981704	-0.145633	-0.146923	-0.022541	48.3085	-0.145283	-14.839	0.001519	NaN
283	1.000000	0.993004	7.36783e+06	-52789.1	955.819	-29748.5	0.000000	0.000000	6.993151	-0.020209	NaN	0.000000	0.001594	0.001711	28.0798	0.048124	0.002014	23.8915	-93.5741	15.5693	-0.029167	0.991625	-0.135623	-0.137002	-0.020209	23.8915	-0.134989	-9.507770	0.002126	NaN
283	1.000000	1.003003	7.36783e+06	-52789.1	955.819	-29748.5	0.000000	0.000000	7.003150	-0.027180	NaN	0.000000	0.001621	0.001737	28.0799	0.044825	0.001994	22.4825	-133.528	-163.296	-0.002279	1.001689	-0.125624	-0.126938	-0.027180	22.4825	-0.124717	-6.003378	0.004528	NaN
283	1.000000	1.012982	7.36783e+06	-52789.1	955.818	-29748.5	0.000000	0.000000	7.013128	-0.042181	NaN	0.000000	0.001652	0.001741	28.0795	0.054165	0.001971	27.4875	27.42	12.9814	-0.045080	1.011639	-0.115645	-0.116988	-0.042181	27.4875	-0.114494	-3.729616	0.011310	NaN
283	1.000000	1.022982	7.36783e+06	-52789.1	955.818	-29748.5	0.000000	0.000000	7.023128	-0.040109	NaN	0.000000	0.001627	0.001747	28.0795	0.087560	0.001918	45.662	-56.95	-165.399	-0.000382	1.021661	-0.105645	-0.106967	-0.040109	45.662	-0.104986	-2.348948	0.017075	NaN
283	1.000000	1.033029	7.36783e+06	-52789.1	955.818	-29748.5	0.000000	0.000000	7.033175	-0.022573	NaN	0.000000	0.001625	0.001737	28.0799	0.091016	0.002095	43.4545	-176.161	10.6573	0.006045	1.031676	-0.095598	-0.096951	-0.022573	43.4545	-0.095209	-1.426157	0.015828	NaN
283	1.000000	1.043013	7.36783e+06	-52789.1	955.818	-29748.5	0.000000	0.000000	7.043161	-0.004914	NaN	0.000000	0.001622	0.001724	28.0786	0.066942	0.001938	34.543	131.958	-167.341	0.012836	1.041673	-0.085614	-0.086954	-0.004914	34.543	-0.085507	-0.845154	0.005815	NaN
283	1.000000	1.053026	7.36783e+06	-52789.1	955.819	-29748.5	0.000000	0.000000	7.053172	-0.045148	NaN	0.000000	0.001620	0.001742	28.0783	0.091358	0.001935	47.2042	74.0763	13.9098	-0.044907	1.051690	-0.075601	-0.076937	-0.045148	47.2042	-0.074884	-0.458676	0.098431	NaN
283	1.000000	1.063035	7.36783e+06	-52789.1	955.819	-29748.5	0.000000	0.000000	7.063183	0.020291	NaN	0.000000	0.001613	0.001721	28.0785	0.096249	0.001969	48.8707	-131.231	-166.765	-0.040484	1.061738	-0.065593	-0.066889	0.020291	48.8707	-0.065904	-0.263982	-0.076864	NaN
283	1.000000	1.073027	7.36783e+06	-52789.1	955.819	-29748.5	0.000000	0.000000	7.073173	-0.042152	NaN	0.000000	0.001635	0.001740	28.0783	0.089294	0.001944	45.9349	-104.061	14.4932	-0.109900	1.071663	-0.055600	-0.056964	-0.042152	45.9349	-0.054912	-0.128007	0.329296	NaN
283	1.000000	1.083041	7.36783e+06	-52789.1	955.819	-29748.5	0.000000	0.000000	7.083188	-0.015967	NaN	0.000000	0.001697	0.001687	28.0783	0.060928	0.002019	30.1799	-7.341644	-162.964	-0.027045	1.081719	-0.045586	-0.046909	-0.015967	30.1799	-0.045189	-0.065129	0.245158	NaN
283	1.000000	1.093019	7.36783e+06	-52789.1	955.819	-29748.5	0.000000	0.000000	7.093165	-0.029962	NaN	0.000000	0.001685	0.001645	28.0782	0.028888	0.001873	15.4243	25.5554	16.0769	-0.116063	1.091678	-0.035608	-0.036949	-0.029962	15.4243	-0.034151	-0.030240	0.990791	NaN
283	1.000000	1.103055	7.36783e+06	-52789.1	955.82	-29748.5	0.000000	0.000000	7.103198	-0.095128	NaN	0.000000	0.001659	0.001702	28.0784	0.078804	0.002028	38.8609	88.8281	-168.386	-0.032171	1.101730	-0.025572	-0.026897	-0.095128	38.8609	-0.023736	-0.015644	6.080945	NaN
283	1.000000	1.113034	7.36783e+06	-52789.1	955.82	-29748.5	0.000000	0.000000	7.113184	0.047458	NaN	0.000000	0.001656	0.001695	28.0783	0.143002	0.001835	77.9268	-23.4257	14.895	-0.072464	1.111700	-0.015593	-0.016927	0.047458	77.9268	-0.016050	-0.009914	-4.787118	NaN
283	1.000000	1.123021	7.36783e+06	-52789.1	955.82	-29748.5	0.000000	0.000000	7.123165	-0.088303	NaN	0.000000	0.001562	0.001681	28.0784	0.045140	0.002083	21.672	-50.4786	-165.47	-0.114208	1.121776	-0.005606	-0.006851	-0.088303	21.672	-0.002550	-0.001817	48.6003	NaN
283	1.000000	1.133014	7.36783e+06	-52789.1	955.82	-29748.5	0.000000	0.000000	7.133257	2.312833	NaN	0.000000	0.001581	0.001663	28.0783	3.142397	0.001954	1607.97	10.215	11.7875	1.129297	1.131611	0.004387	0.002984	2.312833	1607.97	0.003308	0.002641	875.763	28587.3
283	2.000000	1.140584	7.36783e+06	-52789.1	955.819	-29748.5	0.000000	0.000000	7.141173	10.7277	NaN	0.000000	0.001587	0.001648	28.0786	9.646897	0.001535	6284.9	2.843597	-170.7	9.905288	1.140283	0.011957	0.011656	10.7277	6284.9	0.010677	0.009943	1078.91	57585.2
283	2.000000	1.143074	7.36783e+06	-52789.1	955.819	-29748.5	0.000000	0.000000	7.143782	13.6472	NaN	0.000000	0.001567	0.001679	28.0786	12.4314	0.001739	7149.83	4.544549	6.435554	12.897	1.142698	0.014446	0.014070	13.6472	7149.83	0.013015	0.012729	1072.17	57900.2
283	2.000000	1.145542	7.36783e+06	-52789.1	955.82	-29748.5	0.000000	0.000000	7.146382	16.8336	NaN	0.000000	0.001614	0.001696	28.0786	15.0357	0.001775	8469.42	5.845088	-176.193	15.8254	1.145265	0.016915	0.016638	16.8336	8469.42	0.015425	0.015856	1061.68	61451.8
283	2.000000	1.148065	7.36783e+06	-52789.1	955.82	-29748.5	0.000000	0.000000	7.149182	23.5798	NaN	0.000000	0.001610	0.001694	28.0784	17.5232	0.001711	10244	6.109714	1.885605	22.3495	1.147677	0.019437	0.019049	23.5798	10244	0.017711	0.019072	1236.34	67770.5
283	2.000000	1.150523	7.36783e+06	-52789.1	955.819	-29748.5	0.000000	0.000000	7.151794	27.3349	NaN	0.000000	0.001608	0.001653	28.0797	19.8096	0.001802	10992.3	5.424483	-178.167	26.2009	1.150195	0.021895	0.021568	27.3349	10992.3	0.020030	0.022590	1210.05	66820
283	2.000000	1.153050	7.36783e+06	-52789.1	955.82	-29748.5	0.000000	0.000000	7.154498	31.6225	NaN	0.000000	0.001626	0.001681	28.0798	22.5612	0.001781	12667.2	8.924736	-0.881048	32.6605	1.152594	0.024422	0.023967	31.6225	12667.2	0.022550	0.026709	1183.97	70815
283	2.000000	1.155489	7.36783e+06	-52789.1	955.818	-29748.5	0.000000	0.000000	7.157181	37.5544	NaN	0.000000	0.001613	0.001687	28.0799	24.9611	0.001780	14025.3	4.218417	-178.216	37.3596	1.155168	0.026862	0.026541	37.5544	14025.3	0.024854	0.030750	1221.27	73073.9
283	2.000000	1.157959	7.36783e+06	-52789.1	955.82	-29748.5	0.000000	0.000000	7.160084	48.0714	NaN	0.000000	0.001631	0.001685	28.0796	27.0014	0.001703	15853.1	0.411762	3.995645	45.9554	1.157704	0.029332	0.029077	48.0714	15853.1	0.027058	0.034865	1378.77	77569.4
283	2.000000	1.160424	7.36783e+06	-52789.1	955.819	-29748.5	0.000000	0.000000	7.162788	53.9032	NaN	0.000000	0.001640	0.001656	28.08	28.8576	0.001635	17653.6	1.037884	-177.705	51.6366	1.160233	0.031797	0.031605	53.9032	17653.6	0.029507	0.039728	1356.82	80920.8
283	2.000000	1.163011	7.36783e+06	-52789.1	955.82	-29748.5	0.000000	0.000000	7.165677	61.2385	NaN	0.000000	0.001607	0.001714	28.0798	32.3989	0.001822	17780.5	4.510555	-0.195806	61.6321	1.162588	0.034384	0.033961	61.2385	17780.5	0.031801	0.044558	1374.34	76957.6
283	2.000000	1.165492	7.36783e+06	-52789.1	955.82	-29748.5	0.000000	0.000000	7.168526	70.1878	NaN	0.000000	0.001608	0.001689	28.0798	34.7269	0.001716	20240	2.617308	179.51	70.6356	1.165100	0.036864	0.036472	70.1878	20240	0.034263	0.050045	1402.5	82661.8
283	2.000000	1.167988	7.36783e+06	-52789.1	955.82	-29748.5	0.000000	0.000000	7.171289	76.6692	NaN	0.000000	0.001618	0.001691	28.0796	37.7345	0.001744	21637.7	9.796153	-7.738706	74.1708	1.167572	0.039361	0.038945	76.6692	21637.7	0.036703	0.055786	1374.34	83699.2
283	2.000000	1.170465	7.36783e+06	-52789.1	955.819	-29748.5	0.000000	0.000000	7.174131	85.5352	NaN	0.000000	0.001617	0.001683	28.0798	39.6375	0.001810	21902.5	7.942983	174.175	84.2703	1.170156	0.041838	0.041529	85.5352	21902.5	0.038909	0.061239	1396.74	80863.2
283	2.000000	1.172948	7.36783e+06	-52789.1	955.819	-29748.5	0.000000	0.000000	7.176821	90.5825	NaN	0.000000	0.001619	0.001731	28.0796	41.9318	0.001790	23431.1	3.926713	-3.156524	87.8958	1.172665	0.044321	0.044038	90.5825	23431.1	0.041422	0.067754	1336.93	82242.9
283	2.000000	1.175493	7.36783e+06	-52789.1	955.819	-29748.5	0.000000	0.000000	7.179827	101.793	NaN	0.000000	0.001608	0.001725	28.0796	44.0475	0.001834	24022.4	0.367387	-179.414	100.798	1.175188	0.046866	0.046560	101.793	24022.4	0.043688	0.073906	1377.32	80732.9
283	2.000000	1.177989	7.36783e+06	-52789.1	955.82	-29748.5	0.000000	0.000000	7.182904	115.934	NaN	0.000000	0.001579	0.001726	28.0796	45.5775	0.001849	24655.8	3.757027	-1.840922	113.944	1.177584	0.049362	0.048957	115.934	24655.8	0.045835	0.079975	1449.63	79655.3
283	2.000000	1.180454	7.36783e+06	-52789.1	955.82	-29748.5	0.000000	0.000000	7.185745	125.072	NaN	0.000000	0.001593	0.001721	28.0798	49.0555	0.001801	27241.8	5.007231	175.164	125.398	1.180074	0.051826	0.051447	125.072	27241.8	0.048383	0.087481	1429.7	84149.9
283	2.000000	1.182950	7.36783e+06	-52789.1	955.819	-29748.5	0.000000	0.000000	7.188740	137.195	NaN	0.000000	0.001624	0.001735	28.0796	52.1785	0.001804	28923.2	7.353212	-7.407506	135.774	1.182513	0.054323	0.053886	137.195	28923.2	0.050765	0.094793	1447.31	85828.7
283	2.000000	1.185458	7.36783e+06	-52789.1	955.82	-29748.5	0.000000	0.000000	7.191722	148.71	NaN	0.000000	0.001600	0.001733	28.0786	54.5878	0.001697	32172.8	5.407356	173.537	148.598	1.185078	0.056831	0.056451	148.71	32172.8	0.053364	0.103094	1442.46	91547.1
283	2.000000	1.188021	7.36783e+06	-52789.1	955.82	-29748.5	0.000000	0.000000	7.194891	163.459	NaN	0.000000	0.001614	0.001733	28.0784	55.6398	0.001736	32051.5	4.665209	-5.071245	165.166	1.187605	0.059394	0.058977	163.459	32051.5	0.055569	0.110400	1480.6	88132.4
283	2.000000	1.190439	7.36783e+06	-52789.1	955.819	-29748.5	0.000000	0.000000	7.197762	174.464	NaN	0.000000	0.001606	0.001738	28.0788	58.9593	0.001851	31849.5	5.888312	173.519	174.93	1.190060	0.061812	0.061433	174.464	31849.5	0.057703	0.117701	1482.26	84817.5
283	2.000000	1.192942	7.36783e+06	-52789.1	955.819	-29748.5	0.000000	0.000000	7.200737	185.93	NaN	0.000000	0.001602	0.001733	28.0784	60.9435	0.001824	33416.9	5.215996	-7.232152	184.19	1.192633	0.064315	0.064006	185.93	33416.9	0.060142	0.126318	1471.92	85902.6
283	2.000000	1.195467	7.36783e+06	-52789.1	955.82	-29748.5	0.000000	0.000000	7.203886	201.096	NaN	0.000000	0.001561	0.001754	28.0784	62.555	0.001825	34275.2	-0.536877	179.469	200.995	1.195150	0.066840	0.066523	201.096	34275.2	0.062440	0.134702	1492.89	85322.9
283	2.000000	1.197935	7.36783e+06	-52789.1	955.82	-29748.5	0.000000	0.000000	7.206874	213.771	NaN	0.000000	0.001563	0.001694	28.0783	64.8727	0.001792	36205.4	0.764540	-2.496850	210.862	1.197568	0.069307	0.068941	213.771	36205.4	0.064879	0.143883	1485.73	87205
283	2.000000	1.200443	7.36783e+06	-52789.1	955.82	-29748.5	0.000000	0.000000	7.210100	231.202	NaN	0.000000	0.001550	0.001711	28.0787	68.3425	0.001860	36746.3	8.593891	170.101	230.768	1.199967	0.071816	0.071340	231.202	36746.3	0.067097	0.152481	1516.27	85976.4
283	2.000000	1.202896	7.36783e+06	-52789.1	955.819	-29748.5	0.000000	0.000000	7.213250	248.148	NaN	0.000000	0.001571	0.001760	28.0783	70.8658	0.001752	40459	5.784539	-8.246425	244.275	1.202426	0.074269	0.073799	248.148	40459	0.069669	0.162744	1524.77	91629.6
283	2.000000	1.205370	7.36783e+06	-52789.1	955.82	-29748.5	0.000000	0.000000	7.216195	259.619	NaN	0.000000	0.001585	0.001708	28.0786	72.9514	0.001807	40373.1	2.363912	175.15	256.377	1.205083	0.076743	0.076456	259.619	40373.1	0.071920	0.171985	1509.54	88944.6
283	2.000000	1.207934	7.36783e+06	-52789.1	955.82	-29748.5	0.000000	0.000000	7.219496	277.542	NaN	0.000000	0.001572	0.001723	28.0784	75.6485	0.001790	42258.7	6.301500	-9.367698	275.424	1.207631	0.079307	0.079004	277.542	42258.7	0.074381	0.182365	1521.91	90410.6
283	2.000000	1.210392	7.36783e+06	-52789.1	955.82	-29748.5	0.000000	0.000000	7.222377	287.817	NaN	0.000000	0.001538	0.001721	28.0785	76.8841	0.001782	43143.8	1.817328	175.184	284.882	1.210165	0.081765	0.081538	287.817	43143.8	0.076762	0.192677	1493.78	89800.1
283	2.000000	1.212941	7.36783e+06	-52789.1	955.819	-29748.5	0.000000	0.000000	7.225853	310.355	NaN	0.000000	0.001606	0.001720	28.0783	79.6484	0.001723	46233.7	5.662188	-8.894400	310.533	1.212581	0.084314	0.083953	310.355	46233.7	0.079279	0.203868	1522.33	93552.8
283	2.000000	1.215462	7.36783e+06	-52789.1	955.821	-29748.5	0.000000	0.000000	7.228933	323.946	NaN	0.000000	0.001655	0.001751	28.0784	83.14	0.001756	47341	4.813331	171.823	324.682	1.215133	0.086835	0.086506	323.946	47341	0.081703	0.214924	1507.25	93297.1
283	2.000000	1.217922	7.36783e+06	-52789.1	955.819	-29748.5	0.000000	0.000000	7.232160	342.595	NaN	0.000000	0.001640	0.001754	28.0796	84.598	0.001836	46076.1	5.231636	-7.977677	338.79	1.217553	0.089294	0.088926	342.595	46076.1	0.083718	0.224323	1527.24	88881.6
283	2.000000	1.220409	7.36783e+06	-52789.1	955.82	-29748.5	0.000000	0.000000	7.235122	354.155	NaN	0.000000	0.001645	0.001719	28.0796	86.7093	0.001795	48304.1	-0.047581	176.044	353.322	1.220191	0.091781	0.091564	354.155	48304.1	0.086283	0.236558	1497.11	90737.9
283	2.000000	1.222903	7.36783e+06	-52789.1	955.82	-29748.5	0.000000	0.000000	7.238603	378.13	NaN	0.000000	0.001625	0.001741	28.0795	90.9884	0.001795	50703.2	7.639559	-12.044	376.426	1.222514	0.094276	0.093887	378.13	50703.2	0.088683	0.248283	1522.98	92968.3
283	2.000000	1.225298	7.36783e+06	-52789.1	955.821	-29748.5	0.000000	0.000000	7.241954	401.377	NaN	0.000000	0.001638	0.001732	28.0796	92.7265	0.001714	54102.2	4.555606	170.657	396.073	1.225104	0.096671	0.096476	401.377	54102.2	0.091107	0.260393	1541.43	96866.5
283	2.000000	1.227852	7.36783e+06	-52789.1	955.821	-29748.5	0.000000	0.000000	7.245123	416.339	NaN	0.000000	0.001640	0.001732	28.0798	95.048	0.001766	53834.8	5.891974	-10.4334	409.891	1.227586	0.099225	0.098959	416.339	53834.8	0.093424	0.272221	1529.41	94270.4
283	2.000000	1.230469	7.36783e+06	-52789.1	955.82	-29748.5	0.000000	0.000000	7.248484	434.412	NaN	0.000000	0.001635	0.001726	28.0796	98.2922	0.001780	55229.5	6.519640	168.566	436.738	1.230036	0.101842	0.101409	434.412	55229.5	0.095943	0.285354	1522.36	94460.9
283	2.000000	1.232875	7.36783e+06	-52789.1	955.82	-29748.5	0.000000	0.000000	7.251431	447.585	NaN	0.000000	0.001619	0.001715	28.0795	100.266	0.001751	57254.6	4.894347	-10.4489	443.426	1.232587	0.104248	0.103959	447.585	57254.6	0.098385	0.298364	1500.13	95765.9
283	2.000000	1.235397	7.36783e+06	-52789.1	955.819	-29748.5	0.000000	0.000000	7.254896	470.514	NaN	0.000000	0.001630	0.001736	28.0795	103	0.001727	59624.9	3.258229	171.108	470.224	1.235247	0.106770	0.106620	470.514	59624.9	0.100851	0.311780	1509.12	97561.1
283	2.000000	1.237866	7.36783e+06	-52789.1	955.82	-29748.5	0.000000	0.000000	7.258504	498.214	NaN	0.000000	0.001645	0.001721	28.0799	103.928	0.001648	63074.5	4.375873	-9.972221	493.733	1.237556	0.109239	0.108929	498.214	63074.5	0.103314	0.325455	1530.82	101014
283	2.000000	1.238380	7.36783e+06	-52789.1	955.82	-29748.5	0.000000	0.000000	7.259224	503.204	NaN	0.000000	0.001662	0.001723	28.0799	106.142	0.001757	60395.1	5.605469	169.358	501.569	1.238042	0.109753	0.109415	503.204	60395.1	0.103504	0.326519	1541.11	96565.2