File: remote_trans/data/nanoindenter/0828-1/data/Data_2025-08-06,11h17m57s/2025-07-22_16-23-58_1_626.txt
2025-07-22, 16:23:58, 1
Index	Phase	Displacement	Time	Pos X	Pos Y	Pos Z	Rot A	Rot B	Piezo Z	Force A	Force B	Gripper	Voltage A	Voltage B	Temperature	Amplitude force	Amplitude pos	Stiffness	Phase shift	Phase excitation	Force A raw	Displacement raw	HMax	HMax raw	Real Force	Real Stiffness	Contact Depth	Area	Hardness	Reduced Mod.
[#]	[#]	[um]	[s]	[um]	[um]	[um]	[m°]	[m°]	[um]	[uN]	[uN]	[V]	[V]	[V]	[°C]	[uN]	[um]	[N/m]	[°]	[°]	[uN]	[um]	[um]	[um]	[uN]	[N/m]	[um]	[um^2]	[MPa]	[MPa]
626	1.000000	0.002571	7.37117e+06	-45789.1	1005.82	-29771.2	0.000000	0.000000	6.002817	-0.048328	NaN	0.000000	0.001623	0.001785	28.0817	0.013489	0.001013	13.3205	154.904	-173.181	0.022497	0.001335	-1.119565	-1.120801	-0.048328	13.3205	-1.116844	-8.435890E+14	5.728823E-17	NaN
626	1.000000	0.012610	7.37117e+06	-45789.1	1005.82	-29771.2	0.000000	0.000000	6.012858	-0.010444	NaN	0.000000	0.001616	0.001724	28.0817	0.127477	0.001227	103.892	61.705	17.7734	-0.044505	0.011213	-1.109526	-1.110923	-0.010444	103.892	-1.109451	-6.712991E+14	1.555764E-17	NaN
626	1.000000	0.022518	7.37117e+06	-45789.1	1005.82	-29771.2	0.000000	0.000000	6.022767	0.022236	NaN	0.000000	0.001614	0.001767	28.0817	0.103832	0.001792	57.957	-107.088	-166.153	-0.034341	0.021179	-1.099618	-1.100957	0.022236	57.957	-1.099906	-4.998128E+14	-4.448942E-17	NaN
626	1.000000	0.032514	7.37117e+06	-45789.1	1005.82	-29771.2	0.000000	0.000000	6.032760	-0.033448	NaN	0.000000	0.001583	0.001750	28.0814	0.057621	0.001944	29.6482	-138.685	14.2025	-0.007068	0.031104	-1.089623	-1.091032	-0.033448	29.6482	-1.088777	-3.543117E+14	9.440249E-17	NaN
626	1.000000	0.042516	7.37117e+06	-45789.1	1005.82	-29771.2	0.000000	0.000000	6.042762	-0.042032	NaN	0.000000	0.001592	0.001707	28.082	0.046774	0.001768	26.4492	-30.7905	-166.114	-0.033532	0.041225	-1.079621	-1.080911	-0.042032	26.4492	-1.078429	-2.572856E+14	1.633678E-16	NaN
626	1.000000	0.052540	7.37117e+06	-45789.1	1005.82	-29771.2	0.000000	0.000000	6.052783	-0.114273	NaN	0.000000	0.001607	0.001777	28.0814	0.056570	0.001963	28.8253	-141.5	12.3998	-0.065356	0.051120	-1.069597	-1.071017	-0.114273	28.8253	-1.066623	-1.785756E+14	6.399156E-16	NaN
626	1.000000	0.062504	7.37117e+06	-45789.1	1005.82	-29771.2	0.000000	0.000000	6.062752	0.005480	NaN	0.000000	0.001584	0.001768	28.0815	0.057695	0.001908	30.2351	-27.8372	-164.864	-0.009688	0.061173	-1.059632	-1.060964	0.005480	30.2351	-1.059768	-1.444462E+14	-3.794002E-17	NaN
626	1.000000	0.072506	7.37117e+06	-45789.1	1005.82	-29771.2	0.000000	0.000000	6.072752	-0.043537	NaN	0.000000	0.001560	0.001706	28.0817	0.055531	0.001993	27.8562	-115.252	13.8242	-0.038043	0.071168	-1.049630	-1.050968	-0.043537	27.8562	-1.048458	-1.017856E+14	4.277305E-16	NaN
626	1.000000	0.082529	7.37117e+06	-45789.1	1005.82	-29771.2	0.000000	0.000000	6.082775	-0.047223	NaN	0.000000	0.001603	0.001738	28.0817	0.083501	0.002077	40.2019	-50.9615	-164.865	-0.002113	0.081222	-1.039608	-1.040914	-0.047223	40.2019	-1.038727	-7.530895E+13	6.270554E-16	NaN
626	1.000000	0.092518	7.37117e+06	-45789.1	1005.82	-29771.2	0.000000	0.000000	6.092762	-0.090860	NaN	0.000000	0.001578	0.001735	28.0814	0.084563	0.002044	41.3654	-48.0558	10.9809	-0.126498	0.091159	-1.029618	-1.030978	-0.090860	41.3654	-1.027971	-5.397412E+13	1.683403E-15	NaN
626	1.000000	0.102513	7.37117e+06	-45789.1	1005.82	-29771.2	0.000000	0.000000	6.102758	-0.059577	NaN	0.000000	0.001579	0.001741	28.0816	0.118538	0.001905	62.2119	-43.3074	-167.572	-0.051737	0.101206	-1.019624	-1.020930	-0.059577	62.2119	-1.018906	-4.075950E+13	1.461673E-15	NaN
626	1.000000	0.112502	7.37117e+06	-45789.1	1005.82	-29771.2	0.000000	0.000000	6.112753	0.079363	NaN	0.000000	0.001623	0.001675	28.0827	0.083587	0.002053	40.7206	-92.0528	14.6803	-0.014027	0.111171	-1.009634	-1.010966	0.079363	40.7206	-1.011096	-3.199864E+13	-2.480197E-15	NaN
626	1.000000	0.122538	7.37117e+06	-45789.1	1005.82	-29771.2	0.000000	0.000000	6.122783	-0.056809	NaN	0.000000	0.001561	0.001742	28.0827	0.034197	0.001998	17.1175	-115.329	-165.901	-0.054033	0.121208	-0.999599	-1.000928	-0.056809	17.1175	-0.997110	-2.074208E+13	2.738822E-15	NaN
626	1.000000	0.132524	7.37117e+06	-45789.1	1005.82	-29771.2	0.000000	0.000000	6.132769	-0.060251	NaN	0.000000	0.001560	0.001747	28.0826	0.095379	0.002025	47.1097	85.2528	12.4951	-0.072556	0.131147	-0.989613	-0.990989	-0.060251	47.1097	-0.988654	-1.595809E+13	3.775576E-15	NaN
626	1.000000	0.142527	7.37117e+06	-45789.1	1005.82	-29771.2	0.000000	0.000000	6.142773	-0.043131	NaN	0.000000	0.001596	0.001701	28.0829	0.067105	0.002112	31.7738	169.673	-167.773	-0.089473	0.141249	-0.979609	-0.980887	-0.043131	31.7738	-0.978591	-1.167967E+13	3.692860E-15	NaN
626	1.000000	0.152551	7.37117e+06	-45789.1	1005.82	-29771.2	0.000000	0.000000	6.152799	-0.008007	NaN	0.000000	0.001534	0.001760	28.083	0.070506	0.001910	36.908	21.2467	15.3884	-0.053607	0.151193	-0.969585	-0.970944	-0.008007	36.908	-0.969423	-8.787835E+12	9.111971E-16	NaN
626	1.000000	0.162550	7.37117e+06	-45789.1	1005.82	-29771.2	0.000000	0.000000	6.162794	-0.105806	NaN	0.000000	0.001541	0.001723	28.0833	0.145321	0.001971	73.716	120.667	-162.226	-0.043341	0.161251	-0.959586	-0.960886	-0.105806	73.716	-0.958510	-6.262887E+12	1.689406E-14	NaN
626	1.000000	0.172564	7.37117e+06	-45789.1	1005.82	-29771.2	0.000000	0.000000	6.172807	-0.127966	NaN	0.000000	0.001540	0.001765	28.0828	0.055624	0.002128	26.1444	-121.521	11.4006	-0.039728	0.171199	-0.949572	-0.950938	-0.127966	26.1444	-0.945901	-4.233930E+12	3.022396E-14	NaN
626	1.000000	0.182549	7.37117e+06	-45789.1	1005.82	-29771.2	0.000000	0.000000	6.182795	-0.049808	NaN	0.000000	0.001553	0.001756	28.0832	0.108589	0.002091	51.9336	-57.4404	-167.877	0.037711	0.181265	-0.939588	-0.940872	-0.049808	51.9336	-0.938868	-3.403046E+12	1.463620E-14	NaN
626	1.000000	0.192557	7.37117e+06	-45789.1	1005.82	-29771.2	0.000000	0.000000	6.192805	0.012065	NaN	0.000000	0.001569	0.001751	28.0827	0.045373	0.002089	21.717	49.1738	14.1709	-0.006183	0.191253	-0.929579	-0.930883	0.012065	21.717	-0.929996	-2.583121E+12	-4.670623E-15	NaN
626	1.000000	0.202558	7.37118e+06	-45789.1	1005.82	-29771.2	0.000000	0.000000	6.202806	0.003648	NaN	0.000000	0.001573	0.001775	28.0828	0.014123	0.002010	7.024652	-144.864	-167.781	-0.025769	0.201254	-0.919578	-0.920882	0.003648	7.024652	-0.919968	-1.891338E+12	-1.928946E-15	NaN
626	1.000000	0.212578	7.37118e+06	-45789.1	1005.82	-29771.2	0.000000	0.000000	6.212827	0.026924	NaN	0.000000	0.001553	0.001776	28.0826	0.030376	0.002016	15.0645	32.7116	14.8511	0.072870	0.211227	-0.909558	-0.910909	0.026924	15.0645	-0.910899	-1.426606E+12	-1.887259E-14	NaN
626	1.000000	0.222559	7.37118e+06	-45789.1	1005.82	-29771.2	0.000000	0.000000	6.222809	0.033868	NaN	0.000000	0.001550	0.001762	28.0833	0.094677	0.001883	50.2899	-173.168	-169.322	0.020422	0.221284	-0.899577	-0.900853	0.033868	50.2899	-0.900082	-1.019007E+12	-3.323606E-14	NaN
626	1.000000	0.232555	7.37118e+06	-45789.1	1005.82	-29771.2	0.000000	0.000000	6.232802	-0.021440	NaN	0.000000	0.001534	0.001732	28.0827	0.074500	0.001874	39.7494	166.159	18.1723	-0.014089	0.231221	-0.889582	-0.890916	-0.021440	39.7494	-0.889177	-7.257554E+11	2.954121E-14	NaN
626	1.000000	0.242580	7.37118e+06	-45789.1	1005.82	-29771.2	0.000000	0.000000	6.242828	0.004876	NaN	0.000000	0.001560	0.001755	28.0829	0.042532	0.002064	20.6056	-68.8498	-167.715	-0.027991	0.241280	-0.879556	-0.880857	0.004876	20.6056	-0.879734	-5.408881E+11	-9.015200E-15	NaN
626	1.000000	0.252590	7.37118e+06	-45789.1	1005.82	-29771.2	0.000000	0.000000	6.252837	-0.035957	NaN	0.000000	0.001532	0.001744	28.0816	0.076561	0.001806	42.3907	-136.883	12.8151	-0.048696	0.251289	-0.869546	-0.870848	-0.035957	42.3907	-0.868910	-3.860975E+11	9.312912E-14	NaN
626	1.000000	0.262605	7.37118e+06	-45789.1	1005.82	-29771.2	0.000000	0.000000	6.262853	-0.011360	NaN	0.000000	0.001564	0.001691	28.0817	0.053358	0.002006	26.601	103.355	-163.045	0.018536	0.261293	-0.859531	-0.860844	-0.011360	26.601	-0.859211	-2.853911E+11	3.980500E-14	NaN
626	1.000000	0.272577	7.37118e+06	-45789.1	1005.82	-29771.2	0.000000	0.000000	6.272821	-0.084023	NaN	0.000000	0.001609	0.001692	28.0814	0.037582	0.001997	18.8173	-129.148	12.7585	-0.047520	0.271243	-0.849560	-0.850893	-0.084023	18.8173	-0.846211	-1.902936E+11	4.415424E-13	NaN
626	1.000000	0.282615	7.37118e+06	-45789.1	1005.82	-29771.2	0.000000	0.000000	6.282863	0.011248	NaN	0.000000	0.001577	0.001717	28.0815	0.118135	0.002066	57.1748	51.5761	-167.788	-0.001727	0.281296	-0.839522	-0.840840	0.011248	57.1748	-0.839669	-1.551720E+11	-7.248595E-14	NaN
626	1.000000	0.292585	7.37118e+06	-45789.1	1005.82	-29771.2	0.000000	0.000000	6.292831	-0.026697	NaN	0.000000	0.001597	0.001703	28.0817	0.011205	0.002099	5.338430	19.9386	12.8083	-0.014680	0.291236	-0.829552	-0.830900	-0.026697	5.338430	-0.825801	-1.006626E+11	2.652175E-13	NaN
626	1.000000	0.302613	7.37118e+06	-45789.1	1005.82	-29771.2	0.000000	0.000000	6.302858	-0.068723	NaN	0.000000	0.001590	0.001740	28.0814	0.043974	0.002037	21.5841	-41.2536	-167.676	-0.063414	0.301296	-0.819523	-0.820840	-0.068723	21.5841	-0.817135	-7.680021E+10	8.948336E-13	NaN
626	1.000000	0.312587	7.37118e+06	-45789.1	1005.82	-29771.2	0.000000	0.000000	6.312833	-0.048139	NaN	0.000000	0.001578	0.001746	28.0814	0.100704	0.002122	47.4563	80.6337	11.5525	-0.138290	0.311244	-0.809550	-0.810892	-0.048139	47.4563	-0.808789	-5.917483E+10	8.135075E-13	NaN
626	1.000000	0.322616	7.37118e+06	-45789.1	1005.82	-29771.2	0.000000	0.000000	6.322862	-0.043372	NaN	0.000000	0.001582	0.001717	28.0813	0.045175	0.001870	24.1641	59.9599	-168.03	-0.075834	0.321284	-0.799520	-0.800853	-0.043372	24.1641	-0.798174	-4.246925E+10	1.021251E-12	NaN
626	1.000000	0.332604	7.37118e+06	-45789.1	1005.82	-29771.2	0.000000	0.000000	6.332850	-0.027246	NaN	0.000000	0.001588	0.001704	28.0816	0.054566	0.001902	28.6813	-43.5565	13.3339	-0.041212	0.331281	-0.789533	-0.790855	-0.027246	28.6813	-0.788820	-3.170026E+10	8.594933E-13	NaN
626	1.000000	0.342634	7.37118e+06	-45789.1	1005.82	-29771.2	0.000000	0.000000	6.342878	-0.106543	NaN	0.000000	0.001572	0.001729	28.0813	0.147967	0.002067	71.5865	-148.518	-164.906	-0.029511	0.341321	-0.779502	-0.780816	-0.106543	71.5865	-0.778386	-2.287158E+10	4.658316E-12	NaN
626	1.000000	0.352597	7.37118e+06	-45789.1	1005.82	-29771.2	0.000000	0.000000	6.352842	-0.061329	NaN	0.000000	0.001600	0.001727	28.0813	0.044466	0.001922	23.139	-75.3921	11.9283	-0.064575	0.351287	-0.769540	-0.770849	-0.061329	23.139	-0.767552	-1.629361E+10	3.763983E-12	NaN
626	1.000000	0.362616	7.37118e+06	-45789.1	1005.82	-29771.2	0.000000	0.000000	6.362862	-0.040281	NaN	0.000000	0.001584	0.001744	28.0812	0.037691	0.001903	19.8023	-102.042	-169.629	0.000605	0.361314	-0.759521	-0.760822	-0.040281	19.8023	-0.757995	-1.207880E+10	3.334885E-12	NaN
626	1.000000	0.372630	7.37118e+06	-45789.1	1005.82	-29771.2	0.000000	0.000000	6.372876	-0.043931	NaN	0.000000	0.001625	0.001734	28.0815	0.057060	0.001981	28.8023	-70.0423	11.7262	-0.078646	0.371264	-0.749506	-0.750873	-0.043931	28.8023	-0.748362	-8.931471E+9	4.918724E-12	NaN
626	1.000000	0.382647	7.37118e+06	-45789.1	1005.82	-29771.2	0.000000	0.000000	6.382893	-0.046866	NaN	0.000000	0.001628	0.001734	28.0822	0.036572	0.001945	18.8024	25.2171	-169.688	0.062352	0.381332	-0.739490	-0.740804	-0.046866	18.8024	-0.737620	-6.377344E+9	7.348808E-12	NaN
626	1.000000	0.392646	7.37118e+06	-45789.1	1005.82	-29771.2	0.000000	0.000000	6.392892	-0.056542	NaN	0.000000	0.001583	0.001710	28.0827	0.115361	0.002183	52.8434	-92.5797	10.6669	-0.068726	0.391222	-0.729490	-0.730914	-0.056542	52.8434	-0.728688	-4.818620E+9	1.173409E-11	NaN
626	1.000000	0.402648	7.37118e+06	-45789.1	1005.82	-29771.2	0.000000	0.000000	6.402896	-0.011700	NaN	0.000000	0.001629	0.001760	28.0828	0.030773	0.001997	15.4086	-83.1777	-168.481	-0.034076	0.401391	-0.719488	-0.720745	-0.011700	15.4086	-0.718919	-3.545886E+9	3.299559E-12	NaN
626	1.000000	0.412699	7.37118e+06	-45789.1	1005.82	-29771.2	0.000000	0.000000	6.412945	-0.050789	NaN	0.000000	0.001596	0.001741	28.0829	0.072931	0.001961	37.1814	-114.159	12.8666	-0.070860	0.411267	-0.709437	-0.710870	-0.050789	37.1814	-0.708413	-2.549103E+9	1.992437E-11	NaN
626	1.000000	0.422656	7.37118e+06	-45789.1	1005.82	-29771.2	0.000000	0.000000	6.422899	-0.111488	NaN	0.000000	0.001623	0.001726	28.0827	0.005419	0.002146	2.524944	105.759	-166.241	-0.128861	0.421384	-0.699481	-0.700752	-0.111488	2.524944	-0.666365	-6.786220E+8	1.642853E-10	NaN
626	1.000000	0.432670	7.37118e+06	-45789.1	1005.82	-29771.2	0.000000	0.000000	6.432919	0.030198	NaN	0.000000	0.001601	0.001742	28.0829	0.061235	0.001859	32.9431	-27.6394	15.7904	0.012789	0.431331	-0.689466	-0.690806	0.030198	32.9431	-0.690154	-1.435556E+9	-2.103568E-11	NaN
626	1.000000	0.442676	7.37118e+06	-45789.1	1005.82	-29771.2	0.000000	0.000000	6.442920	-0.089931	NaN	0.000000	0.001633	0.001774	28.0828	0.096397	0.001884	51.1612	129.862	-165.726	-0.053673	0.441367	-0.679460	-0.680770	-0.089931	51.1612	-0.678142	-9.835418E+8	9.143593E-11	NaN
626	1.000000	0.452687	7.37118e+06	-45789.1	1005.82	-29771.2	0.000000	0.000000	6.452934	-0.033084	NaN	0.000000	0.001603	0.001758	28.0827	0.019329	0.002051	9.425417	98.8292	15.7064	0.001549	0.451363	-0.669449	-0.670774	-0.033084	9.425417	-0.666817	-6.883617E+8	4.806196E-11	NaN
626	1.000000	0.462659	7.37118e+06	-45789.1	1005.82	-29771.2	0.000000	0.000000	6.462903	-0.094273	NaN	0.000000	0.001624	0.001751	28.0825	0.079274	0.002137	37.1008	-143.837	-167.88	-0.127142	0.461347	-0.659477	-0.660789	-0.094273	37.1008	-0.657571	-5.142785E+8	1.833110E-10	NaN
626	1.000000	0.472681	7.37118e+06	-45789.1	1005.82	-29771.2	0.000000	0.000000	6.472926	-0.057886	NaN	0.000000	0.001619	0.001717	28.0827	0.085536	0.002096	40.8002	-156.799	13.533	0.000261	0.471332	-0.649456	-0.650804	-0.057886	40.8002	-0.648392	-3.849334E+8	1.503788E-10	NaN
626	1.000000	0.482717	7.37118e+06	-45789.1	1005.82	-29771.2	0.000000	0.000000	6.482961	-0.099897	NaN	0.000000	0.001621	0.001727	28.0824	0.067624	0.002002	33.779	-122.907	-166.003	-0.071590	0.481374	-0.639420	-0.640762	-0.099897	33.779	-0.637202	-2.703266E+8	3.695419E-10	NaN
626	1.000000	0.492689	7.37118e+06	-45789.1	1005.82	-29771.2	0.000000	0.000000	6.492935	-0.052186	NaN	0.000000	0.001612	0.001724	28.0826	0.074147	0.001989	37.2807	-152.876	11.7862	-0.046878	0.491304	-0.629448	-0.630832	-0.052186	37.2807	-0.628398	-2.046530E+8	2.549974E-10	NaN
626	1.000000	0.502704	7.37118e+06	-45789.1	1005.82	-29771.2	0.000000	0.000000	6.502950	-0.052091	NaN	0.000000	0.001622	0.001712	28.0824	0.063489	0.001880	33.7732	-114.705	-168.438	-0.052692	0.501402	-0.619432	-0.620735	-0.052091	33.7732	-0.618275	-1.485684E+8	3.506167E-10	NaN
626	1.000000	0.512706	7.37118e+06	-45789.1	1005.82	-29771.2	0.000000	0.000000	6.512952	-0.041046	NaN	0.000000	0.001606	0.001732	28.0827	0.042378	0.002124	19.9484	153.558	13.0001	0.025544	0.511346	-0.609430	-0.610791	-0.041046	19.9484	-0.607887	-1.069150E+8	3.839103E-10	NaN
626	1.000000	0.522699	7.37118e+06	-45789.1	1005.82	-29771.2	0.000000	0.000000	6.522944	-0.062558	NaN	0.000000	0.001582	0.001715	28.081	0.082554	0.001877	43.9923	28.2108	-165.585	-0.024359	0.521380	-0.599438	-0.600757	-0.062558	43.9923	-0.598371	-7.907327E+7	7.911456E-10	NaN
626	1.000000	0.532707	7.37118e+06	-45789.1	1005.82	-29771.2	0.000000	0.000000	6.532953	-0.038730	NaN	0.000000	0.001581	0.001724	28.0813	0.076970	0.002025	38.0155	48.4667	13.5685	0.003051	0.531372	-0.589430	-0.590765	-0.038730	38.0155	-0.588666	-5.811260E+7	6.664600E-10	NaN
626	1.000000	0.542715	7.37118e+06	-45789.1	1005.82	-29771.2	0.000000	0.000000	6.542965	0.045637	NaN	0.000000	0.001575	0.001730	28.0813	0.021391	0.002149	9.953996	-2.523509	-168.647	0.109034	0.541363	-0.579422	-0.580774	0.045637	9.953996	-0.582860	-4.832766E+7	-9.443257E-10	NaN
626	1.000000	0.552730	7.37118e+06	-45789.1	1005.82	-29771.2	0.000000	0.000000	6.552977	-0.011444	NaN	0.000000	0.001595	0.001734	28.0813	0.090183	0.001971	45.751	-153.175	11.5928	-0.009011	0.551351	-0.569407	-0.570786	-0.011444	45.751	-0.569219	-3.132164E+7	3.653755E-10	NaN
626	1.000000	0.562676	7.37118e+06	-45789.1	1005.82	-29771.2	0.000000	0.000000	6.562922	-0.042149	NaN	0.000000	0.001576	0.001751	28.0812	0.060670	0.001990	30.4911	-138.815	-165.316	-0.049076	0.561416	-0.559460	-0.560721	-0.042149	30.4911	-0.558424	-2.221095E+7	1.897677E-9	NaN
626	1.000000	0.572722	7.37118e+06	-45789.1	1005.82	-29771.2	0.000000	0.000000	6.572970	0.018319	NaN	0.000000	0.001573	0.001762	28.0812	0.127105	0.002051	61.9827	-153.766	13.935	0.014002	0.571373	-0.549415	-0.550763	0.018319	61.9827	-0.549636	-1.678484E+7	-1.091372E-9	NaN
626	1.000000	0.582747	7.37118e+06	-45789.1	1005.82	-29771.2	0.000000	0.000000	6.582995	-0.009360	NaN	0.000000	0.001506	0.001781	28.0813	0.058371	0.002029	28.7675	171.402	-164.979	0.078876	0.581409	-0.539389	-0.540728	-0.009360	28.7675	-0.539145	-1.200884E+7	7.794097E-10	NaN
626	1.000000	0.592728	7.37118e+06	-45789.1	1005.82	-29771.2	0.000000	0.000000	6.592976	0.014230	NaN	0.000000	0.001547	0.001733	28.0812	0.043585	0.002132	20.4462	-26.6995	13.2133	0.001147	0.591385	-0.529409	-0.530752	0.014230	20.4462	-0.529931	-8.94573e+06	-1.590758E-9	NaN
626	1.000000	0.602697	7.37118e+06	-45789.1	1005.82	-29771.2	0.000000	0.000000	6.602944	-0.021059	NaN	0.000000	0.001533	0.001691	28.0811	0.060528	0.001867	32.4218	138.643	-166.043	-0.025720	0.601467	-0.519440	-0.520669	-0.021059	32.4218	-0.518953	-6.29549e+06	3.345100E-9	NaN
626	1.000000	0.612725	7.37118e+06	-45789.1	1005.82	-29771.2	0.000000	0.000000	6.612971	-0.039290	NaN	0.000000	0.001569	0.001723	28.0812	0.037846	0.001906	19.8551	77.4046	12.7434	-0.053734	0.611415	-0.509412	-0.510721	-0.039290	19.8551	-0.507928	-4.42126e+06	8.886515E-9	NaN
626	1.000000	0.622784	7.37118e+06	-45789.1	1005.82	-29771.2	0.000000	0.000000	6.623030	-0.026149	NaN	0.000000	0.001582	0.001696	28.0813	0.135064	0.001994	67.7272	85.949	-166.715	-0.010317	0.621390	-0.499353	-0.500747	-0.026149	67.7272	-0.499063	-3.32621e+06	7.861611E-9	NaN
626	1.000000	0.632747	7.37118e+06	-45789.1	1005.82	-29771.2	0.000000	0.000000	6.632993	-0.052619	NaN	0.000000	0.001586	0.001746	28.0813	0.082235	0.001855	44.343	22.9484	15.7332	-0.082392	0.631359	-0.489389	-0.490777	-0.052619	44.343	-0.488499	-2.36819e+06	2.221892E-8	NaN
626	1.000000	0.642764	7.37118e+06	-45789.1	1005.82	-29771.2	0.000000	0.000000	6.643008	-0.092722	NaN	0.000000	0.001573	0.001754	28.0816	0.103789	0.002109	49.2205	115.254	-167.508	-0.047593	0.641477	-0.479373	-0.480659	-0.092722	49.2205	-0.477960	-1.68642e+06	5.498141E-8	NaN
626	1.000000	0.652734	7.37118e+06	-45789.1	1005.82	-29771.2	0.000000	0.000000	6.652981	-0.025528	NaN	0.000000	0.001583	0.001752	28.0817	0.053302	0.002032	26.2312	117.147	15.2525	-0.132636	0.651381	-0.469403	-0.470755	-0.025528	26.2312	-0.468673	-1.24966e+06	2.042779E-8	NaN
626	1.000000	0.662753	7.37118e+06	-45789.1	1005.82	-29771.2	0.000000	0.000000	6.663000	-0.016518	NaN	0.000000	0.001550	0.001743	28.0828	0.096803	0.001996	48.4936	-56.6303	-167.991	-0.015494	0.661503	-0.459383	-0.460634	-0.016518	48.4936	-0.459128	-917832	1.799672E-8	NaN
626	1.000000	0.672778	7.37118e+06	-45789.1	1005.82	-29771.2	0.000000	0.000000	6.673024	-0.028554	NaN	0.000000	0.001550	0.001754	28.0828	0.046639	0.002001	23.305	-66.7523	12.9007	-0.016662	0.671427	-0.449359	-0.450709	-0.028554	23.305	-0.448440	-649185	4.398413E-8	NaN
626	1.000000	0.682763	7.37118e+06	-45789.1	1005.82	-29771.2	0.000000	0.000000	6.683011	0.007613	NaN	0.000000	0.001553	0.001771	28.083	0.026581	0.002061	12.8959	-17.0701	-166.959	0.031279	0.681442	-0.439374	-0.440694	0.007613	12.8959	-0.439817	-490656	-1.551664E-8	NaN
626	1.000000	0.692776	7.37118e+06	-45789.1	1005.82	-29771.2	0.000000	0.000000	6.693022	-0.045726	NaN	0.000000	0.001593	0.001763	28.0826	0.102228	0.001948	52.4727	-94.7659	11.9095	-0.066964	0.691394	-0.429360	-0.430743	-0.045726	52.4727	-0.428707	-341794	1.337831E-7	NaN
626	1.000000	0.702770	7.37118e+06	-45789.1	1005.82	-29771.2	0.000000	0.000000	6.703019	0.033631	NaN	0.000000	0.001563	0.001761	28.0828	0.024463	0.001959	12.4877	-168.761	-168.545	0.013497	0.701469	-0.419367	-0.420667	0.033631	12.4877	-0.421386	-269200	-1.249292E-7	NaN
626	1.000000	0.712773	7.37118e+06	-45789.1	1005.82	-29771.2	0.000000	0.000000	6.713018	-0.047773	NaN	0.000000	0.001582	0.001723	28.0829	0.048116	0.001953	24.634	-79.9601	9.649196	-0.104098	0.711380	-0.409364	-0.410757	-0.047773	24.634	-0.407909	-173246	2.757521E-7	NaN
626	1.000000	0.722773	7.37118e+06	-45789.1	1005.82	-29771.2	0.000000	0.000000	6.723017	-0.086521	NaN	0.000000	0.001632	0.001738	28.083	0.024702	0.001994	12.3902	57.4649	-167.855	-0.091296	0.721464	-0.399364	-0.400672	-0.086521	12.3902	-0.394126	-110194	7.851720E-7	NaN
626	1.000000	0.732798	7.37118e+06	-45789.1	1005.82	-29771.2	0.000000	0.000000	6.733046	0.004378	NaN	0.000000	0.001589	0.001741	28.0828	0.096725	0.001986	48.7096	-148.607	12.4123	-0.045250	0.731428	-0.389339	-0.390709	0.004378	48.7096	-0.389406	-94335.1	-4.640953E-8	NaN
626	1.000000	0.742802	7.37118e+06	-45789.1	1005.82	-29771.2	0.000000	0.000000	6.743047	-0.053495	NaN	0.000000	0.001577	0.001729	28.0829	0.020095	0.002049	9.805316	-12.4668	-166.064	0.013258	0.741496	-0.379335	-0.380641	-0.053495	9.805316	-0.375243	-59096.9	9.052098E-7	NaN
626	1.000000	0.752772	7.37118e+06	-45789.1	1005.82	-29771.2	0.000000	0.000000	6.753018	-0.033805	NaN	0.000000	0.001595	0.001691	28.0828	0.062534	0.002125	29.4331	92.9577	12.6656	0.004122	0.751485	-0.369365	-0.370651	-0.033805	29.4331	-0.368503	-47268.2	7.151681E-7	NaN
626	1.000000	0.762804	7.37118e+06	-45789.1	1005.82	-29771.2	0.000000	0.000000	6.763049	-0.068145	NaN	0.000000	0.001603	0.001747	28.083	0.008581	0.001944	4.413913	-13.2541	-168.775	-0.006412	0.761478	-0.359332	-0.360659	-0.068145	4.413913	-0.347753	-23679.7	2.877769E-6	NaN
626	1.000000	0.772800	7.37118e+06	-45789.1	1005.82	-29771.2	0.000000	0.000000	6.773046	-0.058720	NaN	0.000000	0.001534	0.001715	28.0827	0.101394	0.002029	49.9665	-57.654	9.324264	-0.099176	0.771450	-0.349336	-0.350686	-0.058720	49.9665	-0.348455	-24242	2.422235E-6	NaN
626	1.000000	0.782797	7.37118e+06	-45789.1	1005.82	-29771.2	0.000000	0.000000	6.783044	-0.013178	NaN	0.000000	0.001622	0.001769	28.0828	0.033326	0.001987	16.7689	145.795	-167.818	0.001340	0.781510	-0.339339	-0.340626	-0.013178	16.7689	-0.338750	-17511.6	7.525369E-7	NaN
626	1.000000	0.792817	7.37118e+06	-45789.1	1005.82	-29771.2	0.000000	0.000000	6.793060	-0.118409	NaN	0.000000	0.001589	0.001743	28.0818	0.036415	0.001996	18.2474	-155.24	17.2762	-0.058378	0.791460	-0.329320	-0.330676	-0.118409	18.2474	-0.324453	-10816.9	1.094671E-5	NaN
626	1.000000	0.802818	7.37118e+06	-45789.1	1005.82	-29771.2	0.000000	0.000000	6.803063	-0.063993	NaN	0.000000	0.001559	0.001757	28.0818	0.011656	0.002112	5.519380	-17.6884	-169.206	-0.097122	0.801523	-0.319319	-0.320614	-0.063993	5.519380	-0.310623	-6765.08	9.459283E-6	NaN
626	1.000000	0.812827	7.37118e+06	-45789.1	1005.82	-29771.2	0.000000	0.000000	6.813074	-0.030586	NaN	0.000000	0.001586	0.001737	28.0816	0.035235	0.002023	17.4209	-149.734	14.7092	0.048277	0.811502	-0.309309	-0.310634	-0.030586	17.4209	-0.307993	-6184.89	4.945245E-6	NaN
626	1.000000	0.822842	7.37118e+06	-45789.1	1005.82	-29771.2	0.000000	0.000000	6.823086	-0.086093	NaN	0.000000	0.001594	0.001786	28.0816	0.086269	0.002009	42.934	137.805	-165.075	-0.058002	0.821506	-0.299295	-0.300630	-0.086093	42.934	-0.297791	-4362.38	1.973534E-5	NaN
626	1.000000	0.832796	7.37118e+06	-45789.1	1005.82	-29771.2	0.000000	0.000000	6.833040	-0.084465	NaN	0.000000	0.001627	0.001718	28.0818	0.019157	0.001934	9.907270	143.599	13.3444	-0.117191	0.831469	-0.289341	-0.290668	-0.084465	9.907270	-0.282947	-2614.43	3.230732E-5	NaN
626	1.000000	0.842867	7.37118e+06	-45789.1	1005.82	-29771.2	0.000000	0.000000	6.843111	-0.100692	NaN	0.000000	0.001616	0.001708	28.0822	0.036868	0.001938	19.0267	143.572	-168.149	-0.078912	0.841587	-0.279269	-0.280549	-0.100692	19.0267	-0.275300	-2004.21	5.024013E-5	NaN
626	1.000000	0.852823	7.37118e+06	-45789.1	1005.82	-29771.2	0.000000	0.000000	6.853071	0.004183	NaN	0.000000	0.001582	0.001758	28.0814	0.041159	0.002068	19.9005	-17.8962	13.0773	0.024727	0.851522	-0.269313	-0.270615	0.004183	19.9005	-0.269471	-1634.94	-2.558684E-6	NaN
626	1.000000	0.862846	7.37118e+06	-45789.1	1005.82	-29771.2	0.000000	0.000000	6.863095	0.038544	NaN	0.000000	0.001584	0.001726	28.0814	0.106314	0.002048	51.9072	-131.765	-166.075	0.021248	0.861525	-0.259291	-0.260611	0.038544	51.9072	-0.259848	-1165.68	-3.306555E-5	NaN
626	1.000000	0.872856	7.37118e+06	-45789.1	1005.82	-29771.2	0.000000	0.000000	6.873101	-0.051889	NaN	0.000000	0.001587	0.001753	28.0817	0.068233	0.001943	35.1116	-12.0943	10.7652	-0.072012	0.871532	-0.249281	-0.250604	-0.051889	35.1116	-0.248172	-770.33	6.735993E-5	NaN
626	1.000000	0.882865	7.37118e+06	-45789.1	1005.82	-29771.2	0.000000	0.000000	6.883110	-0.060535	NaN	0.000000	0.001591	0.001732	28.0815	0.105325	0.002070	50.8795	-100.942	-169.407	0.040100	0.881545	-0.239272	-0.240591	-0.060535	50.8795	-0.238380	-542.278	0.000112	NaN
626	1.000000	0.892866	7.37118e+06	-45789.1	1005.82	-29771.2	0.000000	0.000000	6.893112	-0.055395	NaN	0.000000	0.001557	0.001739	28.0816	0.045245	0.001936	23.3694	9.076245	11.4763	-0.041358	0.891513	-0.229270	-0.230624	-0.055395	23.3694	-0.227493	-365.482	0.000152	NaN
626	1.000000	0.902855	7.37118e+06	-45789.1	1005.82	-29771.2	0.000000	0.000000	6.903098	-0.097710	NaN	0.000000	0.001617	0.001731	28.0817	0.101537	0.002025	50.1495	-4.383767	-165.718	-0.068899	0.901472	-0.219282	-0.220664	-0.097710	50.1495	-0.217821	-256.331	0.000381	NaN
626	1.000000	0.912867	7.37118e+06	-45789.1	1005.82	-29771.2	0.000000	0.000000	6.913113	-0.032705	NaN	0.000000	0.001606	0.001756	28.0818	0.077665	0.001968	39.4626	-79.5715	16.914	0.038840	0.911438	-0.209270	-0.210698	-0.032705	39.4626	-0.208648	-182.351	0.000179	NaN
626	1.000000	0.922877	7.37118e+06	-45789.1	1005.82	-29771.2	0.000000	0.000000	6.923127	0.034895	NaN	0.000000	0.001580	0.001705	28.0815	0.104711	0.002127	49.2366	-145.792	-165.758	-0.025048	0.921558	-0.199259	-0.200579	0.034895	49.2366	-0.199791	-130.695	-0.000267	NaN
626	1.000000	0.932849	7.37118e+06	-45789.1	1005.82	-29771.2	0.000000	0.000000	6.933096	-0.017473	NaN	0.000000	0.001556	0.001726	28.0827	0.170262	0.002026	84.0463	-138.872	13.5105	-0.046928	0.931443	-0.189288	-0.190693	-0.017473	84.0463	-0.189132	-86.9991	0.000201	NaN
626	1.000000	0.942895	7.37118e+06	-45789.1	1005.82	-29771.2	0.000000	0.000000	6.943135	-0.192810	NaN	0.000000	0.001602	0.001739	28.083	0.005845	0.002059	2.839116	-53.3304	-167.684	-0.064457	0.941532	-0.179242	-0.180604	-0.192810	2.839116	-0.128308	-7.063835	0.027295	NaN
626	1.000000	0.952888	7.37118e+06	-45789.1	1005.82	-29771.2	0.000000	0.000000	6.953134	-0.042663	NaN	0.000000	0.001578	0.001739	28.0828	0.070621	0.001998	35.3474	169.665	10.9085	-0.050518	0.951544	-0.169248	-0.170593	-0.042663	35.3474	-0.168343	-38.4405	0.001110	NaN
626	1.000000	0.962874	7.37118e+06	-45789.1	1005.82	-29771.2	0.000000	0.000000	6.963120	-0.037514	NaN	0.000000	0.001566	0.001707	28.0829	0.083113	0.001912	43.4686	153.746	-168.51	-0.094741	0.961544	-0.159263	-0.160592	-0.037514	43.4686	-0.158615	-25.9023	0.001448	NaN
626	1.000000	0.972903	7.37118e+06	-45789.1	1005.82	-29771.2	0.000000	0.000000	6.973148	-0.074192	NaN	0.000000	0.001585	0.001727	28.083	0.039134	0.002077	18.8456	144.163	13.0199	-0.129721	0.971513	-0.149233	-0.150624	-0.074192	18.8456	-0.146281	-15.4816	0.004792	NaN
626	1.000000	0.982869	7.37118e+06	-45789.1	1005.82	-29771.2	0.000000	0.000000	6.983117	0.001261	NaN	0.000000	0.001578	0.001728	28.0829	0.037949	0.002040	18.6026	42.0853	-166.584	-0.019131	0.981615	-0.139268	-0.140521	0.001261	18.6026	-0.139318	-11.4855	-0.000110	NaN
626	1.000000	0.992898	7.37118e+06	-45789.1	1005.82	-29771.2	0.000000	0.000000	6.993145	-0.022654	NaN	0.000000	0.001579	0.001713	28.083	0.072069	0.002163	33.3256	6.453731	12.9691	-0.021873	0.991520	-0.129238	-0.130617	-0.022654	33.3256	-0.128728	-7.198707	0.003147	NaN
626	1.000000	1.002891	7.37118e+06	-45789.1	1005.82	-29771.2	0.000000	0.000000	7.003137	-0.040333	NaN	0.000000	0.001516	0.001692	28.0831	0.089817	0.002052	43.776	64.4608	-164.665	-0.096989	1.001531	-0.119246	-0.120605	-0.040333	43.776	-0.118555	-4.516734	0.008930	NaN
626	1.000000	1.012883	7.37118e+06	-45789.1	1005.82	-29771.2	0.000000	0.000000	7.013130	-0.011074	NaN	0.000000	0.001556	0.001703	28.0829	0.040804	0.002054	19.8628	51.4381	12.2022	0.053902	1.011530	-0.109254	-0.110606	-0.011074	19.8628	-0.108836	-2.839607	0.003900	NaN
626	1.000000	1.022900	7.37118e+06	-45789.1	1005.82	-29771.2	0.000000	0.000000	7.023144	-0.091996	NaN	0.000000	0.001521	0.001688	28.0829	0.074025	0.002069	35.7754	107.419	-164.263	-0.036187	1.021571	-0.099237	-0.100566	-0.091996	35.7754	-0.097308	-1.590986	0.057823	NaN
626	1.000000	1.032887	7.37118e+06	-45789.1	1005.82	-29771.2	0.000000	0.000000	7.033135	0.010432	NaN	0.000000	0.001552	0.001650	28.0828	0.096631	0.001742	55.4658	105.461	14.3848	-0.072823	1.031546	-0.089250	-0.090591	0.010432	55.4658	-0.089391	-1.045912	-0.009974	NaN
626	1.000000	1.042918	7.37118e+06	-45789.1	1005.82	-29771.2	0.000000	0.000000	7.043165	-2.312220E-6	NaN	0.000000	0.001576	0.001669	28.0828	0.040120	0.002060	19.4773	95.2146	-165.381	-0.092942	1.041623	-0.079219	-0.080513	-2.312220E-6	19.4773	-0.079219	-0.591702	3.907741E-6	NaN
626	1.000000	1.052905	7.37118e+06	-45789.1	1005.82	-29771.2	0.000000	0.000000	7.053151	-0.033619	NaN	0.000000	0.001579	0.001674	28.0828	0.039476	0.002103	18.7677	-157.322	11.8416	-0.090813	1.051612	-0.069232	-0.070524	-0.033619	18.7677	-0.067888	-0.299153	0.112382	NaN
626	1.000000	1.062930	7.37118e+06	-45789.1	1005.82	-29771.2	0.000000	0.000000	7.063174	-0.081421	NaN	0.000000	0.001574	0.001715	28.0826	0.100985	0.002026	49.8455	-24.6808	-166.991	-0.021348	1.061636	-0.059207	-0.060501	-0.081421	49.8455	-0.057982	-0.157483	0.517015	NaN
626	1.000000	1.072939	7.37118e+06	-45789.1	1005.82	-29771.2	0.000000	0.000000	7.073186	-0.000271	NaN	0.000000	0.001593	0.001681	28.0814	0.019469	0.002021	9.635675	-72.8885	15.372	-0.049338	1.071573	-0.049198	-0.050563	-0.000271	9.635675	-0.049177	-0.086160	0.003140	NaN
626	1.000000	1.082953	7.37118e+06	-45789.1	1005.82	-29771.2	0.000000	0.000000	7.083200	-0.002716	NaN	0.000000	0.001574	0.001753	28.0814	0.093975	0.002143	43.8429	-131.167	-167.334	-0.118491	1.081600	-0.039184	-0.040537	-0.002716	43.8429	-0.039137	-0.042579	0.063786	NaN
626	1.000000	1.092929	7.37118e+06	-45789.1	1005.82	-29771.2	0.000000	0.000000	7.093173	-0.086134	NaN	0.000000	0.001608	0.001697	28.0815	0.085859	0.002043	42.0203	-123.796	12.659	-0.050697	1.091603	-0.029208	-0.030533	-0.086134	42.0203	-0.027671	-0.019863	4.336410	NaN
626	1.000000	1.102922	7.37118e+06	-45789.1	1005.82	-29771.2	0.000000	0.000000	7.103168	-0.038590	NaN	0.000000	0.001696	0.001706	28.0815	0.040586	0.002018	20.1087	173.455	-164.456	0.045502	1.101602	-0.019215	-0.020535	-0.038590	20.1087	-0.017776	-0.011014	3.503723	NaN
626	1.000000	1.112921	7.37118e+06	-45789.1	1005.82	-29771.2	0.000000	0.000000	7.113168	-0.023936	NaN	0.000000	0.001662	0.001707	28.0815	0.100697	0.001956	51.474	-131.381	10.9884	-0.125896	1.111575	-0.009216	-0.010561	-0.023936	51.474	-0.008867	-0.005736	4.172852	NaN
626	1.000000	1.122925	7.37118e+06	-45789.1	1005.82	-29771.2	0.000000	0.000000	7.123253	1.939661	NaN	0.000000	0.001661	0.001739	28.0816	2.859827	0.001854	1542.17	5.194521	-163.581	0.869505	1.121627	0.000789	-0.000510	1.939661	1542.17	-0.000155	-0.000115	-16828.9	NaN
626	2.000000	1.130035	7.37118e+06	-45789.1	1005.82	-29771.2	0.000000	0.000000	7.130716	10.5505	NaN	0.000000	0.001646	0.001755	28.0813	9.252631	0.001498	6177.94	4.847548	6.429955	9.514750	1.129692	0.007898	0.007556	10.5505	6177.94	0.006617	0.005658	1864.56	75035.5
626	2.000000	1.132513	7.37118e+06	-45789.1	1005.82	-29771.2	0.000000	0.000000	7.133390	15.31	NaN	0.000000	0.001667	0.001742	28.0816	11.9766	0.001616	7409.73	10.1461	-178.619	15.07	1.132190	0.010376	0.010053	15.31	7409.73	0.008826	0.007906	1936.47	76136.6
626	2.000000	1.134988	7.37118e+06	-45789.1	1005.82	-29771.2	0.000000	0.000000	7.135983	18.1676	NaN	0.000000	0.001641	0.001768	28.0814	14.993	0.001796	8348.49	6.063653	4.873958	17.301	1.134643	0.012852	0.012507	18.1676	8348.49	0.011220	0.010569	1719.02	74194.7
626	2.000000	1.137479	7.37118e+06	-45789.1	1005.82	-29771.2	0.000000	0.000000	7.138691	23.4336	NaN	0.000000	0.001660	0.001732	28.0815	17.7158	0.001794	9873.41	6.380463	-178.363	22.5024	1.137200	0.015343	0.015064	23.4336	9873.41	0.013563	0.013416	1746.63	77879.2
626	2.000000	1.140022	7.37118e+06	-45789.1	1005.82	-29771.2	0.000000	0.000000	7.141451	28.734	NaN	0.000000	0.001670	0.001734	28.0813	19.5822	0.001785	10972.1	5.853392	2.134685	28.6848	1.139716	0.017886	0.017580	28.734	10972.1	0.015922	0.016534	1737.85	77959.5
626	2.000000	1.142457	7.37118e+06	-45789.1	1005.82	-29771.2	0.000000	0.000000	7.144141	34.954	NaN	0.000000	0.001670	0.001742	28.0812	21.8339	0.001854	11777.3	6.476581	-178.693	34.3865	1.142136	0.020320	0.020000	34.954	11777.3	0.018094	0.019636	1780.12	76788
626	2.000000	1.144941	7.37118e+06	-45789.1	1005.82	-29771.2	0.000000	0.000000	7.147016	44.4482	NaN	0.000000	0.001611	0.001715	28.0813	23.9044	0.001681	14220.5	3.845167	1.296003	42.7481	1.144604	0.022805	0.022468	44.4482	14220.5	0.020460	0.023271	1910.03	85168.8
626	2.000000	1.147476	7.37118e+06	-45789.1	1005.82	-29771.2	0.000000	0.000000	7.149602	45.7038	NaN	0.000000	0.001629	0.001699	28.0822	26.1361	0.001890	13831.1	-0.133908	-173.708	45.2142	1.147236	0.025339	0.025099	45.7038	13831.1	0.022861	0.027239	1677.89	76565.9
626	2.000000	1.149941	7.37118e+06	-45789.1	1005.82	-29771.2	0.000000	0.000000	7.152446	54.8988	NaN	0.000000	0.001663	0.001690	28.0824	28.6886	0.001904	15067.6	3.451902	1.845201	53.3741	1.149677	0.027805	0.027540	54.8988	15067.6	0.025072	0.031147	1762.59	78003.3
626	2.000000	1.152442	7.37118e+06	-45789.1	1005.82	-29771.2	0.000000	0.000000	7.155350	64.7112	NaN	0.000000	0.001694	0.001725	28.0828	30.761	0.001795	17133.3	5.447358	178.592	64.8072	1.152090	0.030305	0.029954	64.7112	17133.3	0.027472	0.035668	1814.29	82885.5
626	2.000000	1.154937	7.37118e+06	-45789.1	1005.82	-29771.2	0.000000	0.000000	7.158195	73.2333	NaN	0.000000	0.001687	0.001735	28.0826	33.486	0.001811	18491.3	4.790886	-1.927952	71.1428	1.154580	0.032800	0.032444	73.2333	18491.3	0.029830	0.040391	1813.09	84061.4
626	2.000000	1.157387	7.37118e+06	-45789.1	1005.82	-29771.2	0.000000	0.000000	7.161024	82.4516	NaN	0.000000	0.001678	0.001725	28.0829	36.2665	0.001893	19160.4	2.741140	-179.683	79.963	1.157107	0.035251	0.034971	82.4516	19160.4	0.032023	0.045041	1830.57	82484.4
626	2.000000	1.159904	7.37118e+06	-45789.1	1005.82	-29771.2	0.000000	0.000000	7.163938	92.1054	NaN	0.000000	0.001671	0.001711	28.0826	37.8633	0.001862	20338.5	3.575337	-0.744098	89.55	1.159554	0.037767	0.037418	92.1054	20338.5	0.034371	0.050291	1831.44	82860
626	2.000000	1.162470	7.37118e+06	-45789.1	1005.82	-29771.2	0.000000	0.000000	7.166832	100.102	NaN	0.000000	0.001709	0.001734	28.083	39.7649	0.001728	23008.8	4.051916	177.636	103.371	1.162183	0.040333	0.040046	100.102	23008.8	0.037070	0.056676	1766.22	88301.4
626	2.000000	1.164896	7.37118e+06	-45789.1	1005.82	-29771.2	0.000000	0.000000	7.169745	111.936	NaN	0.000000	0.001654	0.001710	28.0825	42.9847	0.001714	25080.7	6.000152	-4.909634	108.928	1.164472	0.042759	0.042336	111.936	25080.7	0.039412	0.062517	1790.49	91646.1
626	2.000000	1.167442	7.37118e+06	-45789.1	1005.82	-29771.2	0.000000	0.000000	7.172823	124.859	NaN	0.000000	0.001672	0.001748	28.0828	46.1613	0.001822	25329	3.032649	178.091	124.997	1.167112	0.045306	0.044976	124.859	25329	0.041608	0.068251	1829.39	88579.9
626	2.000000	1.169866	7.37118e+06	-45789.1	1005.82	-29771.2	0.000000	0.000000	7.175893	140.58	NaN	0.000000	0.001691	0.001763	28.0828	47.401	0.001836	25816.1	3.211232	-2.235969	137.571	1.169520	0.047730	0.047383	140.58	25816.1	0.043646	0.073789	1905.16	86829.4
626	2.000000	1.172371	7.37118e+06	-45789.1	1005.82	-29771.2	0.000000	0.000000	7.178737	148.817	NaN	0.000000	0.001660	0.001735	28.0829	49.0594	0.001770	27714	3.698821	176.911	147.927	1.172031	0.050235	0.049894	148.817	27714	0.046208	0.081053	1836.05	88938.2
626	2.000000	1.174882	7.37118e+06	-45789.1	1005.82	-29771.2	0.000000	0.000000	7.181850	163.48	NaN	0.000000	0.001674	0.001746	28.0827	52.0476	0.001817	28637.2	7.645452	-6.622872	161.873	1.174484	0.052745	0.052347	163.48	28637.2	0.048464	0.087724	1863.56	88337.1
626	2.000000	1.177368	7.37118e+06	-45789.1	1005.82	-29771.2	0.000000	0.000000	7.184592	169.707	NaN	0.000000	0.001698	0.001753	28.0829	55.1077	0.001850	29787.5	3.181919	175.611	168.283	1.177204	0.055232	0.055068	169.707	29787.5	0.050959	0.095400	1778.9	88111.6
626	2.000000	1.179917	7.37118e+06	-45789.1	1005.82	-29771.2	0.000000	0.000000	7.187876	187.562	NaN	0.000000	0.001672	0.001710	28.083	56.2284	0.001700	33079.1	3.649454	-4.904875	186.257	1.179477	0.057781	0.057340	187.562	33079.1	0.053528	0.103630	1809.92	93882.2
626	2.000000	1.182348	7.37118e+06	-45789.1	1005.82	-29771.2	0.000000	0.000000	7.191056	205.793	NaN	0.000000	0.001687	0.001735	28.0816	57.9034	0.001691	34250.1	4.917073	173.736	203.89	1.182056	0.060211	0.059920	205.793	34250.1	0.055705	0.110859	1856.34	93983
626	2.000000	1.184896	7.37118e+06	-45789.1	1005.82	-29771.2	0.000000	0.000000	7.194102	217.924	NaN	0.000000	0.001695	0.001702	28.0816	61.5901	0.001859	33136.7	6.192887	-6.564205	216.36	1.184390	0.062759	0.062253	217.924	33136.7	0.057827	0.118131	1844.77	88084.8
626	2.000000	1.187371	7.37118e+06	-45789.1	1005.82	-29771.2	0.000000	0.000000	7.197231	233.837	NaN	0.000000	0.001744	0.001680	28.082	63.6975	0.001819	35012.9	4.499193	173.927	233.293	1.187058	0.065234	0.064921	233.837	35012.9	0.060225	0.126617	1846.81	89899
626	2.000000	1.189904	7.37118e+06	-45789.1	1005.82	-29771.2	0.000000	0.000000	7.200176	243.852	NaN	0.000000	0.001664	0.001668	28.0819	65.6547	0.001802	36425.9	3.822997	-5.969716	241.613	1.189530	0.067767	0.067393	243.852	36425.9	0.062746	0.135840	1795.14	90296.2
626	2.000000	1.192396	7.37118e+06	-45789.1	1005.82	-29771.2	0.000000	0.000000	7.203441	262.653	NaN	0.000000	0.001708	0.001677	28.082	68.3867	0.001779	38445.1	6.958136	171.112	262.299	1.191952	0.070259	0.069815	262.653	38445.1	0.065136	0.144865	1813.09	92285.4
626	2.000000	1.194799	7.37118e+06	-45789.1	1005.82	-29771.2	0.000000	0.000000	7.206460	277.643	NaN	0.000000	0.001735	0.001685	28.0818	71.8481	0.001813	39629	5.283761	-8.159348	272.222	1.194472	0.072662	0.072336	277.643	39629	0.067408	0.153704	1806.35	92351.6
626	2.000000	1.197364	7.37118e+06	-45789.1	1005.82	-29771.2	0.000000	0.000000	7.209546	290.311	NaN	0.000000	0.001703	0.001662	28.0822	74.0786	0.001746	42419.9	4.332957	172.146	288.562	1.197087	0.075228	0.074950	290.311	42419.9	0.070095	0.164474	1765.09	95564
626	2.000000	1.199835	7.37118e+06	-45789.1	1005.82	-29771.2	0.000000	0.000000	7.212805	309.49	NaN	0.000000	0.001713	0.001683	28.0817	75.5079	0.001756	42997.1	2.907212	-5.697525	304.42	1.199513	0.077698	0.077376	309.49	42997.1	0.072300	0.173569	1783.09	94292.4
626	2.000000	1.202330	7.37118e+06	-45789.1	1005.82	-29771.2	0.000000	0.000000	7.216003	326.583	NaN	0.000000	0.001732	0.001686	28.082	77.3663	0.001730	44717.1	2.448937	174.225	324.254	1.202064	0.080193	0.079928	326.583	44717.1	0.074716	0.183799	1776.84	95296
626	2.000000	1.204763	7.37118e+06	-45789.1	1005.82	-29771.2	0.000000	0.000000	7.218898	337.822	NaN	0.000000	0.001708	0.001665	28.0817	81.2336	0.001752	46356.2	2.074306	-6.231904	331.555	1.204641	0.082627	0.082505	337.822	46356.2	0.077161	0.194433	1737.48	96049.8
626	2.000000	1.207324	7.37118e+06	-45789.1	1005.82	-29771.2	0.000000	0.000000	7.222637	366.457	NaN	0.000000	0.001710	0.001707	28.0824	85.5118	0.001904	44906.9	5.302637	171.119	363.922	1.207071	0.085188	0.084934	366.457	44906.9	0.079068	0.202917	1805.94	91080.7
626	2.000000	1.209914	7.37118e+06	-45789.1	1005.82	-29771.2	0.000000	0.000000	7.225889	382.579	NaN	0.000000	0.001723	0.001737	28.0819	85.7451	0.001739	49302.9	3.237151	-7.232798	383.621	1.209556	0.087777	0.087420	382.579	49302.9	0.081958	0.216102	1770.36	96898.2
626	2.000000	1.212325	7.37118e+06	-45789.1	1005.82	-29771.2	0.000000	0.000000	7.229300	406.905	NaN	0.000000	0.001733	0.001673	28.0823	87.1947	0.001775	49117.5	2.721471	173.266	404.088	1.212035	0.090188	0.089898	406.905	49117.5	0.083975	0.225536	1804.17	94493.3
626	2.000000	1.214674	7.37118e+06	-45789.1	1005.82	-29771.2	0.000000	0.000000	7.232184	419.918	NaN	0.000000	0.001714	0.001703	28.0818	89.7479	0.001808	49652.8	1.745296	-5.721576	407.491	1.214418	0.092538	0.092282	419.918	49652.8	0.086195	0.236135	1778.3	93354.8
626	2.000000	1.217389	7.37118e+06	-45789.1	1005.82	-29771.2	0.000000	0.000000	7.235612	437.256	NaN	0.000000	0.001727	0.001647	28.0833	92.9045	0.001755	52947.9	3.190880	172.344	438.835	1.217137	0.095253	0.095000	437.256	52947.9	0.089059	0.250144	1748.02	96722.4
626	2.000000	1.219745	7.37118e+06	-45789.1	1005.82	-29771.2	0.000000	0.000000	7.239127	465.476	NaN	0.000000	0.001682	0.001678	28.0832	94.7986	0.001809	52415.2	7.846230	-11.7998	457.713	1.219491	0.097608	0.097355	465.476	52415.2	0.090948	0.259590	1793.12	93991.1
626	2.000000	1.222302	7.37118e+06	-45789.1	1005.82	-29771.2	0.000000	0.000000	7.242588	487.458	NaN	0.000000	0.001688	0.001707	28.0834	96.617	0.001799	53711.7	4.595726	171.104	483.567	1.221934	0.100165	0.099797	487.458	53711.7	0.093359	0.271883	1792.9	94113.3
626	2.000000	1.224800	7.37118e+06	-45789.1	1005.82	-29771.2	0.000000	0.000000	7.245780	504.32	NaN	0.000000	0.001712	0.001678	28.0834	98.7858	0.001821	54248.9	-1.356960	-3.014846	499.699	1.224493	0.102664	0.102356	504.32	54248.9	0.095691	0.284030	1775.59	92999.9
626	2.000000	1.227271	7.37118e+06	-45789.1	1005.82	-29771.2	0.000000	0.000000	7.249048	523.731	NaN	0.000000	0.001706	0.001712	28.0833	103.009	0.001787	57659.6	6.651955	167.832	520.079	1.227039	0.105135	0.104902	523.731	57659.6	0.098322	0.298028	1757.32	96497.7