File: remote_trans/data/nanoindenter/0828-1/data/Data_2025-08-06,11h17m57s/2025-07-22_16-23-58_1_167.txt
2025-07-22, 16:23:58, 1
Index	Phase	Displacement	Time	Pos X	Pos Y	Pos Z	Rot A	Rot B	Piezo Z	Force A	Force B	Gripper	Voltage A	Voltage B	Temperature	Amplitude force	Amplitude pos	Stiffness	Phase shift	Phase excitation	Force A raw	Displacement raw	HMax	HMax raw	Real Force	Real Stiffness	Contact Depth	Area	Hardness	Reduced Mod.
[#]	[#]	[um]	[s]	[um]	[um]	[um]	[m°]	[m°]	[um]	[uN]	[uN]	[V]	[V]	[V]	[°C]	[uN]	[um]	[N/m]	[°]	[°]	[uN]	[um]	[um]	[um]	[uN]	[N/m]	[um]	[um^2]	[MPa]	[MPa]
167	1.000000	0.002565	7.36667e+06	-46989.1	955.817	-29767.9	0.000000	0.000000	6.002803	0.026169	NaN	0.000000	0.001640	0.001784	28.0908	0.040216	0.000941	42.7589	49.5393	-172.194	-0.067517	0.001301	-1.079501	-1.080765	0.026169	42.7589	-1.079960	-2.697616E+14	-9.700948E-17	NaN
167	1.000000	0.010524	7.36667e+06	-46989.1	955.818	-29767.9	0.000000	0.000000	6.010759	-0.025818	NaN	0.000000	0.001586	0.001788	28.0908	0.100306	0.000972	103.215	-126.677	-159.766	0.054132	0.009260	-1.071542	-1.072806	-0.025818	103.215	-1.071355	-2.067221E+14	1.248916E-16	NaN
167	1.000000	0.018523	7.36667e+06	-46989.1	955.818	-29767.9	0.000000	0.000000	6.018759	-0.004829	NaN	0.000000	0.001572	0.001799	28.0906	0.040241	0.001770	22.7373	106.305	-167.651	-0.039641	0.017240	-1.063543	-1.064826	-0.004829	22.7373	-1.063384	-1.615445E+14	2.989405E-17	NaN
167	1.000000	0.026526	7.36667e+06	-46989.1	955.819	-29767.9	0.000000	0.000000	6.026765	0.046971	NaN	0.000000	0.001614	0.001811	28.0908	0.073942	0.001782	41.4915	-18.0182	-162.92	-0.016832	0.025175	-1.055540	-1.056891	0.046971	41.4915	-1.056389	-1.301032E+14	-3.610308E-16	NaN
167	1.000000	0.034518	7.36667e+06	-46989.1	955.818	-29767.9	0.000000	0.000000	6.034754	-0.017029	NaN	0.000000	0.001597	0.001811	28.0905	0.068023	0.001969	34.5543	52.6056	-165.679	0.052842	0.033218	-1.047548	-1.048848	-0.017029	34.5543	-1.047179	-9.783282E+13	1.740628E-16	NaN
167	1.000000	0.042514	7.36667e+06	-46989.1	955.818	-29767.9	0.000000	0.000000	6.042752	0.027024	NaN	0.000000	0.001599	0.001785	28.0909	0.027483	0.001841	14.9254	61.1203	-168.428	0.057627	0.041233	-1.039552	-1.040833	0.027024	14.9254	-1.040910	-8.057617E+13	-3.353860E-16	NaN
167	1.000000	0.050530	7.36667e+06	-46989.1	955.818	-29767.9	0.000000	0.000000	6.050766	-0.021542	NaN	0.000000	0.001611	0.001793	28.0914	0.020279	0.001927	10.5241	27.1184	-167.798	-0.116626	0.049209	-1.031536	-1.032857	-0.021542	10.5241	-1.030001	-5.747634E+13	3.748047E-16	NaN
167	1.000000	0.058526	7.36667e+06	-46989.1	955.817	-29767.9	0.000000	0.000000	6.058762	-0.012170	NaN	0.000000	0.001592	0.001862	28.0903	0.068872	0.002067	33.3154	150.331	-165.332	-0.022646	0.057207	-1.023540	-1.024859	-0.012170	33.3154	-1.023266	-4.665415E+13	2.608496E-16	NaN
167	1.000000	0.066532	7.36667e+06	-46989.1	955.817	-29767.9	0.000000	0.000000	6.066770	0.035183	NaN	0.000000	0.001579	0.001807	28.0906	0.062629	0.002116	29.5934	-113.287	-167.085	0.005758	0.065182	-1.015534	-1.016884	0.035183	29.5934	-1.016426	-3.774508E+13	-9.321164E-16	NaN
167	1.000000	0.074534	7.36667e+06	-46989.1	955.819	-29767.9	0.000000	0.000000	6.074772	0.046163	NaN	0.000000	0.001613	0.001784	28.0906	0.042289	0.002071	20.4221	136.535	-166.254	0.037371	0.073181	-1.007532	-1.008885	0.046163	20.4221	-1.009228	-3.019851E+13	-1.528656E-15	NaN
167	1.000000	0.082523	7.36667e+06	-46989.1	955.818	-29767.9	0.000000	0.000000	6.082762	0.057459	NaN	0.000000	0.001667	0.001760	28.089	0.029702	0.001933	15.3682	-151.403	-164.452	0.061887	0.081182	-0.999543	-1.000884	0.057459	15.3682	-1.002347	-2.439870E+13	-2.354989E-15	NaN
167	1.000000	0.090542	7.36667e+06	-46989.1	955.818	-29767.9	0.000000	0.000000	6.090778	-0.016179	NaN	0.000000	0.001659	0.001795	28.0891	0.016324	0.002022	8.072953	0.855860	-166.501	-0.038636	0.089239	-0.991524	-0.992827	-0.016179	8.072953	-0.990021	-1.664900E+13	9.717502E-16	NaN
167	1.000000	0.098550	7.36667e+06	-46989.1	955.817	-29767.9	0.000000	0.000000	6.098789	0.075433	NaN	0.000000	0.001655	0.001796	28.0882	0.072511	0.002077	34.9133	-77.1436	-168.71	0.053871	0.097177	-0.983516	-0.984890	0.075433	34.9133	-0.985137	-1.430902E+13	-5.271742E-15	NaN
167	1.000000	0.106510	7.36667e+06	-46989.1	955.819	-29767.9	0.000000	0.000000	6.106748	0.016116	NaN	0.000000	0.001678	0.001785	28.0884	0.065173	0.001986	32.8107	24.1044	-166.818	0.051290	0.105227	-0.975556	-0.976839	0.016116	32.8107	-0.975924	-1.075214E+13	-1.498824E-15	NaN
167	1.000000	0.114547	7.36667e+06	-46989.1	955.819	-29767.9	0.000000	0.000000	6.114784	0.007937	NaN	0.000000	0.001700	0.001780	28.0891	0.032747	0.001975	16.5829	-54.3128	-166.802	-0.033423	0.113235	-0.967519	-0.968831	0.007937	16.5829	-0.967878	-8.376501E+12	-9.475047E-16	NaN
167	1.000000	0.122533	7.36667e+06	-46989.1	955.817	-29767.9	0.000000	0.000000	6.122770	0.009579	NaN	0.000000	0.001696	0.001788	28.0895	0.013515	0.001933	6.993356	-106.778	-164.945	-0.047042	0.121215	-0.959533	-0.960851	0.009579	6.993356	-0.960560	-6.674566E+12	-1.435201E-15	NaN
167	1.000000	0.130539	7.36667e+06	-46989.1	955.818	-29767.9	0.000000	0.000000	6.130776	0.003418	NaN	0.000000	0.001620	0.001761	28.0891	0.095932	0.001870	51.2931	129.973	-165.402	0.000575	0.129251	-0.951527	-0.952815	0.003418	51.2931	-0.951577	-5.050062E+12	-6.768988E-16	NaN
167	1.000000	0.138564	7.36667e+06	-46989.1	955.818	-29767.9	0.000000	0.000000	6.138799	-0.039433	NaN	0.000000	0.001633	0.001815	28.089	0.028944	0.002085	13.8821	-42.7037	-167.248	-0.081646	0.137250	-0.943502	-0.944816	-0.039433	13.8821	-0.941372	-3.678254E+12	1.072061E-14	NaN
167	1.000000	0.146539	7.36667e+06	-46989.1	955.817	-29767.9	0.000000	0.000000	6.146778	0.059009	NaN	0.000000	0.001614	0.001739	28.0889	0.072599	0.001862	38.9866	99.1234	-168.531	0.026430	0.145258	-0.935527	-0.936808	0.059009	38.9866	-0.936663	-3.177667E+12	-1.856998E-14	NaN
167	1.000000	0.154531	7.36667e+06	-46989.1	955.817	-29767.9	0.000000	0.000000	6.154767	-0.015539	NaN	0.000000	0.001602	0.001760	28.0887	0.015970	0.001947	8.204295	133.387	-164.437	-0.007819	0.153246	-0.927535	-0.928820	-0.015539	8.204295	-0.926114	-2.289557E+12	6.786798E-15	NaN
167	1.000000	0.162566	7.36667e+06	-46989.1	955.819	-29767.9	0.000000	0.000000	6.162804	0.022089	NaN	0.000000	0.001598	0.001772	28.0896	0.026538	0.001993	13.3152	115.658	-166.158	-0.089919	0.161274	-0.919500	-0.920792	0.022089	13.3152	-0.920744	-1.937527E+12	-1.140049E-14	NaN
167	1.000000	0.170553	7.36667e+06	-46989.1	955.817	-29767.9	0.000000	0.000000	6.170789	-0.021449	NaN	0.000000	0.001631	0.001757	28.0885	0.019717	0.001960	10.0598	-90.3729	-164.36	0.038646	0.169219	-0.911513	-0.912847	-0.021449	10.0598	-0.909914	-1.383577E+12	1.550228E-14	NaN
167	1.000000	0.178564	7.36667e+06	-46989.1	955.817	-29767.9	0.000000	0.000000	6.178802	0.030352	NaN	0.000000	0.001605	0.001743	28.0877	0.135400	0.001978	68.4495	80.7867	-167.241	0.040092	0.177272	-0.903502	-0.904794	0.030352	68.4495	-0.903834	-1.145180E+12	-2.650442E-14	NaN
167	1.000000	0.186569	7.36667e+06	-46989.1	955.818	-29767.9	0.000000	0.000000	6.186807	0.023201	NaN	0.000000	0.001599	0.001757	28.0872	0.132096	0.002088	63.2576	-144.683	-164.13	0.015751	0.185308	-0.895497	-0.896758	0.023201	63.2576	-0.895772	-8.911107E+11	-2.603657E-14	NaN
167	1.000000	0.194563	7.36667e+06	-46989.1	955.818	-29767.9	0.000000	0.000000	6.194797	-0.051498	NaN	0.000000	0.001620	0.001766	28.09	0.065773	0.002033	32.3592	-52.5501	-166.43	-0.005344	0.193261	-0.887503	-0.888805	-0.051498	32.3592	-0.886310	-6.637806E+11	7.758319E-14	NaN
167	1.000000	0.202575	7.36667e+06	-46989.1	955.817	-29767.9	0.000000	0.000000	6.202810	-0.029158	NaN	0.000000	0.001634	0.001787	28.0883	0.133352	0.001980	67.3666	-172.859	-165.618	-0.017185	0.201281	-0.879491	-0.880785	-0.029158	67.3666	-0.879167	-5.314195E+11	5.486781E-14	NaN
167	1.000000	0.210557	7.36667e+06	-46989.1	955.817	-29767.9	0.000000	0.000000	6.210795	0.021394	NaN	0.000000	0.001611	0.001794	28.089	0.051720	0.001934	26.7432	134.503	-165.08	0.136398	0.209252	-0.871509	-0.872814	0.021394	26.7432	-0.872109	-4.265555E+11	-5.015529E-14	NaN
167	1.000000	0.218593	7.36667e+06	-46989.1	955.819	-29767.9	0.000000	0.000000	6.218833	0.078280	NaN	0.000000	0.001600	0.001818	28.0878	0.024807	0.002204	11.256	114.282	-166.81	0.111187	0.217303	-0.863473	-0.864763	0.078280	11.256	-0.868689	-3.834443E+11	-2.041486E-13	NaN
167	1.000000	0.226596	7.36667e+06	-46989.1	955.818	-29767.9	0.000000	0.000000	6.226833	0.005716	NaN	0.000000	0.001615	0.001815	28.0912	0.139829	0.001972	70.8981	149.398	-168.871	0.068965	0.225260	-0.855470	-0.856806	0.005716	70.8981	-0.855530	-2.544577E+11	-2.246310E-14	NaN
167	1.000000	0.234603	7.36667e+06	-46989.1	955.818	-29767.9	0.000000	0.000000	6.234839	-0.032923	NaN	0.000000	0.001617	0.001818	28.0896	0.006564	0.001916	3.426093	-113.599	-164.925	-0.026407	0.233318	-0.847463	-0.848748	-0.032923	3.426093	-0.840255	-1.580348E+11	2.083294E-13	NaN
167	1.000000	0.242597	7.36667e+06	-46989.1	955.817	-29767.9	0.000000	0.000000	6.242835	0.019174	NaN	0.000000	0.001613	0.001821	28.0905	0.082234	0.002022	40.663	-96.1541	-166.295	-0.012906	0.241209	-0.839469	-0.840857	0.019174	40.663	-0.839822	-1.559136E+11	-1.229772E-13	NaN
167	1.000000	0.250587	7.36667e+06	-46989.1	955.817	-29767.9	0.000000	0.000000	6.250821	-0.065716	NaN	0.000000	0.001672	0.001818	28.0899	0.068360	0.001929	35.4401	148.426	-170.186	-0.025237	0.249273	-0.831479	-0.832793	-0.065716	35.4401	-0.830088	-1.150757E+11	5.710673E-13	NaN
167	1.000000	0.258593	7.36667e+06	-46989.1	955.819	-29767.9	0.000000	0.000000	6.258826	-0.087145	NaN	0.000000	0.001693	0.001754	28.0895	0.031380	0.002042	15.3693	16.4062	-165.03	-0.132635	0.257271	-0.823473	-0.824796	-0.087145	15.3693	-0.819221	-8.196821E+10	1.063154E-12	NaN
167	1.000000	0.266603	7.36667e+06	-46989.1	955.817	-29767.9	0.000000	0.000000	6.266839	-0.014640	NaN	0.000000	0.001646	0.001792	28.0886	0.051820	0.002054	25.2265	64.1525	-170.963	0.041321	0.265277	-0.815463	-0.816789	-0.014640	25.2265	-0.815028	-7.190773E+10	2.035892E-13	NaN
167	1.000000	0.274589	7.36667e+06	-46989.1	955.818	-29767.9	0.000000	0.000000	6.274823	-0.065777	NaN	0.000000	0.001668	0.001759	28.09	0.062609	0.001995	31.3872	-9.375680	-164.845	-0.067899	0.273328	-0.807477	-0.808738	-0.065777	31.3872	-0.805905	-5.407617E+10	1.216374E-12	NaN
167	1.000000	0.282613	7.36667e+06	-46989.1	955.818	-29767.9	0.000000	0.000000	6.282849	-0.007292	NaN	0.000000	0.001665	0.001750	28.0907	0.084469	0.001726	48.9477	-112.492	-164.173	0.015598	0.281364	-0.799453	-0.800702	-0.007292	48.9477	-0.799342	-4.404792E+10	1.655522E-13	NaN
167	1.000000	0.290618	7.36667e+06	-46989.1	955.819	-29767.9	0.000000	0.000000	6.290855	0.008970	NaN	0.000000	0.001652	0.001764	28.0902	0.078381	0.002051	38.2235	-104.699	-165.224	0.095842	0.289345	-0.791448	-0.792721	0.008970	38.2235	-0.791624	-3.460538E+10	-2.592037E-13	NaN
167	1.000000	0.298632	7.36667e+06	-46989.1	955.818	-29767.9	0.000000	0.000000	6.298870	0.032665	NaN	0.000000	0.001639	0.001787	28.0898	0.083053	0.002046	40.5855	-166.437	-168.131	0.018251	0.297370	-0.783434	-0.784696	0.032665	40.5855	-0.784038	-2.729562E+10	-1.196721E-12	NaN
167	1.000000	0.306634	7.36667e+06	-46989.1	955.817	-29767.9	0.000000	0.000000	6.306870	-0.009428	NaN	0.000000	0.001644	0.001763	28.0896	0.105094	0.002015	52.1574	122.307	-165.19	-0.057870	0.305297	-0.775432	-0.776769	-0.009428	52.1574	-0.775297	-2.076388E+10	4.540667E-13	NaN
167	1.000000	0.314612	7.36667e+06	-46989.1	955.818	-29767.9	0.000000	0.000000	6.314849	0.018230	NaN	0.000000	0.001663	0.001785	28.0892	0.109179	0.002008	54.3662	71.5815	-166.586	-0.069442	0.313301	-0.767454	-0.768765	0.018230	54.3662	-0.767706	-1.637222E+10	-1.113470E-12	NaN
167	1.000000	0.322617	7.36667e+06	-46989.1	955.817	-29767.9	0.000000	0.000000	6.322852	-0.026304	NaN	0.000000	0.001663	0.001774	28.0894	0.037355	0.002019	18.4989	-65.4209	-167.656	0.036555	0.321325	-0.759449	-0.760741	-0.026304	18.4989	-0.758383	-1.222642E+10	2.151414E-12	NaN
167	1.000000	0.330658	7.36667e+06	-46989.1	955.818	-29767.9	0.000000	0.000000	6.330896	0.045371	NaN	0.000000	0.001687	0.001808	28.0898	0.116968	0.001942	60.2187	92.2878	-165.437	0.025579	0.329333	-0.751408	-0.752733	0.045371	60.2187	-0.751973	-1.000178E+10	-4.536307E-12	NaN
167	1.000000	0.338652	7.36667e+06	-46989.1	955.818	-29767.9	0.000000	0.000000	6.338890	0.052543	NaN	0.000000	0.001625	0.001771	28.0909	0.127561	0.002059	61.9512	99.7596	-165.111	-0.016131	0.337288	-0.743414	-0.744778	0.052543	61.9512	-0.744050	-7.802218E+9	-6.734312E-12	NaN
167	1.000000	0.346661	7.36667e+06	-46989.1	955.818	-29767.9	0.000000	0.000000	6.346895	-0.074757	NaN	0.000000	0.001607	0.001786	28.0891	0.037644	0.002020	18.6361	24.0797	-165.73	-0.013578	0.345335	-0.735405	-0.736731	-0.074757	18.6361	-0.732396	-5.413317E+9	1.380978E-11	NaN
167	1.000000	0.354641	7.36667e+06	-46989.1	955.819	-29767.9	0.000000	0.000000	6.354877	-0.008088	NaN	0.000000	0.001613	0.001804	28.0901	0.025448	0.001991	12.7792	-68.2056	-167.677	-0.022864	0.353305	-0.727426	-0.728762	-0.008088	12.7792	-0.726951	-4.562960E+9	1.772503E-12	NaN
167	1.000000	0.362653	7.36667e+06	-46989.1	955.819	-29767.9	0.000000	0.000000	6.362889	-0.029844	NaN	0.000000	0.001628	0.001780	28.0882	0.073992	0.001894	39.0659	-46.2191	-164.315	-0.071436	0.361391	-0.719413	-0.720675	-0.029844	39.0659	-0.718840	-3.537101E+9	8.437361E-12	NaN
167	1.000000	0.370653	7.36667e+06	-46989.1	955.817	-29767.9	0.000000	0.000000	6.370888	-0.041374	NaN	0.000000	0.001605	0.001790	28.0893	0.062502	0.002076	30.1073	26.3356	-168.265	-0.112468	0.369361	-0.711413	-0.712705	-0.041374	30.1073	-0.710382	-2.711822E+9	1.525677E-11	NaN
167	1.000000	0.378656	7.36667e+06	-46989.1	955.818	-29767.9	0.000000	0.000000	6.378891	-0.033850	NaN	0.000000	0.001610	0.001775	28.0888	0.115691	0.002165	53.4483	-93.9828	-163.868	-0.044469	0.377364	-0.703410	-0.704702	-0.033850	53.4483	-0.702935	-2.145889E+9	1.577422E-11	NaN
167	1.000000	0.386643	7.36667e+06	-46989.1	955.818	-29767.9	0.000000	0.000000	6.386881	0.044877	NaN	0.000000	0.001603	0.001803	28.0889	0.029766	0.001976	15.0605	-32.9306	-170.503	0.017589	0.385361	-0.695424	-0.696705	0.044877	15.0605	-0.697658	-1.817814E+9	-2.468716E-11	NaN
167	1.000000	0.394685	7.36667e+06	-46989.1	955.818	-29767.9	0.000000	0.000000	6.394922	0.004479	NaN	0.000000	0.001596	0.001755	28.0887	0.046987	0.001956	24.0177	-179.329	-165.799	0.066714	0.393352	-0.687381	-0.688714	0.004479	24.0177	-0.687521	-1.321415E+9	-3.389886E-12	NaN
167	1.000000	0.402634	7.36667e+06	-46989.1	955.818	-29767.9	0.000000	0.000000	6.402871	0.009400	NaN	0.000000	0.001602	0.001735	28.0884	0.024209	0.001905	12.7089	-85.1173	-166.923	-0.024975	0.401345	-0.679432	-0.680721	0.009400	12.7089	-0.679987	-1.042392E+9	-9.018043E-12	NaN
167	1.000000	0.410677	7.36667e+06	-46989.1	955.817	-29767.9	0.000000	0.000000	6.410915	0.021954	NaN	0.000000	0.001614	0.001781	28.0885	0.088024	0.002046	43.0213	151.815	-163.75	0.064996	0.409290	-0.671389	-0.672776	0.021954	43.0213	-0.671772	-8.047054E+8	-2.728157E-11	NaN
167	1.000000	0.418668	7.36667e+06	-46989.1	955.819	-29767.9	0.000000	0.000000	6.418903	-0.043466	NaN	0.000000	0.001596	0.001758	28.0882	0.116950	0.002040	57.3219	-177.151	-167.564	-0.126232	0.417377	-0.663398	-0.664689	-0.043466	57.3219	-0.662830	-6.070489E+8	7.160236E-11	NaN
167	1.000000	0.426663	7.36667e+06	-46989.1	955.817	-29767.9	0.000000	0.000000	6.426898	-0.033097	NaN	0.000000	0.001576	0.001724	28.088	0.076421	0.001876	40.7399	-172.745	-164.429	-0.040967	0.425278	-0.655403	-0.656788	-0.033097	40.7399	-0.654794	-4.711304E+8	7.025044E-11	NaN
167	1.000000	0.434701	7.36667e+06	-46989.1	955.817	-29767.9	0.000000	0.000000	6.434933	-0.115931	NaN	0.000000	0.001580	0.001774	28.0885	0.019822	0.001925	10.2978	-160.13	-168.833	-0.116094	0.433403	-0.647365	-0.648663	-0.115931	10.2978	-0.638921	-2.854239E+8	4.061715E-10	NaN
167	1.000000	0.442702	7.36667e+06	-46989.1	955.818	-29767.9	0.000000	0.000000	6.442935	-0.086262	NaN	0.000000	0.001594	0.001760	28.0881	0.072411	0.001976	36.6379	-34.3728	-166.979	-0.114915	0.441361	-0.639364	-0.640705	-0.086262	36.6379	-0.637598	-2.737360E+8	3.151281E-10	NaN
167	1.000000	0.450678	7.36667e+06	-46989.1	955.818	-29767.9	0.000000	0.000000	6.450917	0.046081	NaN	0.000000	0.001592	0.001783	28.088	0.123446	0.001952	63.2361	-171.921	-167.359	-0.041415	0.449366	-0.631388	-0.632700	0.046081	63.2361	-0.631934	-2.288669E+8	-2.013459E-10	NaN
167	1.000000	0.458673	7.36667e+06	-46989.1	955.817	-29767.9	0.000000	0.000000	6.458909	-0.011433	NaN	0.000000	0.001585	0.001790	28.0883	0.052100	0.002078	25.0718	129.806	-170.418	0.008524	0.457423	-0.623393	-0.624643	-0.011433	25.0718	-0.623051	-1.728086E+8	6.615840E-11	NaN
167	1.000000	0.466693	7.36667e+06	-46989.1	955.817	-29767.9	0.000000	0.000000	6.466929	-0.017518	NaN	0.000000	0.001586	0.001766	28.0881	0.080465	0.002036	39.5216	-49.8303	-168.855	-0.001893	0.465438	-0.615373	-0.616628	-0.017518	39.5216	-0.615041	-1.341071E+8	1.306270E-10	NaN
167	1.000000	0.474676	7.36667e+06	-46989.1	955.818	-29767.9	0.000000	0.000000	6.474912	-0.015784	NaN	0.000000	0.001600	0.001755	28.0878	0.089031	0.001947	45.7331	152.75	-165.062	0.003463	0.473321	-0.607390	-0.608745	-0.015784	45.7331	-0.607132	-1.043865E+8	1.512047E-10	NaN
167	1.000000	0.482695	7.36667e+06	-46989.1	955.818	-29767.9	0.000000	0.000000	6.482929	-0.052024	NaN	0.000000	0.001594	0.001748	28.0873	0.046151	0.002038	22.6481	125.187	-165.468	-0.000677	0.481398	-0.599371	-0.600668	-0.052024	22.6481	-0.597648	-7.728010E+7	6.731839E-10	NaN
167	1.000000	0.490721	7.36667e+06	-46989.1	955.818	-29767.9	0.000000	0.000000	6.490954	-0.081620	NaN	0.000000	0.001570	0.001817	28.0877	0.094874	0.002167	43.7851	88.8582	-169.126	-0.092109	0.489430	-0.591345	-0.592636	-0.081620	43.7851	-0.589947	-6.052473E+7	1.348534E-9	NaN
167	1.000000	0.498704	7.36667e+06	-46989.1	955.818	-29767.9	0.000000	0.000000	6.498940	-0.004632	NaN	0.000000	0.001618	0.001815	28.0882	0.122430	0.002015	60.7661	-169.566	-168.669	-0.069714	0.497430	-0.583362	-0.584636	-0.004632	60.7661	-0.583305	-4.901569E+7	9.450279E-11	NaN
167	1.000000	0.506714	7.36667e+06	-46989.1	955.818	-29767.9	0.000000	0.000000	6.506948	-0.063149	NaN	0.000000	0.001592	0.001833	28.0883	0.100933	0.001925	52.4349	161.163	-165.617	-0.017940	0.505357	-0.575353	-0.576709	-0.063149	52.4349	-0.574449	-3.699073E+7	1.707150E-9	NaN
167	1.000000	0.514703	7.36667e+06	-46989.1	955.818	-29767.9	0.000000	0.000000	6.514934	-0.128140	NaN	0.000000	0.001610	0.001816	28.0892	0.090606	0.001932	46.9086	-73.3496	-168.912	-0.068957	0.513493	-0.567363	-0.568573	-0.128140	46.9086	-0.565314	-2.766124E+7	4.632489E-9	NaN
167	1.000000	0.522739	7.36667e+06	-46989.1	955.818	-29767.9	0.000000	0.000000	6.522974	-0.037807	NaN	0.000000	0.001569	0.001810	28.0892	0.112479	0.002026	55.5124	-153.903	-167.488	0.005825	0.521381	-0.559327	-0.560685	-0.037807	55.5124	-0.558816	-2.249072E+7	1.681021E-9	NaN
167	1.000000	0.530719	7.36667e+06	-46989.1	955.818	-29767.9	0.000000	0.000000	6.530955	-0.003467	NaN	0.000000	0.001600	0.001769	28.0899	0.116972	0.001899	61.6096	-135.454	-166.614	-0.069373	0.529396	-0.551347	-0.552670	-0.003467	61.6096	-0.551305	-1.770240E+7	1.958729E-10	NaN
167	1.000000	0.538717	7.36667e+06	-46989.1	955.817	-29767.9	0.000000	0.000000	6.538952	-0.042277	NaN	0.000000	0.001586	0.001772	28.0895	0.071317	0.001978	36.0625	92.7562	-163.593	-0.019979	0.537402	-0.543349	-0.544664	-0.042277	36.0625	-0.542470	-1.335375E+7	3.165926E-9	NaN
167	1.000000	0.546706	7.36667e+06	-46989.1	955.818	-29767.9	0.000000	0.000000	6.546942	-0.008549	NaN	0.000000	0.001595	0.001814	28.0888	0.100190	0.002116	47.3535	100.826	-167.332	-0.020379	0.545417	-0.535360	-0.536649	-0.008549	47.3535	-0.535225	-1.059530E+7	8.068211E-10	NaN
167	1.000000	0.554703	7.36667e+06	-46989.1	955.818	-29767.9	0.000000	0.000000	6.554938	-0.030867	NaN	0.000000	0.001608	0.001746	28.0883	0.054411	0.002066	26.3405	34.6538	-167.351	-0.000527	0.553407	-0.527363	-0.528660	-0.030867	26.3405	-0.526484	-8.01192e+06	3.852671E-9	NaN
167	1.000000	0.562706	7.36667e+06	-46989.1	955.818	-29767.9	0.000000	0.000000	6.562944	0.030281	NaN	0.000000	0.001611	0.001768	28.0881	0.109621	0.001894	57.8914	30.182	-170.515	0.048198	0.561404	-0.519360	-0.520662	0.030281	57.8914	-0.519752	-6.45872e+06	-4.688417E-9	NaN
167	1.000000	0.570704	7.36667e+06	-46989.1	955.817	-29767.9	0.000000	0.000000	6.570941	0.023998	NaN	0.000000	0.001671	0.001760	28.0879	0.118902	0.001985	59.9034	112.037	-165.577	0.040035	0.569425	-0.511362	-0.512641	0.023998	59.9034	-0.511663	-4.98395e+06	-4.815043E-9	NaN
167	1.000000	0.578762	7.36667e+06	-46989.1	955.817	-29767.9	0.000000	0.000000	6.578997	-0.037748	NaN	0.000000	0.001665	0.001788	28.0878	0.005145	0.001980	2.597959	112.532	-162.864	-0.048574	0.577443	-0.503304	-0.504623	-0.037748	2.597959	-0.492406	-2.68544e+06	1.405664E-8	NaN
167	1.000000	0.586757	7.36667e+06	-46989.1	955.818	-29767.9	0.000000	0.000000	6.586992	-0.036219	NaN	0.000000	0.001643	0.001762	28.0884	0.074127	0.002011	36.8591	109.481	-166.095	0.045372	0.585436	-0.495309	-0.496630	-0.036219	36.8591	-0.494572	-2.87913e+06	1.257982E-8	NaN
167	1.000000	0.594770	7.36667e+06	-46989.1	955.818	-29767.9	0.000000	0.000000	6.595008	0.014697	NaN	0.000000	0.001648	0.001735	28.0898	0.061032	0.002084	29.283	143.346	-167.23	0.007442	0.593468	-0.487296	-0.488598	0.014697	29.283	-0.487672	-2.30598e+06	-6.373578E-9	NaN
167	1.000000	0.602755	7.36667e+06	-46989.1	955.817	-29767.9	0.000000	0.000000	6.602990	-0.020200	NaN	0.000000	0.001686	0.001745	28.0887	0.049342	0.002053	24.0337	123.587	-166.926	0.016643	0.601416	-0.479312	-0.480650	-0.020200	24.0337	-0.478681	-1.72609e+06	1.170279E-8	NaN
167	1.000000	0.610764	7.36667e+06	-46989.1	955.817	-29767.9	0.000000	0.000000	6.611000	-0.013706	NaN	0.000000	0.001656	0.001778	28.0894	0.114683	0.002020	56.7777	-38.2213	-169.528	0.040894	0.609464	-0.471302	-0.472602	-0.013706	56.7777	-0.471121	-1.35247e+06	1.013411E-8	NaN
167	1.000000	0.618747	7.36667e+06	-46989.1	955.818	-29767.9	0.000000	0.000000	6.618981	-0.044948	NaN	0.000000	0.001676	0.001786	28.0891	0.044032	0.001903	23.1329	4.033338	-165.352	-0.085557	0.617434	-0.463320	-0.464632	-0.044948	23.1329	-0.461862	-1.00273e+06	4.482569E-8	NaN
167	1.000000	0.626787	7.36667e+06	-46989.1	955.818	-29767.9	0.000000	0.000000	6.627021	-0.064166	NaN	0.000000	0.001647	0.001755	28.0898	0.048668	0.002097	23.205	127.474	-166.192	-0.038080	0.625472	-0.455279	-0.456594	-0.064166	23.205	-0.453206	-757653	8.468995E-8	NaN
167	1.000000	0.634790	7.36667e+06	-46989.1	955.818	-29767.9	0.000000	0.000000	6.635029	0.044343	NaN	0.000000	0.001653	0.001727	28.0869	0.050530	0.002068	24.4373	-126.967	-165.598	-0.020394	0.633463	-0.447276	-0.448603	0.044343	24.4373	-0.448637	-653341	-6.787132E-8	NaN
167	1.000000	0.642775	7.36667e+06	-46989.1	955.818	-29767.9	0.000000	0.000000	6.643007	-0.109469	NaN	0.000000	0.001659	0.001754	28.0864	0.045447	0.001972	23.0426	88.8425	-166.263	-0.065965	0.641470	-0.439291	-0.440596	-0.109469	23.0426	-0.435728	-429572	2.548332E-7	NaN
167	1.000000	0.650789	7.36667e+06	-46989.1	955.817	-29767.9	0.000000	0.000000	6.651024	-0.036943	NaN	0.000000	0.001663	0.001740	28.0877	0.056964	0.002074	27.4654	-108.814	-170.626	-0.031977	0.649484	-0.431278	-0.432582	-0.036943	27.4654	-0.430269	-359636	1.027224E-7	NaN
167	1.000000	0.658759	7.36667e+06	-46989.1	955.819	-29767.9	0.000000	0.000000	6.658992	-0.078075	NaN	0.000000	0.001636	0.001744	28.0865	0.065504	0.001998	32.784	-106.777	-163.019	-0.028137	0.657512	-0.423307	-0.424554	-0.078075	32.784	-0.421521	-270388	2.887507E-7	NaN
167	1.000000	0.666765	7.36667e+06	-46989.1	955.818	-29767.9	0.000000	0.000000	6.666997	-0.105998	NaN	0.000000	0.001616	0.001760	28.0871	0.050408	0.002006	25.1257	82.9721	-163.468	-0.096338	0.665468	-0.415301	-0.416598	-0.105998	25.1257	-0.412137	-198966	5.327444E-7	NaN
167	1.000000	0.674773	7.36667e+06	-46989.1	955.818	-29767.9	0.000000	0.000000	6.675009	0.000394	NaN	0.000000	0.001614	0.001721	28.0882	0.053535	0.001956	27.3757	12.4252	-168.067	-0.031880	0.673512	-0.407293	-0.408554	0.000394	27.3757	-0.407304	-169844	-2.319706E-9	NaN
167	1.000000	0.682783	7.36667e+06	-46989.1	955.818	-29767.9	0.000000	0.000000	6.683017	-0.055575	NaN	0.000000	0.001604	0.001716	28.0876	0.074080	0.001989	37.2393	-178.104	-168.67	-0.074024	0.681462	-0.399283	-0.400604	-0.055575	37.2393	-0.398164	-125835	4.416523E-7	NaN
167	1.000000	0.690758	7.36667e+06	-46989.1	955.818	-29767.9	0.000000	0.000000	6.690994	-0.010650	NaN	0.000000	0.001575	0.001744	28.0878	0.041138	0.002027	20.2942	131.594	-165.516	0.068814	0.689498	-0.391308	-0.392568	-0.010650	20.2942	-0.390914	-99138.8	1.074220E-7	NaN
167	1.000000	0.698793	7.36667e+06	-46989.1	955.818	-29767.9	0.000000	0.000000	6.699032	0.054490	NaN	0.000000	0.001601	0.001760	28.0883	0.038501	0.002067	18.6274	94.5559	-164.827	-0.016582	0.697484	-0.383273	-0.384582	0.054490	18.6274	-0.385467	-82846.6	-6.577235E-7	NaN
167	1.000000	0.706798	7.36667e+06	-46989.1	955.818	-29767.9	0.000000	0.000000	6.707037	0.051830	NaN	0.000000	0.001584	0.001760	28.0864	0.166140	0.001954	85.0265	24.9967	-165.988	0.043321	0.705502	-0.375268	-0.376564	0.051830	85.0265	-0.375725	-60047.5	-8.631434E-7	NaN
167	1.000000	0.714762	7.36667e+06	-46989.1	955.818	-29767.9	0.000000	0.000000	6.715000	0.037570	NaN	0.000000	0.001572	0.001764	28.0864	0.078652	0.001941	40.5108	-74.4623	-167.664	-0.092101	0.713486	-0.367304	-0.368580	0.037570	40.5108	-0.368000	-46484.6	-8.082301E-7	NaN
167	1.000000	0.722811	7.36667e+06	-46989.1	955.818	-29767.9	0.000000	0.000000	6.723048	0.015702	NaN	0.000000	0.001545	0.001748	28.0861	0.010031	0.002042	4.911273	150.075	-168.967	-0.058009	0.721539	-0.359255	-0.360527	0.015702	4.911273	-0.361653	-37647.3	-4.170704E-7	NaN
167	1.000000	0.730816	7.36667e+06	-46989.1	955.818	-29767.9	0.000000	0.000000	6.731053	0.012262	NaN	0.000000	0.001554	0.001755	28.087	0.055993	0.001988	28.163	-99.4885	-164.776	0.020059	0.729495	-0.351250	-0.352571	0.012262	28.163	-0.351577	-26908	-4.556887E-7	NaN
167	1.000000	0.738805	7.36667e+06	-46989.1	955.819	-29767.9	0.000000	0.000000	6.739043	0.043595	NaN	0.000000	0.001562	0.001753	28.0865	0.083958	0.002029	41.3723	85.4582	-163.412	0.002370	0.737472	-0.343262	-0.344594	0.043595	41.3723	-0.344052	-20920	-2.083866E-6	NaN
167	1.000000	0.746785	7.36667e+06	-46989.1	955.818	-29767.9	0.000000	0.000000	6.747022	0.016834	NaN	0.000000	0.001572	0.001750	28.0869	0.131203	0.001972	66.5279	-105.431	-163.608	-0.043370	0.745535	-0.335281	-0.336531	0.016834	66.5279	-0.335471	-15684.4	-1.073310E-6	NaN
167	1.000000	0.754814	7.36667e+06	-46989.1	955.817	-29767.9	0.000000	0.000000	6.755051	-0.008517	NaN	0.000000	0.001602	0.001746	28.0877	0.056964	0.001928	29.5398	-141.2	-163.916	0.056974	0.753512	-0.327252	-0.328554	-0.008517	29.5398	-0.327036	-11803.4	7.215535E-7	NaN
167	1.000000	0.762779	7.36667e+06	-46989.1	955.818	-29767.9	0.000000	0.000000	6.763016	0.013274	NaN	0.000000	0.001598	0.001764	28.0873	0.063781	0.001995	31.9643	-130.028	-161.976	0.015133	0.761519	-0.319287	-0.320547	0.013274	31.9643	-0.319599	-9177.65	-1.446373E-6	NaN
167	1.000000	0.770846	7.36667e+06	-46989.1	955.817	-29767.9	0.000000	0.000000	6.771084	0.037470	NaN	0.000000	0.001583	0.001761	28.0878	0.109128	0.001975	55.2606	-4.986640	-164.976	0.000294	0.769512	-0.311220	-0.312554	0.037470	55.2606	-0.311729	-7024.67	-5.334020E-6	NaN
167	1.000000	0.778797	7.36667e+06	-46989.1	955.819	-29767.9	0.000000	0.000000	6.779035	0.020226	NaN	0.000000	0.001597	0.001702	28.0886	0.128253	0.002052	62.5133	132.739	-168.443	-0.010276	0.777535	-0.303269	-0.304531	0.020226	62.5133	-0.303511	-5307.05	-3.811248E-6	NaN
167	1.000000	0.786788	7.36667e+06	-46989.1	955.817	-29767.9	0.000000	0.000000	6.787024	-0.018067	NaN	0.000000	0.001604	0.001770	28.0881	0.088168	0.002009	43.8953	128.262	-169.404	-0.005575	0.785557	-0.295278	-0.296509	-0.018067	43.8953	-0.294969	-3959.35	4.563119E-6	NaN
167	1.000000	0.794826	7.36667e+06	-46989.1	955.818	-29767.9	0.000000	0.000000	6.795061	-0.021531	NaN	0.000000	0.001604	0.001771	28.0879	0.052800	0.001938	27.246	112.151	-166.982	-0.084135	0.793489	-0.287240	-0.288577	-0.021531	27.246	-0.286648	-2971.82	7.245101E-6	NaN
167	1.000000	0.802828	7.36667e+06	-46989.1	955.818	-29767.9	0.000000	0.000000	6.803063	-0.048647	NaN	0.000000	0.001598	0.001728	28.0875	0.116762	0.001925	60.6431	-5.030486	-168.776	-0.025089	0.801470	-0.279238	-0.280596	-0.048647	60.6431	-0.278636	-2251.04	2.161079E-5	NaN
167	1.000000	0.810836	7.36667e+06	-46989.1	955.818	-29767.9	0.000000	0.000000	6.811074	0.024414	NaN	0.000000	0.001603	0.001754	28.0877	0.056105	0.002043	27.4686	118.93	-164.716	-0.001640	0.809525	-0.271230	-0.272541	0.024414	27.4686	-0.271896	-1779.71	-1.371819E-5	NaN
167	1.000000	0.818844	7.36667e+06	-46989.1	955.818	-29767.9	0.000000	0.000000	6.819079	-0.040695	NaN	0.000000	0.001642	0.001755	28.0868	0.106222	0.001946	54.5968	96.9531	-167.472	0.027530	0.817521	-0.263222	-0.264545	-0.040695	54.5968	-0.262663	-1287.3	3.161292E-5	NaN
167	1.000000	0.826836	7.36667e+06	-46989.1	955.818	-29767.9	0.000000	0.000000	6.827074	0.031566	NaN	0.000000	0.001569	0.001782	28.0872	0.085709	0.002010	42.6496	-22.231	-165.052	0.017123	0.825488	-0.255230	-0.256578	0.031566	42.6496	-0.255785	-1009.72	-3.126241E-5	NaN
167	1.000000	0.834835	7.36667e+06	-46989.1	955.817	-29767.9	0.000000	0.000000	6.835070	-0.035076	NaN	0.000000	0.001616	0.001740	28.0883	0.023936	0.002042	11.7221	90.0679	-168.724	-0.132761	0.833560	-0.247231	-0.248506	-0.035076	11.7221	-0.244987	-687.464	5.102271E-5	NaN
167	1.000000	0.842846	7.36667e+06	-46989.1	955.817	-29767.9	0.000000	0.000000	6.843082	-0.030947	NaN	0.000000	0.001550	0.001766	28.0888	0.027533	0.002004	13.7411	-37.9738	-168.342	0.023408	0.841577	-0.239220	-0.240489	-0.030947	13.7411	-0.237531	-525.933	5.884298E-5	NaN
167	1.000000	0.850856	7.36667e+06	-46989.1	955.818	-29767.9	0.000000	0.000000	6.851093	-0.003019	NaN	0.000000	0.001606	0.001801	28.0886	0.073540	0.002089	35.2109	142.404	-167.47	-0.054256	0.849552	-0.231210	-0.232514	-0.003019	35.2109	-0.231146	-417.44	7.232534E-6	NaN
167	1.000000	0.858861	7.36667e+06	-46989.1	955.818	-29767.9	0.000000	0.000000	6.859097	-0.013026	NaN	0.000000	0.001565	0.001749	28.0883	0.057907	0.001921	30.1498	-5.608706	-167.327	0.049965	0.857531	-0.223205	-0.224535	-0.013026	30.1498	-0.222881	-308.774	4.218552E-5	NaN
167	1.000000	0.866856	7.36667e+06	-46989.1	955.818	-29767.9	0.000000	0.000000	6.867092	-0.023702	NaN	0.000000	0.001550	0.001762	28.0889	0.066427	0.002039	32.5762	-173.034	-166.689	-0.039052	0.865519	-0.215210	-0.216547	-0.023702	32.5762	-0.214664	-228.095	0.000104	NaN
167	1.000000	0.874862	7.36667e+06	-46989.1	955.817	-29767.9	0.000000	0.000000	6.875100	0.054497	NaN	0.000000	0.001585	0.001790	28.087	0.108427	0.002058	52.6773	-128.941	-167.896	-0.069362	0.873560	-0.207205	-0.208506	0.054497	52.6773	-0.207980	-177.855	-0.000306	NaN
167	1.000000	0.882878	7.36668e+06	-46989.1	955.819	-29767.9	0.000000	0.000000	6.883111	-0.069284	NaN	0.000000	0.001577	0.001732	28.0874	0.039241	0.002096	18.7184	-109.734	-165.915	-0.056149	0.881570	-0.199188	-0.200496	-0.069284	18.7184	-0.196412	-114.967	0.000603	NaN
167	1.000000	0.890855	7.36668e+06	-46989.1	955.819	-29767.9	0.000000	0.000000	6.891093	0.026043	NaN	0.000000	0.001561	0.001783	28.0867	0.073995	0.002059	35.9326	-38.7183	-168.126	0.010621	0.889541	-0.191211	-0.192525	0.026043	35.9326	-0.191754	-96.2249	-0.000271	NaN
167	1.000000	0.898895	7.36668e+06	-46989.1	955.818	-29767.9	0.000000	0.000000	6.899132	0.001616	NaN	0.000000	0.001579	0.001741	28.0861	0.116344	0.002067	56.293	-74.7475	-166.332	-0.065874	0.897564	-0.183171	-0.184502	0.001616	56.293	-0.183193	-69.1225	-2.338016E-5	NaN
167	1.000000	0.906905	7.36668e+06	-46989.1	955.818	-29767.9	0.000000	0.000000	6.907141	-0.011392	NaN	0.000000	0.001583	0.001716	28.086	0.048840	0.001975	24.7235	138.524	-166.851	0.009230	0.905558	-0.175161	-0.176508	-0.011392	24.7235	-0.174816	-49.7524	0.000229	NaN
167	1.000000	0.914889	7.36668e+06	-46989.1	955.819	-29767.9	0.000000	0.000000	6.915126	0.005303	NaN	0.000000	0.001577	0.001710	28.0865	0.054122	0.001848	29.2944	-135.733	-165.146	0.002757	0.913602	-0.167177	-0.168464	0.005303	29.2944	-0.167313	-36.8819	-0.000144	NaN
167	1.000000	0.922858	7.36668e+06	-46989.1	955.818	-29767.9	0.000000	0.000000	6.923095	-0.006798	NaN	0.000000	0.001600	0.001736	28.0878	0.076098	0.001890	40.2545	-79.176	-165.629	-0.011030	0.921570	-0.159208	-0.160496	-0.006798	40.2545	-0.159081	-26.402	0.000257	NaN
167	1.000000	0.930877	7.36668e+06	-46989.1	955.818	-29767.9	0.000000	0.000000	6.931115	0.028297	NaN	0.000000	0.001590	0.001756	28.0862	0.073003	0.001981	36.8468	-141.634	-169.403	0.015891	0.929613	-0.151189	-0.152453	0.028297	36.8468	-0.151765	-19.5036	-0.001451	NaN
167	1.000000	0.938887	7.36668e+06	-46989.1	955.818	-29767.9	0.000000	0.000000	6.939127	0.072720	NaN	0.000000	0.001588	0.001752	28.0868	0.062873	0.001854	33.9078	1.647479	-168.513	0.075263	0.937578	-0.143179	-0.144488	0.072720	33.9078	-0.144787	-14.5288	-0.005005	NaN
167	1.000000	0.946907	7.36668e+06	-46989.1	955.818	-29767.9	0.000000	0.000000	6.947143	-0.015371	NaN	0.000000	0.001597	0.001753	28.0874	0.148187	0.002075	71.4009	170.425	-169.539	0.023014	0.945569	-0.135159	-0.136497	-0.015371	71.4009	-0.134998	-9.511388	0.001616	NaN
167	1.000000	0.954910	7.36668e+06	-46989.1	955.818	-29767.9	0.000000	0.000000	6.955146	-0.023133	NaN	0.000000	0.001573	0.001748	28.0858	0.126520	0.002039	62.0436	156.63	-169.172	0.027266	0.953563	-0.127156	-0.128503	-0.023133	62.0436	-0.126877	-6.622074	0.003493	NaN
167	1.000000	0.962901	7.36668e+06	-46989.1	955.818	-29767.9	0.000000	0.000000	6.963135	-0.059245	NaN	0.000000	0.001559	0.001719	28.0862	0.081757	0.001954	41.8354	6.465274	-165.656	-0.015335	0.961607	-0.119165	-0.120459	-0.059245	41.8354	-0.118103	-4.422256	0.013397	NaN
167	1.000000	0.970920	7.36668e+06	-46989.1	955.818	-29767.9	0.000000	0.000000	6.971160	0.099633	NaN	0.000000	0.001574	0.001768	28.0855	0.093018	0.001996	46.6115	-121.764	-168.879	-0.015117	0.969591	-0.111146	-0.112475	0.099633	46.6115	-0.112749	-3.431470	-0.029035	NaN
167	1.000000	0.978912	7.36668e+06	-46989.1	955.819	-29767.9	0.000000	0.000000	6.979149	-0.004761	NaN	0.000000	0.001546	0.001743	28.0855	0.210142	0.001947	107.924	-145.573	-167.884	0.046213	0.977549	-0.103154	-0.104518	-0.004761	107.924	-0.103121	-2.139857	0.002225	NaN
167	1.000000	0.986925	7.36668e+06	-46989.1	955.82	-29767.9	0.000000	0.000000	6.987164	0.056583	NaN	0.000000	0.001584	0.001776	28.0858	0.137574	0.001975	69.6669	161.363	-167.25	0.063207	0.985595	-0.095141	-0.096471	0.056583	69.6669	-0.095750	-1.467147	-0.038566	NaN
167	1.000000	0.994907	7.36668e+06	-46989.1	955.818	-29767.9	0.000000	0.000000	6.995143	-0.012164	NaN	0.000000	0.001593	0.001764	28.0862	0.060444	0.002133	28.3418	13.3557	-165.319	-0.052261	0.993590	-0.087159	-0.088476	-0.012164	28.3418	-0.086838	-0.909694	0.013372	NaN
167	1.000000	1.002923	7.36668e+06	-46989.1	955.819	-29767.9	0.000000	0.000000	7.003159	-0.011628	NaN	0.000000	0.001591	0.001716	28.0872	0.015056	0.001948	7.729526	159.36	-166.507	-0.075040	1.001592	-0.079143	-0.080474	-0.011628	7.729526	-0.078014	-0.551700	0.021077	NaN
167	1.000000	1.010906	7.36668e+06	-46989.1	955.82	-29767.9	0.000000	0.000000	7.011144	0.029786	NaN	0.000000	0.001607	0.001741	28.0861	0.064154	0.001897	33.827	-60.8483	-165.974	-0.053326	1.009638	-0.071160	-0.072428	0.029786	33.827	-0.071820	-0.381372	-0.078102	NaN
167	1.000000	1.018927	7.36668e+06	-46989.1	955.819	-29767.9	0.000000	0.000000	7.019162	-0.035615	NaN	0.000000	0.001574	0.001724	28.0861	0.043995	0.001971	22.3161	176.238	-164.992	0.052717	1.017545	-0.063139	-0.064521	-0.035615	22.3161	-0.061942	-0.204578	0.174089	NaN
167	1.000000	1.026907	7.36668e+06	-46989.1	955.819	-29767.9	0.000000	0.000000	7.027144	0.009563	NaN	0.000000	0.001563	0.001726	28.0869	0.061127	0.001978	30.9012	-152.756	-166.072	-0.023975	1.025642	-0.055159	-0.056424	0.009563	30.9012	-0.055391	-0.132251	-0.072310	NaN
167	1.000000	1.034938	7.36668e+06	-46989.1	955.818	-29767.9	0.000000	0.000000	7.035174	-0.017956	NaN	0.000000	0.001574	0.001751	28.0848	0.046966	0.002021	23.2398	-81.6581	-167.171	-0.022780	1.033598	-0.047128	-0.048468	-0.017956	23.2398	-0.046548	-0.071664	0.250560	NaN
167	1.000000	1.042951	7.36668e+06	-46989.1	955.817	-29767.9	0.000000	0.000000	7.043188	0.021412	NaN	0.000000	0.001557	0.001732	28.0861	0.078655	0.002111	37.2528	-102.172	-168.626	0.031117	1.041621	-0.039115	-0.040445	0.021412	37.2528	-0.039546	-0.043811	-0.488734	NaN
167	1.000000	1.050916	7.36668e+06	-46989.1	955.818	-29767.9	0.000000	0.000000	7.051152	-0.012259	NaN	0.000000	0.001548	0.001756	28.0868	0.067490	0.002106	32.0416	10.6511	-165.057	0.115772	1.049598	-0.031150	-0.032468	-0.012259	32.0416	-0.030863	-0.024331	0.503831	NaN
167	1.000000	1.058924	7.36668e+06	-46989.1	955.819	-29767.9	0.000000	0.000000	7.059160	-0.009437	NaN	0.000000	0.001579	0.001712	28.0871	0.060808	0.001924	31.603	-153.16	-166.964	0.019865	1.057635	-0.023142	-0.024431	-0.009437	31.603	-0.022918	-0.014904	0.633171	NaN
167	1.000000	1.066947	7.36668e+06	-46989.1	955.818	-29767.9	0.000000	0.000000	7.067182	-0.019747	NaN	0.000000	0.001573	0.001724	28.0856	0.063707	0.002114	30.1342	155.468	-166.701	-0.035893	1.065650	-0.015119	-0.016416	-0.019747	30.1342	-0.014628	-0.009054	2.181175	NaN
167	1.000000	1.074933	7.36668e+06	-46989.1	955.818	-29767.9	0.000000	0.000000	7.075170	0.021549	NaN	0.000000	0.001575	0.001761	28.0867	0.045016	0.002025	22.2335	64.2968	-166.884	-0.062671	1.073643	-0.007133	-0.008423	0.021549	22.2335	-0.007860	-0.005150	-4.184451	NaN
167	1.000000	1.082906	7.36668e+06	-46989.1	955.818	-29767.9	0.000000	0.000000	7.083159	0.403957	NaN	0.000000	0.001538	0.001753	28.0886	0.597640	0.001916	311.867	2.936419	-169.532	0.054138	1.081615	0.000840	-0.000451	0.403957	311.867	-0.000131	-9.796872E-5	-4123.33	NaN
167	2.000000	1.090385	7.36668e+06	-46989.1	955.818	-29767.9	0.000000	0.000000	7.090972	8.526169	NaN	0.000000	0.001570	0.001733	28.0879	7.822788	0.001756	4455.22	7.711871	-170.499	7.492611	1.089620	0.008319	0.007554	8.526169	4455.22	0.006884	0.005919	1440.46	52907.4
167	2.000000	1.092579	7.36668e+06	-46989.1	955.818	-29767.9	0.000000	0.000000	7.093282	11.3377	NaN	0.000000	0.001554	0.001762	28.0864	10.0447	0.001642	6118.7	8.142538	-176.773	11.5693	1.092279	0.010513	0.010213	11.3377	6118.7	0.009123	0.008223	1378.72	61646.4
167	2.000000	1.094590	7.36668e+06	-46989.1	955.818	-29767.9	0.000000	0.000000	7.095388	13.6642	NaN	0.000000	0.001539	0.001723	28.0883	11.7684	0.001692	6956.39	6.031552	-173.604	12.9972	1.094296	0.012524	0.012230	13.6642	6956.39	0.011051	0.010373	1317.32	62403.9
167	2.000000	1.096528	7.36668e+06	-46989.1	955.817	-29767.9	0.000000	0.000000	7.097502	17.9256	NaN	0.000000	0.001558	0.001775	28.0869	13.973	0.001695	8241.83	6.431368	-177.539	16.8941	1.096145	0.014462	0.014079	17.9256	8241.83	0.012831	0.012501	1433.95	67348.3
167	2.000000	1.098502	7.36668e+06	-46989.1	955.817	-29767.9	0.000000	0.000000	7.099630	21.6784	NaN	0.000000	0.001564	0.001741	28.0872	15.7234	0.001717	9157.56	-1.585249	-170.779	20.5724	1.098250	0.016436	0.016184	21.6784	9157.56	0.014661	0.014836	1461.21	68690.3
167	2.000000	1.100504	7.36668e+06	-46989.1	955.818	-29767.9	0.000000	0.000000	7.101690	23.0761	NaN	0.000000	0.001556	0.001745	28.0862	17.5158	0.001762	9942.64	3.299175	-175.153	21.276	1.100216	0.018438	0.018150	23.0761	9942.64	0.016698	0.017616	1309.92	68441
167	2.000000	1.102468	7.36668e+06	-46989.1	955.819	-29767.9	0.000000	0.000000	7.103955	30.4243	NaN	0.000000	0.001552	0.001790	28.0871	19.4649	0.001785	10906.3	2.939242	-175.984	28.0469	1.102152	0.020402	0.020086	30.4243	10906.3	0.018310	0.019956	1524.59	70536.8
167	2.000000	1.104550	7.36668e+06	-46989.1	955.817	-29767.9	0.000000	0.000000	7.106156	33.3225	NaN	0.000000	0.001571	0.001784	28.0848	21.9946	0.001779	12363.5	7.040569	179.468	34.235	1.104212	0.022484	0.022146	33.3225	12363.5	0.020462	0.023274	1431.75	74042.2
167	2.000000	1.106511	7.36668e+06	-46989.1	955.817	-29767.9	0.000000	0.000000	7.108234	36.1531	NaN	0.000000	0.001575	0.001723	28.0892	23.577	0.001767	13344.6	5.006516	-178.557	36.8408	1.106234	0.024445	0.024168	36.1531	13344.6	0.022413	0.026476	1365.49	74928.8
167	2.000000	1.108498	7.36668e+06	-46989.1	955.816	-29767.9	0.000000	0.000000	7.110515	43.2989	NaN	0.000000	0.001573	0.001787	28.0872	26.3237	0.001868	14094.7	8.095591	177.576	43.2538	1.108209	0.026432	0.026143	43.2989	14094.7	0.024128	0.029448	1470.35	75041.5
167	2.000000	1.110502	7.36668e+06	-46989.1	955.817	-29767.9	0.000000	0.000000	7.112673	47.0542	NaN	0.000000	0.001552	0.001768	28.0884	26.8736	0.001866	14403.6	4.136345	-178.038	48.598	1.110163	0.028436	0.028097	47.0542	14403.6	0.025985	0.032833	1433.14	72625.7
167	2.000000	1.112486	7.36668e+06	-46989.1	955.818	-29767.9	0.000000	0.000000	7.114889	52.7114	NaN	0.000000	0.001569	0.001745	28.0866	28.89	0.001704	16952.9	6.582900	178.172	52.9164	1.112137	0.030420	0.030071	52.7114	16952.9	0.028088	0.036874	1429.52	80660.3
167	2.000000	1.114538	7.36668e+06	-46989.1	955.818	-29767.9	0.000000	0.000000	7.117337	62.3245	NaN	0.000000	0.001558	0.001739	28.0849	30.6116	0.001761	17381.4	1.967225	-177.316	61.9797	1.114116	0.032472	0.032050	62.3245	17381.4	0.029783	0.040294	1546.74	79110.8
167	2.000000	1.116455	7.36668e+06	-46989.1	955.818	-29767.9	0.000000	0.000000	7.119443	66.9235	NaN	0.000000	0.001572	0.001753	28.0851	31.9189	0.001706	18712.4	1.540390	-178.346	63.7053	1.116112	0.034389	0.034046	66.9235	18712.4	0.031707	0.044356	1508.79	81176.2
167	2.000000	1.118460	7.36668e+06	-46989.1	955.818	-29767.9	0.000000	0.000000	7.121734	73.8992	NaN	0.000000	0.001556	0.001735	28.0847	34.3544	0.001877	18303.1	3.528547	179.849	71.5566	1.118130	0.036394	0.036064	73.8992	18303.1	0.033366	0.048009	1539.29	76320
167	2.000000	1.120434	7.36668e+06	-46989.1	955.82	-29767.9	0.000000	0.000000	7.123922	79.1006	NaN	0.000000	0.001595	0.001754	28.0846	35.8085	0.001725	20758.3	6.901967	175.86	77.4151	1.120072	0.038368	0.038006	79.1006	20758.3	0.035510	0.052940	1494.15	82427.4
167	2.000000	1.122445	7.36668e+06	-46989.1	955.818	-29767.9	0.000000	0.000000	7.126143	84.1798	NaN	0.000000	0.001600	0.001790	28.0845	37.4226	0.001685	22209.6	4.575370	177.411	82.4736	1.122107	0.040379	0.040041	84.1798	22209.6	0.037537	0.057818	1455.96	84388.6
167	2.000000	1.124500	7.36668e+06	-46989.1	955.819	-29767.9	0.000000	0.000000	7.128477	90.9687	NaN	0.000000	0.001594	0.001754	28.0859	39.8753	0.001925	20717.4	1.397440	-177.912	90.3857	1.124085	0.042434	0.042019	90.9687	20717.4	0.039141	0.061827	1471.34	76123.5
167	2.000000	1.126449	7.36668e+06	-46989.1	955.819	-29767.9	0.000000	0.000000	7.130712	97.9259	NaN	0.000000	0.001600	0.001782	28.0854	41.5937	0.001784	23314.6	4.341755	176.75	96.4588	1.126174	0.044383	0.044108	97.9259	23314.6	0.041233	0.067254	1456.06	82137.6
167	2.000000	1.128497	7.36668e+06	-46989.1	955.817	-29767.9	0.000000	0.000000	7.133105	106.345	NaN	0.000000	0.001573	0.001766	28.0866	43.912	0.001880	23355.9	5.228368	176.176	108.133	1.128197	0.046431	0.046131	106.345	23355.9	0.043016	0.072054	1475.92	79495.4
167	2.000000	1.130403	7.36668e+06	-46989.1	955.818	-29767.9	0.000000	0.000000	7.135352	114.606	NaN	0.000000	0.001582	0.001784	28.087	44.9143	0.001860	24151.2	6.983870	174.097	111.081	1.130120	0.048337	0.048054	114.606	24151.2	0.044778	0.076959	1489.18	79539.3
167	2.000000	1.132413	7.36668e+06	-46989.1	955.819	-29767.9	0.000000	0.000000	7.137771	124.594	NaN	0.000000	0.001567	0.001791	28.0853	46.6507	0.001754	26603	4.869154	174.947	122.427	1.132081	0.050347	0.050015	124.594	26603	0.046834	0.082879	1503.32	84427
167	2.000000	1.134485	7.36668e+06	-46989.1	955.819	-29767.9	0.000000	0.000000	7.140298	135.649	NaN	0.000000	0.001576	0.001783	28.085	49.7897	0.001908	26098.7	9.659489	171.133	136.167	1.134194	0.052419	0.052128	135.649	26098.7	0.048520	0.087895	1543.32	80428.8
167	2.000000	1.136398	7.36668e+06	-46989.1	955.819	-29767.9	0.000000	0.000000	7.142673	146.863	NaN	0.000000	0.001578	0.001760	28.0867	49.3568	0.001778	27765.8	-0.275872	-179.289	144.56	1.136126	0.054332	0.054060	146.863	27765.8	0.050365	0.093546	1569.97	82941.6
167	2.000000	1.138450	7.36668e+06	-46989.1	955.819	-29767.9	0.000000	0.000000	7.145026	154.199	NaN	0.000000	0.001528	0.001754	28.085	53.5823	0.001900	28193.9	6.264167	173.822	154.969	1.138211	0.056384	0.056145	154.199	28193.9	0.052282	0.099597	1548.23	81621.5
167	2.000000	1.140388	7.36668e+06	-46989.1	955.819	-29767.9	0.000000	0.000000	7.147350	163.588	NaN	0.000000	0.001584	0.001774	28.0847	53.7802	0.001886	28516.4	3.611389	177.178	160.709	1.140087	0.058322	0.058021	163.588	28516.4	0.054020	0.105242	1554.4	80310.9
167	2.000000	1.142465	7.36668e+06	-46989.1	955.819	-29767.9	0.000000	0.000000	7.149798	172.614	NaN	0.000000	0.001565	0.001750	28.0848	55.7285	0.001789	31147.7	7.608138	171.919	173.708	1.142063	0.060399	0.059997	172.614	31147.7	0.056242	0.112679	1531.9	84776.7
167	2.000000	1.144468	7.36668e+06	-46989.1	955.819	-29767.9	0.000000	0.000000	7.152295	184.645	NaN	0.000000	0.001542	0.001746	28.0849	57.5724	0.001787	32221.2	3.771996	175.299	184.981	1.144096	0.062402	0.062030	184.645	32221.2	0.058104	0.119097	1550.38	85303.2
167	2.000000	1.146454	7.36668e+06	-46989.1	955.818	-29767.9	0.000000	0.000000	7.154649	193.597	NaN	0.000000	0.001548	0.001745	28.0862	59.2659	0.001800	32934	7.207961	171.532	194.218	1.146115	0.064388	0.064049	193.597	32934	0.059979	0.125732	1539.75	84858.2
167	2.000000	1.148415	7.36668e+06	-46989.1	955.817	-29767.9	0.000000	0.000000	7.156995	202.931	NaN	0.000000	0.001535	0.001762	28.0864	61.2469	0.001725	35499.2	0.950565	176.816	202.116	1.148236	0.066349	0.066170	202.931	35499.2	0.062062	0.133306	1522.3	88831.6
167	2.000000	1.150435	7.36668e+06	-46989.1	955.818	-29767.9	0.000000	0.000000	7.159857	223.443	NaN	0.000000	0.001548	0.001764	28.0867	63.2535	0.001817	34814.8	6.870833	171.998	223.676	1.150044	0.068369	0.067978	223.443	34814.8	0.063555	0.138864	1609.08	85357.5
167	2.000000	1.152407	7.36668e+06	-46989.1	955.818	-29767.9	0.000000	0.000000	7.162183	232.04	NaN	0.000000	0.001548	0.001743	28.0862	66.1051	0.001788	36968.9	5.933821	172.052	231.078	1.152102	0.070341	0.070036	232.04	36968.9	0.065634	0.146781	1580.85	88160.6
167	2.000000	1.154385	7.36668e+06	-46989.1	955.818	-29767.9	0.000000	0.000000	7.164865	249.169	NaN	0.000000	0.001566	0.001751	28.0865	67.8012	0.001768	38345	4.519893	173.986	244.535	1.154043	0.072319	0.071977	249.169	38345	0.067445	0.153850	1619.56	89316.9
167	2.000000	1.156383	7.36668e+06	-46989.1	955.818	-29767.9	0.000000	0.000000	7.167421	262.72	NaN	0.000000	0.001551	0.001734	28.0852	69.3547	0.001746	39721.6	3.572200	173.274	260.55	1.156126	0.074317	0.074060	262.72	39721.6	0.069357	0.161480	1626.95	90311
167	2.000000	1.158429	7.36668e+06	-46989.1	955.818	-29767.9	0.000000	0.000000	7.170148	279.289	NaN	0.000000	0.001561	0.001742	28.086	72.5869	0.001803	40266.6	6.058326	171.006	279.653	1.158044	0.076363	0.075978	279.289	40266.6	0.071161	0.168844	1654.13	89531.4
167	2.000000	1.160345	7.36668e+06	-46989.1	955.818	-29767.9	0.000000	0.000000	7.172668	293.985	NaN	0.000000	0.001537	0.001782	28.0849	72.7159	0.001785	40726.5	5.012805	172.232	289.93	1.160004	0.078279	0.077938	293.985	40726.5	0.072865	0.175938	1670.96	88709.5
167	2.000000	1.162415	7.36668e+06	-46989.1	955.818	-29767.9	0.000000	0.000000	7.175194	305.084	NaN	0.000000	0.001538	0.001784	28.0844	75.8584	0.001860	40788.2	7.823071	169.661	304.547	1.162012	0.080349	0.079946	305.084	40788.2	0.074739	0.183900	1658.97	86899.5
167	2.000000	1.164414	7.36668e+06	-46989.1	955.818	-29767.9	0.000000	0.000000	7.177841	320.853	NaN	0.000000	0.001565	0.001740	28.0838	77.1184	0.001793	43005.6	6.127828	171.551	318.835	1.164014	0.082348	0.081948	320.853	43005.6	0.076752	0.192635	1665.6	89522.1
167	2.000000	1.166415	7.36668e+06	-46989.1	955.818	-29767.9	0.000000	0.000000	7.180277	331.423	NaN	0.000000	0.001581	0.001746	28.086	77.3343	0.001761	43904.8	1.363902	175.607	331.998	1.166036	0.084349	0.083969	331.423	43904.8	0.078688	0.201213	1647.12	89424.7
167	2.000000	1.168420	7.36668e+06	-46989.1	955.818	-29767.9	0.000000	0.000000	7.182688	341.289	NaN	0.000000	0.001558	0.001712	28.0857	79.3273	0.001873	42344.9	-1.360831	177.872	339.593	1.168189	0.086354	0.086123	341.289	42344.9	0.080309	0.208535	1636.6	84719.7
167	2.000000	1.170420	7.36668e+06	-46989.1	955.818	-29767.9	0.000000	0.000000	7.185512	361.361	NaN	0.000000	0.001539	0.001724	28.0867	81.5614	0.001749	46621.3	8.529346	167.468	363.021	1.170143	0.088354	0.088077	361.361	46621.3	0.082540	0.218808	1651.5	91059.7
167	2.000000	1.172381	7.36668e+06	-46989.1	955.817	-29767.9	0.000000	0.000000	7.188005	374.283	NaN	0.000000	0.001577	0.001728	28.0858	84.5779	0.001879	45001.8	3.886140	173.009	373.301	1.172060	0.090315	0.089994	374.283	45001.8	0.084077	0.226018	1655.99	86483.2
167	2.000000	1.174466	7.36668e+06	-46989.1	955.818	-29767.9	0.000000	0.000000	7.190539	385.205	NaN	0.000000	0.001557	0.001736	28.086	86.687	0.001865	46470.8	5.729885	170.809	388.612	1.174148	0.092400	0.092082	385.205	46470.8	0.086183	0.236078	1631.69	87382.8
167	2.000000	1.176318	7.36668e+06	-46989.1	955.818	-29767.9	0.000000	0.000000	7.193227	405.542	NaN	0.000000	0.001575	0.001752	28.0856	86.4311	0.001845	46847.2	2.902682	173.676	401.429	1.175995	0.094252	0.093929	405.542	46847.2	0.087760	0.243743	1663.81	86694.4
167	2.000000	1.178307	7.36668e+06	-46989.1	955.817	-29767.9	0.000000	0.000000	7.195636	415.757	NaN	0.000000	0.001605	0.001724	28.0854	89.2849	0.001848	48301.5	2.199196	173.714	410.217	1.178140	0.096241	0.096074	415.757	48301.5	0.089785	0.253756	1638.41	87604.3
167	2.000000	1.180363	7.36668e+06	-46989.1	955.818	-29767.9	0.000000	0.000000	7.198463	434.521	NaN	0.000000	0.001586	0.001738	28.0843	89.5612	0.001777	50413.9	1.370311	174.232	431.792	1.180020	0.098297	0.097954	434.521	50413.9	0.091833	0.264071	1645.47	89632.1
167	2.000000	1.182414	7.36668e+06	-46989.1	955.818	-29767.9	0.000000	0.000000	7.201025	446.949	NaN	0.000000	0.001573	0.001706	28.0856	93.959	0.001932	48644	6.584555	169.134	450.013	1.182114	0.100348	0.100048	446.949	48644	0.093456	0.272387	1640.86	85154.9
167	2.000000	1.184417	7.36668e+06	-46989.1	955.818	-29767.9	0.000000	0.000000	7.203834	466.544	NaN	0.000000	0.001536	0.001748	28.0838	93.6662	0.001712	54716.1	4.336634	170.508	465.675	1.184174	0.102351	0.102108	466.544	54716.1	0.095956	0.285423	1634.57	93571.5
167	2.000000	1.186316	7.36668e+06	-46989.1	955.818	-29767.9	0.000000	0.000000	7.206651	488.863	NaN	0.000000	0.001580	0.001722	28.0843	94.8348	0.001707	55571.6	5.440753	170	483.65	1.185890	0.104250	0.103824	488.863	55571.6	0.097652	0.294434	1660.35	93569.1
167	2.000000	1.188295	7.36668e+06	-46989.1	955.817	-29767.9	0.000000	0.000000	7.208810	493.243	NaN	0.000000	0.001577	0.001730	28.0864	97.1839	0.001887	51510.3	4.320086	170.748	489.903	1.188020	0.106229	0.105954	493.243	51510.3	0.099048	0.301942	1633.57	85645.6
167	2.000000	1.188746	7.36668e+06	-46989.1	955.818	-29767.9	0.000000	0.000000	7.209715	504.282	NaN	0.000000	0.001561	0.001754	28.1247	96.8153	0.001800	53783.1	5.417462	-9.783057	494.876	1.188382	0.106680	0.106316	504.282	53783.1	0.099648	0.305201	1652.29	88945.9