File: remote_trans/data/nanoindenter/0828-1/data/Data_2025-08-06,11h17m57s/2025-07-22_16-23-58_1_416.txt
2025-07-22, 16:23:58, 1
Index	Phase	Displacement	Time	Pos X	Pos Y	Pos Z	Rot A	Rot B	Piezo Z	Force A	Force B	Gripper	Voltage A	Voltage B	Temperature	Amplitude force	Amplitude pos	Stiffness	Phase shift	Phase excitation	Force A raw	Displacement raw	HMax	HMax raw	Real Force	Real Stiffness	Contact Depth	Area	Hardness	Reduced Mod.
[#]	[#]	[um]	[s]	[um]	[um]	[um]	[m°]	[m°]	[um]	[uN]	[uN]	[V]	[V]	[V]	[°C]	[uN]	[um]	[N/m]	[°]	[°]	[uN]	[um]	[um]	[um]	[uN]	[N/m]	[um]	[um^2]	[MPa]	[MPa]
416	1.000000	0.002607	7.36913e+06	-56289.1	1005.82	-29739.5	0.000000	0.000000	6.002788	0.005464	NaN	0.000000	0.001744	0.001672	28.0783	0.078450	0.000910	86.2451	-157.609	-170.391	-0.001976	0.001379	-1.044703	-1.045930	0.005464	86.2451	-1.044750	-9.074821E+13	-6.020873E-17	NaN
416	1.000000	0.010595	7.36913e+06	-56289.1	1005.82	-29739.5	0.000000	0.000000	6.010775	-0.004773	NaN	0.000000	0.001712	0.001679	28.0781	0.127353	0.000975	130.63	3.310303	-165.34	-0.055897	0.009270	-1.036715	-1.038039	-0.004773	130.63	-1.036687	-7.070017E+13	6.750816E-17	NaN
416	1.000000	0.018584	7.36913e+06	-56289.1	1005.82	-29739.5	0.000000	0.000000	6.018765	0.010728	NaN	0.000000	0.001690	0.001625	28.0782	0.040251	0.001698	23.7027	22.25	-163.981	-0.019758	0.017224	-1.028725	-1.030086	0.010728	23.7027	-1.029065	-5.583455E+13	-1.921374E-16	NaN
416	1.000000	0.026570	7.36913e+06	-56289.1	1005.82	-29739.5	0.000000	0.000000	6.026753	0.051579	NaN	0.000000	0.001728	0.001681	28.0782	0.075330	0.001879	40.087	-20.5588	-163.063	0.104461	0.025278	-1.020739	-1.022031	0.051579	40.087	-1.021704	-4.445104E+13	-1.160356E-15	NaN
416	1.000000	0.034539	7.36913e+06	-56289.1	1005.82	-29739.5	0.000000	0.000000	6.034722	0.061981	NaN	0.000000	0.001690	0.001682	28.0781	0.024667	0.001950	12.6505	115.087	-162.656	0.074502	0.033288	-1.012770	-1.014021	0.061981	12.6505	-1.016445	-3.776735E+13	-1.641122E-15	NaN
416	1.000000	0.042588	7.36913e+06	-56289.1	1005.82	-29739.5	0.000000	0.000000	6.042768	-0.028995	NaN	0.000000	0.001684	0.001664	28.0783	0.042097	0.001953	21.5578	-32.9044	-163.226	-0.005872	0.041218	-1.004721	-1.006092	-0.028995	21.5578	-1.003712	-2.545356E+13	1.139133E-15	NaN
416	1.000000	0.050571	7.36913e+06	-56289.1	1005.82	-29739.5	0.000000	0.000000	6.050755	0.064769	NaN	0.000000	0.001701	0.001647	28.0782	0.010843	0.002086	5.198355	163.318	-165.597	0.027738	0.049273	-0.996738	-0.998036	0.064769	5.198355	-1.006082	-2.739377E+13	-2.364356E-15	NaN
416	1.000000	0.058549	7.36913e+06	-56289.1	1005.82	-29739.5	0.000000	0.000000	6.058731	0.038503	NaN	0.000000	0.001667	0.001665	28.078	0.043337	0.002033	21.3136	114.01	-166.576	0.092781	0.057280	-0.988760	-0.990029	0.038503	21.3136	-0.990115	-1.669803E+13	-2.305849E-15	NaN
416	1.000000	0.066573	7.36913e+06	-56289.1	1005.82	-29739.5	0.000000	0.000000	6.066752	-0.032732	NaN	0.000000	0.001694	0.001646	28.0791	0.142681	0.002020	70.6259	127.414	-165.173	0.020751	0.065334	-0.980737	-0.981975	-0.032732	70.6259	-0.980389	-1.234957E+13	2.650475E-15	NaN
416	1.000000	0.074557	7.36913e+06	-56289.1	1005.82	-29739.5	0.000000	0.000000	6.074739	0.019326	NaN	0.000000	0.001700	0.001602	28.0782	0.079973	0.001921	41.6252	-85.4535	-168.375	-0.032026	0.073290	-0.972752	-0.974019	0.019326	41.6252	-0.973100	-9.850136E+12	-1.962028E-15	NaN
416	1.000000	0.082610	7.36913e+06	-56289.1	1005.82	-29739.5	0.000000	0.000000	6.082793	0.042582	NaN	0.000000	0.001665	0.001603	28.0783	0.063873	0.001931	33.0831	-119.142	-166.645	0.055625	0.081314	-0.964699	-0.965995	0.042582	33.0831	-0.965664	-7.820318E+12	-5.445087E-15	NaN
416	1.000000	0.090589	7.36913e+06	-56289.1	1005.82	-29739.5	0.000000	0.000000	6.090770	0.008851	NaN	0.000000	0.001665	0.001638	28.0782	0.057241	0.002092	27.3584	-74.8225	-166.079	-0.014278	0.089289	-0.956720	-0.958020	0.008851	27.3584	-0.956963	-5.969268E+12	-1.482719E-15	NaN
416	1.000000	0.098568	7.36913e+06	-56289.1	1005.82	-29739.5	0.000000	0.000000	6.098748	-0.012566	NaN	0.000000	0.001737	0.001659	28.0795	0.015237	0.002083	7.316701	21.0774	-167.46	-0.085693	0.097321	-0.948741	-0.949989	-0.012566	7.316701	-0.947453	-4.443027E+12	2.828229E-15	NaN
416	1.000000	0.106559	7.36913e+06	-56289.1	1005.82	-29739.5	0.000000	0.000000	6.106740	0.008460	NaN	0.000000	0.001677	0.001654	28.0795	0.035199	0.002016	17.4566	-144.589	-165.546	-0.030478	0.105283	-0.940750	-0.942026	0.008460	17.4566	-0.941114	-3.648893E+12	-2.318556E-15	NaN
416	1.000000	0.114638	7.36913e+06	-56289.1	1005.82	-29739.5	0.000000	0.000000	6.114820	0.034840	NaN	0.000000	0.001676	0.001641	28.0794	0.169352	0.001939	87.3295	161.795	-166.596	-0.052026	0.113237	-0.932672	-0.934072	0.034840	87.3295	-0.932971	-2.833294E+12	-1.229664E-14	NaN
416	1.000000	0.122577	7.36913e+06	-56289.1	1005.82	-29739.5	0.000000	0.000000	6.122761	0.083140	NaN	0.000000	0.001683	0.001654	28.0797	0.105501	0.001996	52.8621	169.353	-168.567	0.061334	0.121308	-0.924733	-0.926001	0.083140	52.8621	-0.925912	-2.275208E+12	-3.654190E-14	NaN
416	1.000000	0.130610	7.36913e+06	-56289.1	1005.82	-29739.5	0.000000	0.000000	6.130791	0.020289	NaN	0.000000	0.001719	0.001630	28.0795	0.015777	0.002113	7.467537	130.321	-168.432	-0.008662	0.129274	-0.916700	-0.918035	0.020289	7.467537	-0.918737	-1.820369E+12	-1.114577E-14	NaN
416	1.000000	0.138596	7.36913e+06	-56289.1	1005.82	-29739.5	0.000000	0.000000	6.138777	0.020629	NaN	0.000000	0.001721	0.001642	28.08	0.055620	0.002081	26.7237	153.551	-164.495	0.033322	0.137264	-0.908714	-0.910045	0.020629	26.7237	-0.909293	-1.357089E+12	-1.520112E-14	NaN
416	1.000000	0.146602	7.36913e+06	-56289.1	1005.82	-29739.5	0.000000	0.000000	6.146783	0.010425	NaN	0.000000	0.001744	0.001649	28.0796	0.095682	0.002089	45.8078	-54.7132	-166.461	0.037306	0.145261	-0.900708	-0.902048	0.010425	45.8078	-0.900878	-1.044558E+12	-9.980473E-15	NaN
416	1.000000	0.154584	7.36913e+06	-56289.1	1005.82	-29739.5	0.000000	0.000000	6.154767	0.070956	NaN	0.000000	0.001724	0.001625	28.0795	0.116420	0.002022	57.5633	-164.154	-165.585	-0.015070	0.153322	-0.892726	-0.893987	0.070956	57.5633	-0.893650	-8.341681E+11	-8.506194E-14	NaN
416	1.000000	0.162607	7.36913e+06	-56289.1	1005.82	-29739.5	0.000000	0.000000	6.162790	0.042705	NaN	0.000000	0.001687	0.001619	28.0796	0.061796	0.002031	30.4256	31.591	-167.711	-0.029361	0.161303	-0.884702	-0.886007	0.042705	30.4256	-0.885755	-6.524152E+11	-6.545711E-14	NaN
416	1.000000	0.170602	7.36913e+06	-56289.1	1005.82	-29739.5	0.000000	0.000000	6.170783	-0.000810	NaN	0.000000	0.001685	0.001631	28.0794	0.081989	0.002106	38.9277	68.7185	-167.457	0.058103	0.169268	-0.876707	-0.878041	-0.000810	38.9277	-0.876691	-4.919929E+11	1.647036E-15	NaN
416	1.000000	0.178637	7.36913e+06	-56289.1	1005.82	-29739.5	0.000000	0.000000	6.178819	0.027292	NaN	0.000000	0.001725	0.001633	28.0797	0.118681	0.001919	61.8293	158.047	-165.404	0.064446	0.177273	-0.868672	-0.870036	0.027292	61.8293	-0.869003	-3.872173E+11	-7.048323E-14	NaN
416	1.000000	0.186623	7.36913e+06	-56289.1	1005.82	-29739.5	0.000000	0.000000	6.186806	0.061535	NaN	0.000000	0.001673	0.001624	28.0795	0.055901	0.002003	27.9101	46.3177	-166.722	0.004908	0.185322	-0.860686	-0.861987	0.061535	27.9101	-0.862340	-3.146226E+11	-1.955845E-13	NaN
416	1.000000	0.194600	7.36913e+06	-56289.1	1005.82	-29739.5	0.000000	0.000000	6.194782	0.006322	NaN	0.000000	0.001680	0.001638	28.0797	0.115818	0.002025	57.1961	58.1773	-163.509	-0.041468	0.193273	-0.852709	-0.854036	0.006322	57.1961	-0.852792	-2.336353E+11	-2.705886E-14	NaN
416	1.000000	0.202638	7.36913e+06	-56289.1	1005.82	-29739.5	0.000000	0.000000	6.202821	0.048437	NaN	0.000000	0.001675	0.001632	28.0796	0.121305	0.002061	58.8517	-31.6261	-167.526	0.014833	0.201360	-0.844671	-0.845949	0.048437	58.8517	-0.845288	-1.848952E+11	-2.619705E-13	NaN
416	1.000000	0.210652	7.36913e+06	-56289.1	1005.82	-29739.5	0.000000	0.000000	6.210833	0.013912	NaN	0.000000	0.001676	0.001638	28.0797	0.032348	0.001883	17.1768	83.2073	-165.064	-0.001290	0.209371	-0.836657	-0.837938	0.013912	17.1768	-0.837265	-1.439582E+11	-9.663591E-14	NaN
416	1.000000	0.218635	7.36913e+06	-56289.1	1005.82	-29739.5	0.000000	0.000000	6.218818	0.050240	NaN	0.000000	0.001729	0.001666	28.0798	0.027818	0.001969	14.1279	-69.7091	-168.393	0.052776	0.217350	-0.828674	-0.829959	0.050240	14.1279	-0.831341	-1.196628E+11	-4.198474E-13	NaN
416	1.000000	0.226656	7.36913e+06	-56289.1	1005.82	-29739.5	0.000000	0.000000	6.226838	0.041899	NaN	0.000000	0.001645	0.001618	28.0796	0.054752	0.002087	26.2361	31.9048	-162.445	0.089128	0.225333	-0.820653	-0.821976	0.041899	26.2361	-0.821851	-8.898447E+10	-4.708625E-13	NaN
416	1.000000	0.234620	7.36913e+06	-56289.1	1005.82	-29739.5	0.000000	0.000000	6.234805	0.096202	NaN	0.000000	0.001693	0.001676	28.0787	0.035225	0.002001	17.6081	-83.4287	-163.403	-0.009571	0.233323	-0.812689	-0.813987	0.096202	17.6081	-0.816787	-7.596936E+10	-1.266320E-12	NaN
416	1.000000	0.242667	7.36913e+06	-56289.1	1005.82	-29739.5	0.000000	0.000000	6.242846	-0.027047	NaN	0.000000	0.001717	0.001649	28.0785	0.034078	0.001913	17.8142	-101.365	-166.671	0.021515	0.241368	-0.804643	-0.805941	-0.027047	17.8142	-0.803504	-5.016755E+10	5.391299E-13	NaN
416	1.000000	0.250666	7.36913e+06	-56289.1	1005.82	-29739.5	0.000000	0.000000	6.250848	0.028997	NaN	0.000000	0.001672	0.001637	28.0784	0.065964	0.002030	32.4917	170.823	-162.622	0.026929	0.249341	-0.796644	-0.797968	0.028997	32.4917	-0.797313	-4.134139E+10	-7.013985E-13	NaN
416	1.000000	0.258652	7.36913e+06	-56289.1	1005.82	-29739.5	0.000000	0.000000	6.258832	-0.003750	NaN	0.000000	0.001647	0.001619	28.0785	0.053005	0.001748	30.3157	-178.306	-166.787	-0.022160	0.257350	-0.788658	-0.789959	-0.003750	30.3157	-0.788565	-3.144779E+10	1.192448E-13	NaN
416	1.000000	0.266657	7.36913e+06	-56289.1	1005.82	-29739.5	0.000000	0.000000	6.266841	0.052342	NaN	0.000000	0.001684	0.001629	28.0783	0.161796	0.001947	83.1187	-137.718	-164.892	0.057852	0.265350	-0.780652	-0.781959	0.052342	83.1187	-0.781124	-2.491758E+10	-2.100596E-12	NaN
416	1.000000	0.274656	7.36913e+06	-56289.1	1005.82	-29739.5	0.000000	0.000000	6.274840	0.076824	NaN	0.000000	0.001674	0.001634	28.0785	0.027273	0.002049	13.3116	-123.349	-163.576	0.060475	0.273383	-0.772653	-0.773926	0.076824	13.3116	-0.776981	-2.188818E+10	-3.509857E-12	NaN
416	1.000000	0.282661	7.36913e+06	-56289.1	1005.82	-29739.5	0.000000	0.000000	6.282843	0.027874	NaN	0.000000	0.001683	0.001642	28.0785	0.009004	0.002030	4.436310	85.2653	-164.225	0.062740	0.281394	-0.764648	-0.765915	0.027874	4.436310	-0.769360	-1.724276E+10	-1.616540E-12	NaN
416	1.000000	0.290666	7.36913e+06	-56289.1	1005.82	-29739.5	0.000000	0.000000	6.290847	0.020614	NaN	0.000000	0.001646	0.001641	28.0785	0.074855	0.001976	37.8756	-137.263	-163.958	0.012106	0.289383	-0.756644	-0.757926	0.020614	37.8756	-0.757052	-1.172715E+10	-1.757818E-12	NaN
416	1.000000	0.298672	7.36913e+06	-56289.1	1005.82	-29739.5	0.000000	0.000000	6.298854	0.010310	NaN	0.000000	0.001685	0.001660	28.0785	0.073273	0.002127	34.4415	117.507	-163.069	0.121735	0.297353	-0.748637	-0.749956	0.010310	34.4415	-0.748862	-9.072404E+9	-1.136429E-12	NaN
416	1.000000	0.306689	7.36913e+06	-56289.1	1005.82	-29739.5	0.000000	0.000000	6.306870	0.001765	NaN	0.000000	0.001683	0.001658	28.0783	0.021512	0.002006	10.726	-120.493	-165.437	0.064741	0.305389	-0.740620	-0.741920	0.001765	10.726	-0.740744	-7.033760E+9	-2.508688E-13	NaN
416	1.000000	0.314670	7.36913e+06	-56289.1	1005.82	-29739.5	0.000000	0.000000	6.314853	0.053500	NaN	0.000000	0.001656	0.001676	28.0783	0.029460	0.001978	14.8905	116.112	-163.122	-0.043403	0.313380	-0.732639	-0.733929	0.053500	14.8905	-0.735334	-5.936025E+9	-9.012785E-12	NaN
416	1.000000	0.322683	7.36913e+06	-56289.1	1005.82	-29739.5	0.000000	0.000000	6.322864	0.011185	NaN	0.000000	0.001715	0.001668	28.0783	0.085431	0.002052	41.6342	100.698	-165.026	-0.005674	0.321392	-0.724626	-0.725917	0.011185	41.6342	-0.724828	-4.268771E+9	-2.620235E-12	NaN
416	1.000000	0.330693	7.36913e+06	-56289.1	1005.82	-29739.5	0.000000	0.000000	6.330873	-0.016698	NaN	0.000000	0.001710	0.001702	28.0785	0.128868	0.002051	62.8175	41.2701	-167.941	-0.071699	0.329385	-0.716616	-0.717925	-0.016698	62.8175	-0.716417	-3.277938E+9	5.094058E-12	NaN
416	1.000000	0.338704	7.36913e+06	-56289.1	1005.82	-29739.5	0.000000	0.000000	6.338888	0.082847	NaN	0.000000	0.001716	0.001656	28.0782	0.012220	0.002152	5.677233	-78.3547	-168.887	0.078701	0.337404	-0.708605	-0.709905	0.082847	5.677233	-0.719550	-3.616877E+9	-2.290574E-11	NaN
416	1.000000	0.346672	7.36913e+06	-56289.1	1005.82	-29739.5	0.000000	0.000000	6.346854	0.021200	NaN	0.000000	0.001684	0.001694	28.0783	0.048734	0.001987	24.5319	-88.2277	-165.8	0.073564	0.345397	-0.700637	-0.701912	0.021200	24.5319	-0.701285	-2.037427E+9	-1.040541E-11	NaN
416	1.000000	0.354687	7.36913e+06	-56289.1	1005.82	-29739.5	0.000000	0.000000	6.354871	0.075833	NaN	0.000000	0.001694	0.001673	28.0784	0.073118	0.001951	37.4771	78.9403	-167.024	0.128009	0.353437	-0.692622	-0.693872	0.075833	37.4771	-0.694140	-1.627354E+9	-4.659879E-11	NaN
416	1.000000	0.362726	7.36913e+06	-56289.1	1005.82	-29739.5	0.000000	0.000000	6.362908	0.027256	NaN	0.000000	0.001706	0.001700	28.0783	0.104038	0.002049	50.7715	34.3018	-165.293	0.037457	0.361437	-0.684583	-0.685872	0.027256	50.7715	-0.684986	-1.220067E+9	-2.233984E-11	NaN
416	1.000000	0.370715	7.36913e+06	-56289.1	1005.82	-29739.5	0.000000	0.000000	6.370895	-0.022719	NaN	0.000000	0.001683	0.001679	28.0798	0.111116	0.001995	55.7052	155.217	-166.295	0.067034	0.369453	-0.676595	-0.677857	-0.022719	55.7052	-0.676289	-9.277710E+8	2.448775E-11	NaN
416	1.000000	0.378721	7.36913e+06	-56289.1	1005.82	-29739.5	0.000000	0.000000	6.378903	0.024361	NaN	0.000000	0.001712	0.001704	28.0796	0.040800	0.001996	20.4376	-48.1271	-166.362	0.035796	0.377365	-0.668588	-0.669944	0.024361	20.4376	-0.669482	-7.486941E+8	-3.253776E-11	NaN
416	1.000000	0.386691	7.36913e+06	-56289.1	1005.82	-29739.5	0.000000	0.000000	6.386875	0.070609	NaN	0.000000	0.001727	0.001695	28.0798	0.081832	0.001982	41.2936	-106.61	-170.339	0.032439	0.385402	-0.660618	-0.661907	0.070609	41.2936	-0.661900	-5.895151E+8	-1.197745E-10	NaN
416	1.000000	0.394716	7.36913e+06	-56289.1	1005.82	-29739.5	0.000000	0.000000	6.394898	0.029995	NaN	0.000000	0.001733	0.001655	28.0798	0.084676	0.001968	43.0328	101.695	-166.651	0.069050	0.393428	-0.652593	-0.653881	0.029995	43.0328	-0.653116	-4.468374E+8	-6.712672E-11	NaN
416	1.000000	0.402706	7.36913e+06	-56289.1	1005.82	-29739.5	0.000000	0.000000	6.402888	0.017154	NaN	0.000000	0.001715	0.001632	28.0795	0.015135	0.001972	7.675648	-11.3178	-165.534	-0.010641	0.401377	-0.644603	-0.645932	0.017154	7.675648	-0.646279	-3.600949E+8	-4.763757E-11	NaN
416	1.000000	0.410716	7.36913e+06	-56289.1	1005.82	-29739.5	0.000000	0.000000	6.410899	0.060929	NaN	0.000000	0.001738	0.001658	28.0798	0.037714	0.001907	19.7724	104.066	-165.301	0.006137	0.409428	-0.636594	-0.637881	0.060929	19.7724	-0.638905	-2.852725E+8	-2.135812E-10	NaN
416	1.000000	0.418733	7.36913e+06	-56289.1	1005.82	-29739.5	0.000000	0.000000	6.418916	0.048423	NaN	0.000000	0.001706	0.001601	28.0797	0.126373	0.002057	61.4492	-45.8203	-165.74	0.068121	0.417417	-0.628576	-0.629892	0.048423	61.4492	-0.629167	-2.096937E+8	-2.309243E-10	NaN
416	1.000000	0.426735	7.36913e+06	-56289.1	1005.82	-29739.5	0.000000	0.000000	6.426918	0.051389	NaN	0.000000	0.001741	0.001622	28.0799	0.121279	0.001991	60.8993	166.262	-162.636	0.044193	0.425463	-0.620574	-0.621846	0.051389	60.8993	-0.621207	-1.630144E+8	-3.152444E-10	NaN
416	1.000000	0.434731	7.36913e+06	-56289.1	1005.82	-29739.5	0.000000	0.000000	6.434912	0.011112	NaN	0.000000	0.001724	0.001602	28.0796	0.020814	0.002128	9.782331	-131.342	-166.181	-0.046234	0.433456	-0.612578	-0.613853	0.011112	9.782331	-0.613430	-1.274393E+8	-8.719604E-11	NaN
416	1.000000	0.442718	7.36913e+06	-56289.1	1005.82	-29739.5	0.000000	0.000000	6.442899	0.002496	NaN	0.000000	0.001691	0.001633	28.0795	0.022919	0.002040	11.2342	81.6909	-166.32	0.073349	0.441408	-0.604591	-0.605901	0.002496	11.2342	-0.604758	-9.682077E+7	-2.577695E-11	NaN
416	1.000000	0.450765	7.36913e+06	-56289.1	1005.82	-29739.5	0.000000	0.000000	6.450944	-0.038917	NaN	0.000000	0.001686	0.001634	28.0798	0.041331	0.001933	21.3791	126.552	-169.619	-0.034205	0.449399	-0.596545	-0.597910	-0.038917	21.3791	-0.595179	-7.145811E+7	5.446102E-10	NaN
416	1.000000	0.458737	7.36913e+06	-56289.1	1005.82	-29739.5	0.000000	0.000000	6.458918	0.001059	NaN	0.000000	0.001711	0.001594	28.0794	0.019519	0.001987	9.823677	32.6775	-166.707	0.018470	0.457411	-0.588572	-0.589898	0.001059	9.823677	-0.588653	-5.808851E+7	-1.823686E-11	NaN
416	1.000000	0.466736	7.36913e+06	-56289.1	1005.82	-29739.5	0.000000	0.000000	6.466919	0.059969	NaN	0.000000	0.001739	0.001627	28.0798	0.029166	0.001867	15.6231	-117.118	-162.155	-0.023933	0.465439	-0.580573	-0.581870	0.059969	15.6231	-0.583452	-4.924472E+7	-1.217765E-9	NaN
416	1.000000	0.474711	7.36913e+06	-56289.1	1005.82	-29739.5	0.000000	0.000000	6.474891	0.001314	NaN	0.000000	0.001748	0.001626	28.0796	0.082888	0.001983	41.8014	-143.434	-164.221	-0.006960	0.473417	-0.572599	-0.573892	0.001314	41.8014	-0.572622	-3.490269E+7	-3.765468E-11	NaN
416	1.000000	0.482731	7.36913e+06	-56289.1	1005.82	-29739.5	0.000000	0.000000	6.482912	-0.006299	NaN	0.000000	0.001681	0.001629	28.0797	0.051373	0.001850	27.7658	-145.948	-167.838	-0.057140	0.481407	-0.564578	-0.565902	-0.006299	27.7658	-0.564408	-2.687432E+7	2.343822E-10	NaN
416	1.000000	0.490747	7.36913e+06	-56289.1	1005.82	-29739.5	0.000000	0.000000	6.490929	0.039313	NaN	0.000000	0.001691	0.001607	28.0796	0.060213	0.001909	31.5478	-78.0104	-163.67	0.108006	0.489461	-0.556563	-0.557848	0.039313	31.5478	-0.557497	-2.156500E+7	-1.822988E-9	NaN
416	1.000000	0.498766	7.36913e+06	-56289.1	1005.82	-29739.5	0.000000	0.000000	6.498949	0.051013	NaN	0.000000	0.001718	0.001589	28.0797	0.089229	0.002044	43.6632	131.791	-168.448	0.028150	0.497415	-0.548543	-0.549894	0.051013	43.6632	-0.549419	-1.666922E+7	-3.060303E-9	NaN
416	1.000000	0.506778	7.36913e+06	-56289.1	1005.82	-29739.5	0.000000	0.000000	6.506961	0.031527	NaN	0.000000	0.001715	0.001596	28.0784	0.040502	0.001984	20.4181	-1.687548	-161.01	0.054984	0.505449	-0.540531	-0.541861	0.031527	20.4181	-0.541689	-1.302499E+7	-2.420508E-9	NaN
416	1.000000	0.514767	7.36913e+06	-56289.1	1005.82	-29739.5	0.000000	0.000000	6.514947	-0.005423	NaN	0.000000	0.001681	0.001597	28.0784	0.041131	0.002002	20.5419	-170.332	-166.843	-0.001457	0.513452	-0.532543	-0.533858	-0.005423	20.5419	-0.532345	-9.66345e+06	5.611941E-10	NaN
416	1.000000	0.522775	7.36913e+06	-56289.1	1005.82	-29739.5	0.000000	0.000000	6.522956	0.011757	NaN	0.000000	0.001702	0.001613	28.0784	0.077271	0.002118	36.4866	9.779448	-166.913	0.070892	0.521441	-0.524535	-0.525869	0.011757	36.4866	-0.524776	-7.58584e+06	-1.549827E-9	NaN
416	1.000000	0.530766	7.36913e+06	-56289.1	1005.82	-29739.5	0.000000	0.000000	6.530949	0.063871	NaN	0.000000	0.001741	0.001612	28.0785	0.025968	0.002071	12.5365	-94.5099	-167.086	0.059907	0.529464	-0.516544	-0.517845	0.063871	12.5365	-0.520365	-6.58675e+06	-9.696888E-9	NaN
416	1.000000	0.538788	7.36913e+06	-56289.1	1005.82	-29739.5	0.000000	0.000000	6.538969	0.007768	NaN	0.000000	0.001712	0.001599	28.0781	0.074704	0.002031	36.7843	170.932	-164.094	-0.060528	0.537484	-0.508522	-0.509826	0.007768	36.7843	-0.508680	-4.52927e+06	-1.715162E-9	NaN
416	1.000000	0.546791	7.36913e+06	-56289.1	1005.82	-29739.5	0.000000	0.000000	6.546973	0.039969	NaN	0.000000	0.001675	0.001613	28.0783	0.149074	0.002063	72.2532	-124.14	-167.339	0.053095	0.545483	-0.500519	-0.501826	0.039969	72.2532	-0.500934	-3.53217e+06	-1.131569E-8	NaN
416	1.000000	0.554771	7.36913e+06	-56289.1	1005.82	-29739.5	0.000000	0.000000	6.554953	0.039059	NaN	0.000000	0.001719	0.001647	28.0783	0.057243	0.001930	29.6607	-92.7472	-166.247	0.079868	0.553445	-0.492538	-0.493864	0.039059	29.6607	-0.493526	-2.78388e+06	-1.403049E-8	NaN
416	1.000000	0.562802	7.36913e+06	-56289.1	1005.82	-29739.5	0.000000	0.000000	6.562983	0.004861	NaN	0.000000	0.001694	0.001636	28.0783	0.034557	0.002033	16.9987	2.946218	-165.582	-0.015796	0.561484	-0.484507	-0.485826	0.004861	16.9987	-0.484722	-2.09699e+06	-2.318126E-9	NaN
416	1.000000	0.570757	7.36913e+06	-56289.1	1005.82	-29739.5	0.000000	0.000000	6.570939	0.017473	NaN	0.000000	0.001677	0.001622	28.0785	0.068868	0.002079	33.1253	23.837	-167.878	0.066947	0.569497	-0.476552	-0.477812	0.017473	33.1253	-0.476948	-1.63224e+06	-1.070504E-8	NaN
416	1.000000	0.578776	7.36913e+06	-56289.1	1005.82	-29739.5	0.000000	0.000000	6.578958	0.033026	NaN	0.000000	0.001694	0.001666	28.078	0.016547	0.001971	8.394530	10.8765	-165.343	0.048292	0.577495	-0.468534	-0.469814	0.033026	8.394530	-0.471484	-1.36842e+06	-2.413410E-8	NaN
416	1.000000	0.586796	7.36913e+06	-56289.1	1005.82	-29739.5	0.000000	0.000000	6.586980	0.063748	NaN	0.000000	0.001665	0.001619	28.0784	0.048305	0.001950	24.7675	167.582	-165.551	0.123116	0.585411	-0.460513	-0.461899	0.063748	24.7675	-0.462443	-1.02175e+06	-6.239138E-8	NaN
416	1.000000	0.594777	7.36913e+06	-56289.1	1005.82	-29739.5	0.000000	0.000000	6.594959	0.020901	NaN	0.000000	0.001692	0.001629	28.0784	0.047469	0.002125	22.3424	1.806806	-166.284	0.031262	0.593456	-0.452532	-0.453853	0.020901	22.3424	-0.453234	-758348	-2.756111E-8	NaN
416	1.000000	0.602827	7.36913e+06	-56289.1	1005.82	-29739.5	0.000000	0.000000	6.603012	0.086728	NaN	0.000000	0.001706	0.001617	28.0785	0.054946	0.001911	28.7467	-140.754	-167.004	0.150191	0.601460	-0.444482	-0.445849	0.086728	28.7467	-0.446744	-614442	-1.411499E-7	NaN
416	1.000000	0.610791	7.36913e+06	-56289.1	1005.82	-29739.5	0.000000	0.000000	6.610973	0.036599	NaN	0.000000	0.001691	0.001628	28.0784	0.127446	0.001944	65.5633	135.209	-169.711	-0.045349	0.609468	-0.436519	-0.437842	0.036599	65.5633	-0.436937	-446809	-8.191092E-8	NaN
416	1.000000	0.618789	7.36913e+06	-56289.1	1005.82	-29739.5	0.000000	0.000000	6.618970	0.003386	NaN	0.000000	0.001723	0.001656	28.0784	0.041175	0.001927	21.3668	-5.424293	-169.714	-0.006862	0.617517	-0.428520	-0.429792	0.003386	21.3668	-0.428639	-341035	-9.928071E-9	NaN
416	1.000000	0.626793	7.36913e+06	-56289.1	1005.82	-29739.5	0.000000	0.000000	6.626976	0.051156	NaN	0.000000	0.001695	0.001638	28.0786	0.082323	0.002084	39.494	139.676	-166.625	-0.030237	0.625497	-0.420516	-0.421812	0.051156	39.494	-0.421487	-270088	-1.894038E-7	NaN
416	1.000000	0.634794	7.36913e+06	-56289.1	1005.82	-29739.5	0.000000	0.000000	6.634975	0.011838	NaN	0.000000	0.001704	0.001659	28.0784	0.052949	0.002168	24.4205	126.848	-165.126	-0.007973	0.633535	-0.412515	-0.413775	0.011838	24.4205	-0.412879	-203856	-5.806858E-8	NaN
416	1.000000	0.642802	7.36913e+06	-56289.1	1005.82	-29739.5	0.000000	0.000000	6.642983	-0.004709	NaN	0.000000	0.001732	0.001622	28.0797	0.055602	0.001998	27.827	106.987	-166.764	0.010924	0.641541	-0.404507	-0.405768	-0.004709	27.827	-0.404380	-154319	3.051778E-8	NaN
416	1.000000	0.650802	7.36913e+06	-56289.1	1005.82	-29739.5	0.000000	0.000000	6.650985	0.047814	NaN	0.000000	0.001726	0.001623	28.0794	0.137504	0.001959	70.1957	-56.5078	-165.19	0.060070	0.649546	-0.396507	-0.397763	0.047814	70.1957	-0.397018	-121186	-3.945494E-7	NaN
416	1.000000	0.658823	7.36913e+06	-56289.1	1005.82	-29739.5	0.000000	0.000000	6.659003	-0.015339	NaN	0.000000	0.001732	0.001617	28.0796	0.087047	0.001904	45.7128	-85.8684	-165.558	0.037156	0.657524	-0.388486	-0.389785	-0.015339	45.7128	-0.388235	-90762.4	1.689970E-7	NaN
416	1.000000	0.666828	7.36913e+06	-56289.1	1005.82	-29739.5	0.000000	0.000000	6.667012	0.081812	NaN	0.000000	0.001749	0.001604	28.0794	0.041850	0.002072	20.199	169.829	-168.732	0.128609	0.665541	-0.380482	-0.381768	0.081812	20.199	-0.383519	-77690.4	-1.053047E-6	NaN
416	1.000000	0.674860	7.36913e+06	-56289.1	1005.82	-29739.5	0.000000	0.000000	6.675040	-0.023155	NaN	0.000000	0.001719	0.001605	28.0797	0.010882	0.002128	5.112681	128.458	-168.696	0.041970	0.673507	-0.372449	-0.373802	-0.023155	5.112681	-0.369052	-48136.6	4.810282E-7	NaN
416	1.000000	0.682855	7.36913e+06	-56289.1	1005.82	-29739.5	0.000000	0.000000	6.683037	0.028510	NaN	0.000000	0.001719	0.001629	28.0801	0.075972	0.001984	38.2933	-165.252	-166.631	0.002380	0.681524	-0.364454	-0.365786	0.028510	38.2933	-0.365012	-42095.3	-6.772825E-7	NaN
416	1.000000	0.690809	7.36913e+06	-56289.1	1005.82	-29739.5	0.000000	0.000000	6.690994	0.102121	NaN	0.000000	0.001719	0.001633	28.0798	0.077213	0.001969	39.2105	-142.026	-168.986	0.024975	0.689574	-0.356500	-0.357735	0.102121	39.2105	-0.358453	-33844	-3.017398E-6	NaN
416	1.000000	0.698857	7.36913e+06	-56289.1	1005.82	-29739.5	0.000000	0.000000	6.699040	0.048399	NaN	0.000000	0.001727	0.001619	28.0798	0.099033	0.002026	48.8775	-64.3864	-168.146	0.072402	0.697537	-0.348452	-0.349773	0.048399	48.8775	-0.349195	-24849.1	-1.947711E-6	NaN
416	1.000000	0.706847	7.36913e+06	-56289.1	1005.82	-29739.5	0.000000	0.000000	6.707031	0.073190	NaN	0.000000	0.001703	0.001656	28.0795	0.042747	0.001876	22.7918	126.747	-167.338	0.089642	0.705501	-0.340462	-0.341808	0.073190	22.7918	-0.342871	-20108.2	-3.639816E-6	NaN
416	1.000000	0.714849	7.36913e+06	-56289.1	1005.82	-29739.5	0.000000	0.000000	6.715031	0.022056	NaN	0.000000	0.001716	0.001643	28.0799	0.116729	0.001931	60.4363	172.126	-164.931	0.094609	0.713560	-0.332460	-0.333750	0.022056	60.4363	-0.332734	-14304.1	-1.541937E-6	NaN
416	1.000000	0.722872	7.36913e+06	-56289.1	1005.82	-29739.5	0.000000	0.000000	6.723055	0.041999	NaN	0.000000	0.001751	0.001645	28.0796	0.052700	0.002088	25.2436	99.0955	-167.072	0.016643	0.721502	-0.324437	-0.325808	0.041999	25.2436	-0.325685	-11276.8	-3.724375E-6	NaN
416	1.000000	0.730834	7.36913e+06	-56289.1	1005.82	-29739.5	0.000000	0.000000	6.731017	0.050367	NaN	0.000000	0.001733	0.001651	28.0795	0.025396	0.001994	12.7329	85.4607	-167.322	0.010391	0.729497	-0.316475	-0.317812	0.050367	12.7329	-0.319442	-9129.03	-5.517213E-6	NaN
416	1.000000	0.738845	7.36913e+06	-56289.1	1005.82	-29739.5	0.000000	0.000000	6.739028	0.051498	NaN	0.000000	0.001703	0.001624	28.0796	0.109797	0.001975	55.5816	88.9218	-167.214	0.098148	0.737581	-0.308465	-0.309729	0.051498	55.5816	-0.309160	-6436	-8.001591E-6	NaN
416	1.000000	0.746850	7.36913e+06	-56289.1	1005.82	-29739.5	0.000000	0.000000	6.747032	0.040069	NaN	0.000000	0.001693	0.001639	28.0796	0.101286	0.002006	50.4798	13.0201	-163.837	0.053167	0.745529	-0.300460	-0.301781	0.040069	50.4798	-0.301055	-4879.07	-8.212488E-6	NaN
416	1.000000	0.754854	7.36913e+06	-56289.1	1005.82	-29739.5	0.000000	0.000000	6.755033	-0.043695	NaN	0.000000	0.001681	0.001618	28.0798	0.065987	0.001969	33.511	-131.48	-163.453	-0.058785	0.753577	-0.292455	-0.293733	-0.043695	33.511	-0.291477	-3510.94	1.244548E-5	NaN
416	1.000000	0.762854	7.36913e+06	-56289.1	1005.82	-29739.5	0.000000	0.000000	6.763034	-0.007051	NaN	0.000000	0.001629	0.001641	28.0796	0.110269	0.001963	56.1699	-75.6654	-164.796	-0.041826	0.761547	-0.284456	-0.285762	-0.007051	56.1699	-0.284362	-2745.79	2.567947E-6	NaN
416	1.000000	0.770868	7.36913e+06	-56289.1	1005.82	-29739.5	0.000000	0.000000	6.771052	0.069686	NaN	0.000000	0.001663	0.001639	28.0795	0.082532	0.002024	40.7827	82.6377	-163.713	0.078818	0.769576	-0.276441	-0.277733	0.069686	40.7827	-0.277723	-2180.65	-3.195659E-5	NaN
416	1.000000	0.778885	7.36913e+06	-56289.1	1005.82	-29739.5	0.000000	0.000000	6.779066	-0.006616	NaN	0.000000	0.001682	0.001643	28.0788	0.080431	0.001946	41.3405	18.025	-166.997	0.023840	0.777561	-0.268424	-0.269749	-0.006616	41.3405	-0.268304	-1569.45	4.215354E-6	NaN
416	1.000000	0.786875	7.36913e+06	-56289.1	1005.82	-29739.5	0.000000	0.000000	6.787056	0.020029	NaN	0.000000	0.001704	0.001645	28.0782	0.040227	0.001994	20.1698	-3.295340	-165.503	0.013926	0.785517	-0.260435	-0.261792	0.020029	20.1698	-0.261179	-1221.75	-1.639375E-5	NaN
416	1.000000	0.794887	7.36913e+06	-56289.1	1005.82	-29739.5	0.000000	0.000000	6.795068	0.002504	NaN	0.000000	0.001680	0.001643	28.0783	0.107308	0.001900	56.4721	-126.619	-165.756	-0.031450	0.793554	-0.252423	-0.253755	0.002504	56.4721	-0.252456	-897.233	-2.790778E-6	NaN
416	1.000000	0.802882	7.36913e+06	-56289.1	1005.82	-29739.5	0.000000	0.000000	6.803063	0.014041	NaN	0.000000	0.001693	0.001590	28.0782	0.088303	0.001968	44.8586	68.6945	-166.182	0.075094	0.801564	-0.244428	-0.245746	0.014041	44.8586	-0.244662	-679.525	-2.066361E-5	NaN
416	1.000000	0.810909	7.36913e+06	-56289.1	1005.82	-29739.5	0.000000	0.000000	6.811092	0.055218	NaN	0.000000	0.001700	0.001607	28.0784	0.066192	0.001993	33.2119	41.097	-166.461	0.123508	0.809573	-0.236401	-0.237736	0.055218	33.2119	-0.237648	-528.157	-0.000105	NaN
416	1.000000	0.818904	7.36913e+06	-56289.1	1005.82	-29739.5	0.000000	0.000000	6.819086	0.011726	NaN	0.000000	0.001637	0.001605	28.0784	0.085561	0.002058	41.5655	72.9199	-167.465	-0.040414	0.817581	-0.228405	-0.229728	0.011726	41.5655	-0.228616	-380.76	-3.079695E-5	NaN
416	1.000000	0.826902	7.36913e+06	-56289.1	1005.82	-29739.5	0.000000	0.000000	6.827082	-0.022039	NaN	0.000000	0.001706	0.001637	28.0783	0.115303	0.002038	56.5818	-48.9519	-166.975	0.003494	0.825584	-0.220407	-0.221726	-0.022039	56.5818	-0.220115	-278.94	7.900975E-5	NaN
416	1.000000	0.834903	7.36913e+06	-56289.1	1005.82	-29739.5	0.000000	0.000000	6.835086	0.058927	NaN	0.000000	0.001707	0.001630	28.0783	0.088159	0.001946	45.2971	-84.2911	-170.454	0.000510	0.833599	-0.212406	-0.213710	0.058927	45.2971	-0.213382	-217.501	-0.000271	NaN
416	1.000000	0.842922	7.36913e+06	-56289.1	1005.82	-29739.5	0.000000	0.000000	6.843102	-0.043231	NaN	0.000000	0.001716	0.001644	28.0784	0.144623	0.002057	70.3167	-86.2243	-165.27	-0.002246	0.841570	-0.204387	-0.205739	-0.043231	70.3167	-0.203926	-152.765	0.000283	NaN
416	1.000000	0.850897	7.36913e+06	-56289.1	1005.82	-29739.5	0.000000	0.000000	6.851079	0.032313	NaN	0.000000	0.001710	0.001606	28.0783	0.139803	0.002020	69.2141	121.859	-169.346	0.016396	0.849612	-0.196412	-0.197697	0.032313	69.2141	-0.196762	-116.508	-0.000277	NaN
416	1.000000	0.858938	7.36913e+06	-56289.1	1005.82	-29739.5	0.000000	0.000000	6.859121	0.034558	NaN	0.000000	0.001745	0.001649	28.0787	0.041349	0.002085	19.8359	-13.0802	-168.003	-0.026126	0.857605	-0.188371	-0.189704	0.034558	19.8359	-0.189678	-88.8468	-0.000389	NaN
416	1.000000	0.866924	7.36913e+06	-56289.1	1005.82	-29739.5	0.000000	0.000000	6.867102	-0.058326	NaN	0.000000	0.001721	0.001639	28.0783	0.038843	0.002005	19.3749	140.132	-165.814	0.067174	0.865599	-0.180385	-0.181710	-0.058326	19.3749	-0.178128	-56.6962	0.001029	NaN
416	1.000000	0.874906	7.36913e+06	-56289.1	1005.82	-29739.5	0.000000	0.000000	6.875087	0.008030	NaN	0.000000	0.001713	0.001680	28.0793	0.088931	0.001922	46.2629	-173.431	-164.903	0.009574	0.873613	-0.172403	-0.173697	0.008030	46.2629	-0.172533	-45.4451	-0.000177	NaN
416	1.000000	0.882913	7.36913e+06	-56289.1	1005.82	-29739.5	0.000000	0.000000	6.883092	-0.033378	NaN	0.000000	0.001747	0.001661	28.0784	0.089490	0.002088	42.8574	-107.02	-167.487	-0.016928	0.881606	-0.164396	-0.165703	-0.033378	42.8574	-0.163812	-32.0199	0.001042	NaN
416	1.000000	0.890923	7.36913e+06	-56289.1	1005.82	-29739.5	0.000000	0.000000	6.891108	0.089489	NaN	0.000000	0.001744	0.001665	28.0785	0.092330	0.002055	44.9239	-174.993	-168.195	0.121565	0.889579	-0.156386	-0.157730	0.089489	44.9239	-0.157880	-25.1313	-0.003561	NaN
416	1.000000	0.898898	7.36913e+06	-56289.1	1005.82	-29739.5	0.000000	0.000000	6.899081	0.064830	NaN	0.000000	0.001687	0.001613	28.0784	0.084524	0.002044	41.3549	27.7508	-168.124	0.106504	0.897629	-0.148412	-0.149680	0.064830	41.3549	-0.149587	-17.8022	-0.003642	NaN
416	1.000000	0.906948	7.36913e+06	-56289.1	1005.82	-29739.5	0.000000	0.000000	6.907129	0.008412	NaN	0.000000	0.001732	0.001619	28.0784	0.053397	0.002033	26.27	53.9	-163.581	0.047247	0.905593	-0.140361	-0.141716	0.008412	26.27	-0.140601	-12.141	-0.000693	NaN
416	1.000000	0.914911	7.36913e+06	-56289.1	1005.82	-29739.5	0.000000	0.000000	6.915094	0.055651	NaN	0.000000	0.001689	0.001640	28.0791	0.034087	0.002017	16.8972	10.3179	-166.047	0.054297	0.913640	-0.132398	-0.133670	0.055651	16.8972	-0.134868	-9.457445	-0.005884	NaN
416	1.000000	0.922922	7.36913e+06	-56289.1	1005.82	-29739.5	0.000000	0.000000	6.923104	0.025110	NaN	0.000000	0.001690	0.001598	28.0797	0.053229	0.001996	26.6677	53.7365	-163.966	0.014739	0.921677	-0.124388	-0.125632	0.025110	26.6677	-0.125094	-6.107307	-0.004112	NaN
416	1.000000	0.930921	7.36913e+06	-56289.1	1005.82	-29739.5	0.000000	0.000000	6.931105	0.092260	NaN	0.000000	0.001719	0.001581	28.0797	0.013926	0.002050	6.794547	73.8674	-167.502	0.144006	0.929602	-0.116389	-0.117707	0.092260	6.794547	-0.126573	-6.531591	-0.014125	NaN
416	1.000000	0.938937	7.36913e+06	-56289.1	1005.82	-29739.5	0.000000	0.000000	6.939120	0.049398	NaN	0.000000	0.001679	0.001566	28.0796	0.109337	0.001902	57.4734	31.0069	-169.027	0.075146	0.937633	-0.108372	-0.109676	0.049398	57.4734	-0.109017	-2.864763	-0.017243	NaN
416	1.000000	0.946948	7.36913e+06	-56289.1	1005.82	-29739.5	0.000000	0.000000	6.947132	0.066320	NaN	0.000000	0.001702	0.001575	28.0798	0.071691	0.002021	35.4762	52.5291	-164.631	0.087242	0.945681	-0.100361	-0.101628	0.066320	35.4762	-0.101763	-1.998363	-0.033187	NaN
416	1.000000	0.954965	7.36913e+06	-56289.1	1005.82	-29739.5	0.000000	0.000000	6.955145	-0.010464	NaN	0.000000	0.001711	0.001612	28.0794	0.042355	0.001864	22.7247	8.318896	-169.777	-0.045867	0.953623	-0.092344	-0.093686	-0.010464	22.7247	-0.091999	-1.203486	0.008695	NaN
416	1.000000	0.962960	7.36913e+06	-56289.1	1005.82	-29739.5	0.000000	0.000000	6.963140	-0.033439	NaN	0.000000	0.001671	0.001624	28.0797	0.099812	0.001947	51.2714	-21.535	-166.761	-0.021444	0.961618	-0.084349	-0.085691	-0.033439	51.2714	-0.083860	-0.770868	0.043378	NaN
416	1.000000	0.970962	7.36913e+06	-56289.1	1005.82	-29739.5	0.000000	0.000000	6.971141	-0.060238	NaN	0.000000	0.001701	0.001630	28.0797	0.108785	0.001999	54.4207	158.785	-164.968	-0.014396	0.969656	-0.076347	-0.077654	-0.060238	54.4207	-0.075517	-0.476284	0.126475	NaN
416	1.000000	0.978967	7.36913e+06	-56289.1	1005.82	-29739.5	0.000000	0.000000	6.979149	0.021841	NaN	0.000000	0.001666	0.001597	28.0795	0.054174	0.002049	26.4408	-149.512	-167.372	-0.072721	0.977647	-0.068342	-0.069662	0.021841	26.4408	-0.068961	-0.319866	-0.068283	NaN
416	1.000000	0.986950	7.36913e+06	-56289.1	1005.82	-29739.5	0.000000	0.000000	6.987133	0.048870	NaN	0.000000	0.001709	0.001598	28.0798	0.086995	0.002024	42.9922	-179.456	-166.472	0.108651	0.985670	-0.060359	-0.061640	0.048870	42.9922	-0.061211	-0.195036	-0.250570	NaN
416	1.000000	0.994956	7.36913e+06	-56289.1	1005.82	-29739.5	0.000000	0.000000	6.995137	0.016595	NaN	0.000000	0.001698	0.001623	28.0797	0.017991	0.001963	9.163416	136.642	-165.939	-0.103681	0.993661	-0.052353	-0.053648	0.016595	9.163416	-0.053712	-0.117932	-0.140720	NaN
416	1.000000	1.002963	7.36913e+06	-56289.1	1005.82	-29739.5	0.000000	0.000000	7.003145	0.019528	NaN	0.000000	0.001686	0.001625	28.0799	0.012062	0.002036	5.925579	-7.522802	-169.49	0.063071	1.001646	-0.044346	-0.045664	0.019528	5.925579	-0.046818	-0.073035	-0.267374	NaN
416	1.000000	1.010968	7.36913e+06	-56289.1	1005.82	-29739.5	0.000000	0.000000	7.011151	0.065268	NaN	0.000000	0.001684	0.001603	28.0794	0.068047	0.001859	36.6054	173.444	-164.962	0.063321	1.009655	-0.036342	-0.037655	0.065268	36.6054	-0.037679	-0.038478	-1.696266	NaN
416	1.000000	1.018978	7.36913e+06	-56289.1	1005.82	-29739.5	0.000000	0.000000	7.019161	0.051103	NaN	0.000000	0.001697	0.001576	28.0795	0.093361	0.002004	46.5968	119.122	-164.972	0.046305	1.017653	-0.028331	-0.029656	0.051103	46.5968	-0.029153	-0.021803	-2.343885	NaN
416	1.000000	1.026960	7.36913e+06	-56289.1	1005.82	-29739.5	0.000000	0.000000	7.027139	-0.041448	NaN	0.000000	0.001693	0.001606	28.0795	0.066035	0.001924	34.3211	-78.4295	-164.185	0.017127	1.025624	-0.020349	-0.021685	-0.041448	34.3211	-0.019444	-0.012158	3.409209	NaN
416	1.000000	1.034999	7.36913e+06	-56289.1	1005.82	-29739.5	0.000000	0.000000	7.035182	0.046941	NaN	0.000000	0.001697	0.001563	28.0795	0.060222	0.001983	30.3726	21.4225	-167.475	0.129947	1.033690	-0.012310	-0.013619	0.046941	30.3726	-0.013469	-0.008374	-5.605855	NaN
416	1.000000	1.042950	7.36913e+06	-56289.1	1005.82	-29739.5	0.000000	0.000000	7.043139	0.193872	NaN	0.000000	0.001707	0.001588	28.0797	0.145454	0.001915	75.9643	55.5983	-166.432	0.155086	1.041679	-0.004359	-0.005630	0.193872	75.9643	-0.006273	-0.004203	-46.1311	NaN
416	1.000000	1.050977	7.36913e+06	-56289.1	1005.82	-29739.5	0.000000	0.000000	7.051260	2.495374	NaN	0.000000	0.001677	0.001601	28.0792	3.203745	0.001992	1608.25	11.104	-169.687	1.264439	1.049680	0.003667	0.002371	2.495374	1608.25	0.002504	0.001966	1269.08	33136.1
416	2.000000	1.057557	7.36913e+06	-56289.1	1005.82	-29739.5	0.000000	0.000000	7.058102	8.862340	NaN	0.000000	0.001682	0.001578	28.0784	8.983336	0.001643	5467.83	7.842466	-173.499	9.051223	1.057182	0.010248	0.009873	8.862340	5467.83	0.009032	0.008125	1090.69	55419.7
416	2.000000	1.059586	7.36913e+06	-56289.1	1005.82	-29739.5	0.000000	0.000000	7.060224	11.1124	NaN	0.000000	0.001695	0.001589	28.0786	11.4227	0.001669	6843.45	9.799225	-177.342	10.4694	1.059266	0.012276	0.011957	11.1124	6843.45	0.011058	0.010382	1070.38	61364.2
416	2.000000	1.061558	7.36913e+06	-56289.1	1005.82	-29739.5	0.000000	0.000000	7.062302	13.696	NaN	0.000000	0.001694	0.001584	28.0784	13.1799	0.001757	7501.47	4.735639	-172.298	13.4732	1.061181	0.014249	0.013871	13.696	7501.47	0.012880	0.012561	1090.38	61152.1
416	2.000000	1.063550	7.36913e+06	-56289.1	1005.82	-29739.5	0.000000	0.000000	7.064455	17.6164	NaN	0.000000	0.001673	0.001572	28.0782	15.8927	0.001595	9966.44	4.077375	-175.808	18.0546	1.063258	0.016240	0.015949	17.6164	9966.44	0.014915	0.015172	1161.13	73925.7
416	2.000000	1.065488	7.36913e+06	-56289.1	1005.82	-29739.5	0.000000	0.000000	7.066460	19.2371	NaN	0.000000	0.001685	0.001580	28.0783	17.4988	0.001804	9699.85	6.470306	-176.804	18.1638	1.065198	0.018178	0.017889	19.2371	9699.85	0.016691	0.017607	1092.6	66788.3
416	2.000000	1.067484	7.36913e+06	-56289.1	1005.82	-29739.5	0.000000	0.000000	7.068628	23.4086	NaN	0.000000	0.001678	0.001610	28.0783	19.7766	0.001882	10506.3	4.053821	-174.623	22.1071	1.067203	0.020175	0.019893	23.4086	10506.3	0.018504	0.020246	1156.21	67461
416	2.000000	1.069514	7.36913e+06	-56289.1	1005.82	-29739.5	0.000000	0.000000	7.070852	28.1233	NaN	0.000000	0.001728	0.001587	28.0793	21.7183	0.001865	11647.5	8.315814	-179.696	27.9309	1.069169	0.022205	0.021860	28.1233	11647.5	0.020394	0.023165	1214.06	69918.8
416	2.000000	1.071457	7.36913e+06	-56289.1	1005.82	-29739.5	0.000000	0.000000	7.072980	32.637	NaN	0.000000	0.001687	0.001596	28.0784	23.139	0.001726	13403.2	5.798547	-177.762	31.2642	1.071148	0.024147	0.023839	32.637	13403.2	0.022321	0.026321	1239.94	75479
416	2.000000	1.073485	7.36913e+06	-56289.1	1005.82	-29739.5	0.000000	0.000000	7.075191	37.0855	NaN	0.000000	0.001698	0.001552	28.0784	25.5945	0.001805	14179.1	6.864321	179.719	36.2951	1.073050	0.026175	0.025741	37.0855	14179.1	0.024214	0.029601	1252.86	75295.9
416	2.000000	1.075482	7.36913e+06	-56289.1	1005.82	-29739.5	0.000000	0.000000	7.077381	41.78	NaN	0.000000	0.001666	0.001561	28.0784	27.0167	0.001785	15137.9	4.155861	-178.528	40.8909	1.075148	0.028173	0.027839	41.78	15137.9	0.026103	0.033052	1264.07	76074.9
416	2.000000	1.077457	7.36913e+06	-56289.1	1005.82	-29739.5	0.000000	0.000000	7.079572	46.9983	NaN	0.000000	0.001708	0.001584	28.0784	29.6568	0.001828	16222.6	5.477192	179.439	45.8724	1.077176	0.030148	0.029867	46.9983	16222.6	0.027975	0.036652	1282.3	77419
416	2.000000	1.079512	7.36913e+06	-56289.1	1005.82	-29739.5	0.000000	0.000000	7.081744	49.8546	NaN	0.000000	0.001702	0.001579	28.0793	31.2479	0.001863	16773.2	7.208906	178.038	49.9618	1.079152	0.032203	0.031843	49.8546	16773.2	0.029974	0.040689	1225.26	75971.3
416	2.000000	1.081462	7.36913e+06	-56289.1	1005.82	-29739.5	0.000000	0.000000	7.083925	55.4567	NaN	0.000000	0.001640	0.001588	28.0782	32.2661	0.001735	18598	3.767226	179.956	54.7523	1.081143	0.034153	0.033833	55.4567	18598	0.031917	0.044810	1237.6	80270
416	2.000000	1.083500	7.36913e+06	-56289.1	1005.82	-29739.5	0.000000	0.000000	7.086160	60.2813	NaN	0.000000	0.001688	0.001576	28.0784	35.4198	0.001773	19983	5.013898	177.76	61.5654	1.083202	0.036190	0.035893	60.2813	19983	0.033928	0.049279	1223.27	82243.7
416	2.000000	1.085407	7.36913e+06	-56289.1	1005.82	-29739.5	0.000000	0.000000	7.088515	71.148	NaN	0.000000	0.001655	0.001591	28.0785	36.509	0.001771	20609.3	8.028236	174.203	68.7097	1.085143	0.038098	0.037834	71.148	20609.3	0.035508	0.052937	1344.02	81838.8
416	2.000000	1.087451	7.36913e+06	-56289.1	1005.82	-29739.5	0.000000	0.000000	7.090683	74.1752	NaN	0.000000	0.001697	0.001578	28.0783	38.0843	0.001733	21976.7	1.354970	-179.083	74.2698	1.087165	0.040141	0.039856	74.1752	21976.7	0.037610	0.057998	1278.93	83373.6
416	2.000000	1.089476	7.36913e+06	-56289.1	1005.82	-29739.5	0.000000	0.000000	7.093091	83.4659	NaN	0.000000	0.001757	0.001582	28.0788	41.084	0.001794	22904.5	7.007860	175.218	81.2272	1.089137	0.042167	0.041828	83.4659	22904.5	0.039434	0.062574	1333.88	83656.3
416	2.000000	1.091496	7.36913e+06	-56289.1	1005.82	-29739.5	0.000000	0.000000	7.095331	88.8103	NaN	0.000000	0.001754	0.001604	28.0796	42.1678	0.001810	23300.8	4.022568	178.001	90.311	1.091096	0.044187	0.043787	88.8103	23300.8	0.041328	0.067506	1315.59	81935.5
416	2.000000	1.093411	7.36913e+06	-56289.1	1005.82	-29739.5	0.000000	0.000000	7.097610	97.6631	NaN	0.000000	0.001791	0.001572	28.0798	44.9126	0.001854	24228.4	5.112774	175.669	93.7022	1.093136	0.046102	0.045827	97.6631	24228.4	0.043079	0.072226	1352.18	82366.4
416	2.000000	1.095436	7.36913e+06	-56289.1	1005.82	-29739.5	0.000000	0.000000	7.099939	105.05	NaN	0.000000	0.001780	0.001596	28.0798	45.4781	0.001803	25228.4	4.567362	176.461	105.295	1.095132	0.048127	0.047823	105.05	25228.4	0.045004	0.077598	1353.78	82744.3
416	2.000000	1.097431	7.36913e+06	-56289.1	1005.82	-29739.5	0.000000	0.000000	7.102337	114.846	NaN	0.000000	0.001738	0.001590	28.0795	47.1015	0.001791	26299	2.113011	178.687	113.563	1.097129	0.050122	0.049820	114.846	26299	0.046846	0.082915	1385.1	83443.8
416	2.000000	1.099468	7.36913e+06	-56289.1	1005.82	-29739.5	0.000000	0.000000	7.104644	121.432	NaN	0.000000	0.001761	0.001615	28.0797	49.8035	0.001854	26866.1	5.237330	175.277	120.684	1.099116	0.052159	0.051807	121.432	26866.1	0.048769	0.088645	1369.86	82442.3
416	2.000000	1.101427	7.36913e+06	-56289.1	1005.82	-29739.5	0.000000	0.000000	7.106969	130.318	NaN	0.000000	0.001745	0.001605	28.0796	51.6355	0.001737	29719.4	7.516278	171.989	130.551	1.101102	0.054118	0.053792	130.318	29719.4	0.050829	0.094994	1371.86	88098.1
416	2.000000	1.103446	7.36914e+06	-56289.1	1005.82	-29739.5	0.000000	0.000000	7.109456	141.682	NaN	0.000000	0.001695	0.001571	28.0797	53.5907	0.001906	28123.7	3.501421	177.357	142.119	1.103104	0.056137	0.055794	141.682	28123.7	0.052359	0.099843	1419.04	81317.9
416	2.000000	1.105388	7.36914e+06	-56289.1	1005.82	-29739.5	0.000000	0.000000	7.111580	146.108	NaN	0.000000	0.001735	0.001551	28.0798	55.0078	0.001841	29875.4	4.769427	174.995	145.283	1.105077	0.058079	0.057768	146.108	29875.4	0.054411	0.106533	1371.48	83626.6
416	2.000000	1.107486	7.36914e+06	-56289.1	1005.82	-29739.5	0.000000	0.000000	7.114136	157.243	NaN	0.000000	0.001759	0.001600	28.0796	56.6615	0.001815	31215.3	6.457538	173.501	158.995	1.107100	0.060177	0.059791	157.243	31215.3	0.056399	0.113212	1388.93	84760.7
416	2.000000	1.109442	7.36914e+06	-56289.1	1005.82	-29739.5	0.000000	0.000000	7.116494	167.016	NaN	0.000000	0.001756	0.001580	28.0801	59.1219	0.001748	33830	7.727574	171.715	166.371	1.109070	0.062133	0.061761	167.016	33830	0.058430	0.120239	1389.03	89136
416	2.000000	1.111381	7.36914e+06	-56289.1	1005.82	-29739.5	0.000000	0.000000	7.118640	172.049	NaN	0.000000	0.001775	0.001594	28.0794	60.6472	0.001790	33882.9	5.101578	172.787	169.074	1.111154	0.064072	0.063844	172.049	33882.9	0.060264	0.126755	1357.33	86950.2
416	2.000000	1.113449	7.36914e+06	-56289.1	1005.82	-29739.5	0.000000	0.000000	7.121126	182.206	NaN	0.000000	0.001772	0.001574	28.0797	62.8068	0.001796	34969.8	9.648890	169.247	180.935	1.113096	0.066140	0.065787	182.206	34969.8	0.062232	0.133935	1360.41	87301.1
416	2.000000	1.115397	7.36914e+06	-56289.1	1005.82	-29739.5	0.000000	0.000000	7.123624	195.575	NaN	0.000000	0.001710	0.001582	28.0797	62.4269	0.001616	38619.5	4.814935	172.982	194.142	1.115042	0.068088	0.067733	195.575	38619.5	0.064290	0.141638	1380.81	93754
416	2.000000	1.117477	7.36914e+06	-56289.1	1005.82	-29739.5	0.000000	0.000000	7.126120	205.689	NaN	0.000000	0.001677	0.001612	28.0797	65.5823	0.001899	34539.7	5.934222	173.115	206.43	1.117111	0.070168	0.069801	205.689	34539.7	0.065702	0.147043	1398.83	82294.2
416	2.000000	1.119449	7.36914e+06	-56289.1	1005.82	-29739.5	0.000000	0.000000	7.128499	215.575	NaN	0.000000	0.001641	0.001624	28.0797	66.3635	0.001827	36319.5	3.122830	175.023	217.171	1.119120	0.072140	0.071811	215.575	36319.5	0.067688	0.154810	1392.52	84336.2
416	2.000000	1.121423	7.36914e+06	-56289.1	1005.82	-29739.5	0.000000	0.000000	7.130955	227.305	NaN	0.000000	0.001681	0.001608	28.0796	68.1631	0.001764	38647	7.310374	170.41	227.226	1.121091	0.074114	0.073782	227.305	38647	0.069703	0.162880	1395.54	87489.4
416	2.000000	1.123428	7.36914e+06	-56289.1	1005.82	-29739.5	0.000000	0.000000	7.132831	224.158	NaN	0.000000	0.001689	0.001575	28.0795	70.0405	0.001676	41792.1	3.379695	172.723	222.478	1.123287	0.076119	0.075978	224.158	41792.1	0.072096	0.172719	1297.82	91874.9
416	2.000000	1.125390	7.36914e+06	-56289.1	1005.82	-29739.5	0.000000	0.000000	7.135803	248.713	NaN	0.000000	0.001665	0.001602	28.0785	70.9903	0.001741	40772.1	5.795289	171.987	247.12	1.125036	0.078081	0.077727	248.713	40772.1	0.073506	0.178640	1392.26	88134.8
416	2.000000	1.127366	7.36914e+06	-56289.1	1005.82	-29739.5	0.000000	0.000000	7.138428	264.489	NaN	0.000000	0.001684	0.001576	28.0784	73.8615	0.001639	45063.2	7.399628	168.537	261.429	1.127027	0.080057	0.079718	264.489	45063.2	0.075655	0.187850	1407.98	94992.6
416	2.000000	1.129423	7.36914e+06	-56289.1	1005.82	-29739.5	0.000000	0.000000	7.140666	268.876	NaN	0.000000	0.001670	0.001652	28.0784	75.7415	0.001783	42483	0.905927	176.39	266.634	1.129197	0.082114	0.081888	268.876	42483	0.077367	0.195341	1376.45	87819.7
416	2.000000	1.131356	7.36914e+06	-56289.1	1005.82	-29739.5	0.000000	0.000000	7.143004	278.726	NaN	0.000000	0.001700	0.001671	28.0784	78.6754	0.001888	41674	5.292751	171.484	276.15	1.131166	0.084046	0.083857	278.726	41674	0.079030	0.202749	1374.73	84558.7
416	2.000000	1.133425	7.36914e+06	-56289.1	1005.82	-29739.5	0.000000	0.000000	7.145642	292.545	NaN	0.000000	0.001679	0.001621	28.0785	81.0171	0.001840	44035.6	4.747636	171.481	292.738	1.133122	0.086116	0.085812	292.545	44035.6	0.081134	0.212303	1377.96	87316.9
416	2.000000	1.135357	7.36914e+06	-56289.1	1005.82	-29739.5	0.000000	0.000000	7.148424	313.225	NaN	0.000000	0.001688	0.001615	28.0783	80.8272	0.001831	44134.1	0.810651	175.881	310.638	1.135035	0.088047	0.087725	313.225	44134.1	0.082724	0.219666	1425.91	86033.2
416	2.000000	1.137434	7.36914e+06	-56289.1	1005.82	-29739.5	0.000000	0.000000	7.150939	323.868	NaN	0.000000	0.001650	0.001613	28.0785	84.0304	0.001767	47565.7	4.297117	171.507	325.597	1.137047	0.090125	0.089738	323.868	47565.7	0.085018	0.230489	1405.13	90519.4
416	2.000000	1.139306	7.36914e+06	-56289.1	1005.82	-29739.5	0.000000	0.000000	7.153099	330.859	NaN	0.000000	0.001662	0.001607	28.0783	87.0281	0.001859	46816.2	8.172198	167.13	325.428	1.139100	0.091997	0.091791	330.859	46816.2	0.086696	0.238561	1386.9	87573
416	2.000000	1.141318	7.36914e+06	-56289.1	1005.82	-29739.5	0.000000	0.000000	7.155947	351.196	NaN	0.000000	0.001709	0.001638	28.0785	86.8511	0.001700	51088.4	5.159187	169.927	345.714	1.140996	0.094009	0.093687	351.196	51088.4	0.088853	0.249125	1409.72	93516.2
416	2.000000	1.143363	7.36914e+06	-56289.1	1005.82	-29739.5	0.000000	0.000000	7.158364	360.225	NaN	0.000000	0.001701	0.001661	28.0784	90.1313	0.001675	53817.6	4.679368	170.178	356.996	1.143080	0.096054	0.095771	360.225	53817.6	0.091034	0.260023	1385.36	96425.4
416	2.000000	1.145235	7.36914e+06	-56289.1	1005.82	-29739.5	0.000000	0.000000	7.160985	378.437	NaN	0.000000	0.001652	0.001620	28.0782	89.6484	0.001661	53988.1	2.884073	172.486	369.919	1.145008	0.097925	0.097699	378.437	53988.1	0.092668	0.268334	1410.32	95221.1
416	2.000000	1.147232	7.36914e+06	-56289.1	1005.82	-29739.5	0.000000	0.000000	7.163426	389.218	NaN	0.000000	0.001675	0.001616	28.0784	92.9935	0.001614	57626.3	1.814303	173.017	381.164	1.146929	0.099923	0.099619	389.218	57626.3	0.094857	0.279658	1391.77	99558.9
416	2.000000	1.149521	7.36914e+06	-56289.1	1005.82	-29739.5	0.000000	0.000000	7.166343	404.483	NaN	0.000000	0.001688	0.001638	28.0783	96.7478	0.001734	55792.4	6.860817	168.583	407.032	1.148996	0.102212	0.101686	404.483	55792.4	0.096775	0.289755	1395.94	94696.2
416	2.000000	1.151411	7.36914e+06	-56289.1	1005.82	-29739.5	0.000000	0.000000	7.168866	419.865	NaN	0.000000	0.001669	0.001630	28.0785	98.2062	0.001780	55175.5	3.517024	171.368	421.059	1.151159	0.104102	0.103849	419.865	55175.5	0.098395	0.298418	1406.97	92279.8
416	2.000000	1.153387	7.36914e+06	-56289.1	1005.82	-29739.5	0.000000	0.000000	7.171349	432.196	NaN	0.000000	0.001706	0.001615	28.0784	99.3163	0.001750	56760.7	1.659849	173.166	431.007	1.153105	0.106078	0.105795	432.196	56760.7	0.100367	0.309124	1398.13	93272.7
416	2.000000	1.155288	7.36914e+06	-56289.1	1005.82	-29739.5	0.000000	0.000000	7.174312	458.012	NaN	0.000000	0.001696	0.001602	28.0782	100.909	0.001739	58038.5	10.6479	164.203	453.075	1.154972	0.107979	0.107663	458.012	58038.5	0.102060	0.318459	1438.22	93964.3