File: remote_trans/data/nanoindenter/0828-1/data/Data_2025-08-06,11h17m57s/2025-07-22_16-23-58_1_460.txt
2025-07-22, 16:23:58, 1
Index	Phase	Displacement	Time	Pos X	Pos Y	Pos Z	Rot A	Rot B	Piezo Z	Force A	Force B	Gripper	Voltage A	Voltage B	Temperature	Amplitude force	Amplitude pos	Stiffness	Phase shift	Phase excitation	Force A raw	Displacement raw	HMax	HMax raw	Real Force	Real Stiffness	Contact Depth	Area	Hardness	Reduced Mod.
[#]	[#]	[um]	[s]	[um]	[um]	[um]	[m°]	[m°]	[um]	[uN]	[uN]	[V]	[V]	[V]	[°C]	[uN]	[um]	[N/m]	[°]	[°]	[uN]	[um]	[um]	[um]	[uN]	[N/m]	[um]	[um^2]	[MPa]	[MPa]
460	1.000000	0.002149	7.36956e+06	-54089.1	1005.82	-29744.5	0.000000	0.000000	6.002800	0.040515	NaN	0.000000	0.001571	0.001802	28.0812	0.105445	0.000850	124.11	-2.487427	-164.964	0.030486	0.000922	-1.124173	-1.125400	0.040515	124.11	-1.124418	-1.065974E+15	-3.800729E-17	NaN
460	1.000000	0.012209	7.36956e+06	-54089.1	1005.82	-29744.5	0.000000	0.000000	6.012860	0.040216	NaN	0.000000	0.001593	0.001794	28.0808	0.086100	0.001302	66.1076	102.207	22.0173	-0.050055	0.010748	-1.114114	-1.115574	0.040216	66.1076	-1.114570	-7.863466E+14	-5.114281E-17	NaN
460	1.000000	0.022098	7.36956e+06	-54089.1	1005.82	-29744.5	0.000000	0.000000	6.022746	-0.026712	NaN	0.000000	0.001592	0.001820	28.0809	0.046387	0.001763	26.3177	151.081	-164.583	0.025407	0.020781	-1.104225	-1.105542	-0.026712	26.3177	-1.103464	-5.579040E+14	4.787993E-17	NaN
460	1.000000	0.032063	7.36956e+06	-54089.1	1005.82	-29744.5	0.000000	0.000000	6.032713	0.005879	NaN	0.000000	0.001613	0.001788	28.081	0.072705	0.001843	39.4429	-153.277	16.6138	-0.014237	0.030739	-1.094259	-1.095583	0.005879	39.4429	-1.094371	-4.212099E+14	-1.395731E-17	NaN
460	1.000000	0.042109	7.36956e+06	-54089.1	1005.82	-29744.5	0.000000	0.000000	6.042759	0.011887	NaN	0.000000	0.001573	0.001802	28.0812	0.100922	0.001896	53.2323	-137.227	-167.247	0.002120	0.040790	-1.084214	-1.085533	0.011887	53.2323	-1.084381	-3.092842E+14	-3.843277E-17	NaN
460	1.000000	0.052134	7.36956e+06	-54089.1	1005.82	-29744.5	0.000000	0.000000	6.052781	-0.050242	NaN	0.000000	0.001595	0.001741	28.0822	0.022591	0.001793	12.599	-1.852029	14.1253	-0.037744	0.050726	-1.074188	-1.075596	-0.050242	12.599	-1.071198	-2.057215E+14	2.442217E-16	NaN
460	1.000000	0.062107	7.36956e+06	-54089.1	1005.82	-29744.5	0.000000	0.000000	6.062755	-0.014147	NaN	0.000000	0.001626	0.001774	28.0821	0.151794	0.001942	78.1636	-4.532587	-166.573	-0.083038	0.060769	-1.064216	-1.065553	-0.014147	78.1636	-1.064080	-1.650632E+14	8.570478E-17	NaN
460	1.000000	0.072139	7.36956e+06	-54089.1	1005.82	-29744.5	0.000000	0.000000	6.072789	0.024836	NaN	0.000000	0.001628	0.001752	28.0822	0.019011	0.001938	9.810422	53.4407	13.0548	-0.004287	0.070757	-1.054184	-1.055565	0.024836	9.810422	-1.056083	-1.288762E+14	-1.927160E-16	NaN
460	1.000000	0.082115	7.36956e+06	-54089.1	1005.82	-29744.5	0.000000	0.000000	6.082768	0.070685	NaN	0.000000	0.001611	0.001762	28.0822	0.099172	0.002056	48.2269	-26.2152	-164.281	0.015233	0.080791	-1.044207	-1.045531	0.070685	48.2269	-1.045306	-9.232385E+13	-7.656232E-16	NaN
460	1.000000	0.092101	7.36956e+06	-54089.1	1005.82	-29744.5	0.000000	0.000000	6.092753	0.063414	NaN	0.000000	0.001604	0.001756	28.0826	0.032262	0.002033	15.8658	178.868	12.5036	0.010163	0.090749	-1.034221	-1.035573	0.063414	15.8658	-1.037219	-7.187387E+13	-8.822980E-16	NaN
460	1.000000	0.102070	7.36956e+06	-54089.1	1005.82	-29744.5	0.000000	0.000000	6.102719	0.008275	NaN	0.000000	0.001612	0.001799	28.0825	0.050298	0.002064	24.3732	-155.32	-163.522	0.008707	0.100800	-1.024253	-1.025522	0.008275	24.3732	-1.024507	-4.848369E+13	-1.706753E-16	NaN
460	1.000000	0.112104	7.36956e+06	-54089.1	1005.82	-29744.5	0.000000	0.000000	6.112753	-0.008230	NaN	0.000000	0.001620	0.001760	28.0828	0.064928	0.002028	32.0095	125.614	13.8774	0.000841	0.110749	-1.014218	-1.015573	-0.008230	32.0095	-1.014025	-3.503929E+13	2.348851E-16	NaN
460	1.000000	0.122130	7.36956e+06	-54089.1	1005.82	-29744.5	0.000000	0.000000	6.122778	-0.026376	NaN	0.000000	0.001638	0.001794	28.0823	0.004887	0.001996	2.449054	166.872	-166.603	-0.036376	0.120823	-1.004192	-1.005500	-0.026376	2.449054	-0.996115	-2.011221E+13	1.311428E-15	NaN
460	1.000000	0.132135	7.36956e+06	-54089.1	1005.82	-29744.5	0.000000	0.000000	6.132783	-0.027669	NaN	0.000000	0.001607	0.001820	28.0826	0.011505	0.002128	5.406704	-179.646	16.9187	0.015484	0.130781	-0.994187	-0.995541	-0.027669	5.406704	-0.990349	-1.681939E+13	1.645087E-15	NaN
460	1.000000	0.142133	7.36956e+06	-54089.1	1005.82	-29744.5	0.000000	0.000000	6.142783	0.013662	NaN	0.000000	0.001598	0.001804	28.0822	0.065476	0.001881	34.8096	124.238	-169.511	-0.016067	0.140853	-0.984190	-0.985469	0.013662	34.8096	-0.984484	-1.402216E+13	-9.742977E-16	NaN
460	1.000000	0.152141	7.36956e+06	-54089.1	1005.82	-29744.5	0.000000	0.000000	6.152787	-0.069077	NaN	0.000000	0.001625	0.001802	28.0827	0.044591	0.001905	23.4055	153.496	12.8358	0.018153	0.150768	-0.974182	-0.975554	-0.069077	23.4055	-0.971968	-9.510147E+12	7.263508E-15	NaN
460	1.000000	0.162161	7.36956e+06	-54089.1	1005.82	-29744.5	0.000000	0.000000	6.162811	0.014174	NaN	0.000000	0.001617	0.001784	28.0824	0.042719	0.002148	19.885	-135.872	-163.305	-0.016870	0.160819	-0.964161	-0.965503	0.014174	19.885	-0.964696	-7.588800E+12	-1.867801E-15	NaN
460	1.000000	0.172173	7.36956e+06	-54089.1	1005.82	-29744.5	0.000000	0.000000	6.172819	-0.074788	NaN	0.000000	0.001574	0.001712	28.0827	0.079977	0.002193	36.467	157.3	13.4788	-0.091038	0.170730	-0.954149	-0.955592	-0.074788	36.467	-0.952611	-5.214839E+12	1.434141E-14	NaN
460	1.000000	0.182134	7.36956e+06	-54089.1	1005.82	-29744.5	0.000000	0.000000	6.182783	-0.018092	NaN	0.000000	0.001613	0.001732	28.0826	0.109647	0.001915	57.2581	-87.0893	-167.08	-0.035072	0.180844	-0.944188	-0.945479	-0.018092	57.2581	-0.943951	-3.985095E+12	4.539866E-15	NaN
460	1.000000	0.192137	7.36956e+06	-54089.1	1005.82	-29744.5	0.000000	0.000000	6.192784	-0.073028	NaN	0.000000	0.001625	0.001705	28.0813	0.053045	0.002084	25.4515	119.495	10.6785	0.019033	0.190840	-0.934185	-0.935482	-0.073028	25.4515	-0.932033	-2.751923E+12	2.653712E-14	NaN
460	1.000000	0.202148	7.36956e+06	-54089.1	1005.82	-29744.5	0.000000	0.000000	6.202799	0.044775	NaN	0.000000	0.001668	0.001759	28.0814	0.033181	0.002000	16.5873	118.892	-166.807	0.009484	0.200873	-0.924175	-0.925450	0.044775	16.5873	-0.926199	-2.295606E+12	-1.950449E-14	NaN
460	1.000000	0.212160	7.36956e+06	-54089.1	1005.82	-29744.5	0.000000	0.000000	6.212809	0.003100	NaN	0.000000	0.001662	0.001731	28.0813	0.114067	0.002025	56.3249	-119.225	15.5512	-0.051330	0.210783	-0.914163	-0.915539	0.003100	56.3249	-0.914204	-1.581027E+12	-1.960871E-15	NaN
460	1.000000	0.222157	7.36956e+06	-54089.1	1005.82	-29744.5	0.000000	0.000000	6.222806	-0.016643	NaN	0.000000	0.001636	0.001705	28.0814	0.035512	0.002123	16.7307	-161.253	-167.042	0.041169	0.220897	-0.904165	-0.905425	-0.016643	16.7307	-0.903419	-1.130490E+12	1.472190E-14	NaN
460	1.000000	0.232157	7.36956e+06	-54089.1	1005.82	-29744.5	0.000000	0.000000	6.232801	-0.126001	NaN	0.000000	0.001635	0.001748	28.0811	0.085213	0.002062	41.3227	95.211	18.0027	-0.152563	0.230844	-0.894166	-0.895478	-0.126001	41.3227	-0.891879	-7.894257E+11	1.596115E-13	NaN
460	1.000000	0.242167	7.36956e+06	-54089.1	1005.82	-29744.5	0.000000	0.000000	6.242815	-0.047301	NaN	0.000000	0.001645	0.001703	28.0811	0.077463	0.002101	36.8633	127.355	-166.5	-0.040732	0.240936	-0.884155	-0.885387	-0.047301	36.8633	-0.883193	-6.023953E+11	7.852234E-14	NaN
460	1.000000	0.252180	7.36956e+06	-54089.1	1005.82	-29744.5	0.000000	0.000000	6.252829	-0.008753	NaN	0.000000	0.001620	0.001734	28.081	0.119378	0.002086	57.2292	173.427	13.671	-0.019248	0.250862	-0.874143	-0.875460	-0.008753	57.2292	-0.874028	-4.528286E+11	1.932858E-14	NaN
460	1.000000	0.262184	7.36956e+06	-54089.1	1005.82	-29744.5	0.000000	0.000000	6.262832	-0.018731	NaN	0.000000	0.001619	0.001675	28.0811	0.064046	0.001989	32.1937	42.2691	-165.924	0.058721	0.260852	-0.864139	-0.865471	-0.018731	32.1937	-0.863702	-3.282683E+11	5.706080E-14	NaN
460	1.000000	0.272213	7.36956e+06	-54089.1	1005.82	-29744.5	0.000000	0.000000	6.272861	-0.033677	NaN	0.000000	0.001628	0.001745	28.0811	0.035143	0.001932	18.1931	-37.6467	15.307	-0.036191	0.270776	-0.854109	-0.855546	-0.033677	18.1931	-0.852721	-2.331209E+11	1.444633E-13	NaN
460	1.000000	0.282176	7.36956e+06	-54089.1	1005.82	-29744.5	0.000000	0.000000	6.282823	-0.044659	NaN	0.000000	0.001642	0.001684	28.0809	0.071206	0.002012	35.3942	-136.952	-163.759	-0.087388	0.280953	-0.844147	-0.845369	-0.044659	35.3942	-0.843200	-1.732389E+11	2.577880E-13	NaN
460	1.000000	0.292201	7.36956e+06	-54089.1	1005.82	-29744.5	0.000000	0.000000	6.292850	0.011223	NaN	0.000000	0.001664	0.001707	28.0812	0.025449	0.001970	12.9164	72.5556	14.33	0.014203	0.290811	-0.834122	-0.835511	0.011223	12.9164	-0.834773	-1.331913E+11	-8.425969E-14	NaN
460	1.000000	0.302208	7.36956e+06	-54089.1	1005.82	-29744.5	0.000000	0.000000	6.302854	-0.075810	NaN	0.000000	0.001615	0.001730	28.0809	0.057553	0.001884	30.5414	4.884441	-163.77	-0.093145	0.300883	-0.824115	-0.825439	-0.075810	30.5414	-0.822253	-9.010784E+10	8.413281E-13	NaN
460	1.000000	0.312220	7.36956e+06	-54089.1	1005.82	-29744.5	0.000000	0.000000	6.312867	-0.059839	NaN	0.000000	0.001586	0.001721	28.081	0.031052	0.002042	15.2077	38.7674	14.4588	-0.041356	0.310779	-0.814102	-0.815543	-0.059839	15.2077	-0.811151	-6.370692E+10	9.392875E-13	NaN
460	1.000000	0.322211	7.36956e+06	-54089.1	1005.82	-29744.5	0.000000	0.000000	6.322861	0.021386	NaN	0.000000	0.001625	0.001727	28.0812	0.073176	0.001968	37.1917	-80.9735	-164.594	-0.065561	0.320865	-0.804111	-0.805457	0.021386	37.1917	-0.804543	-5.182252E+10	-4.126785E-13	NaN
460	1.000000	0.332199	7.36956e+06	-54089.1	1005.82	-29744.5	0.000000	0.000000	6.332847	-0.045319	NaN	0.000000	0.001583	0.001758	28.0823	0.013160	0.002029	6.485579	101.094	12.2261	-0.071127	0.330843	-0.794123	-0.795480	-0.045319	6.485579	-0.788882	-3.176164E+10	1.426842E-12	NaN
460	1.000000	0.342230	7.36956e+06	-54089.1	1005.82	-29744.5	0.000000	0.000000	6.342880	0.020139	NaN	0.000000	0.001550	0.001709	28.0822	0.079966	0.001916	41.7444	-174.496	-165.26	-0.003683	0.340931	-0.784093	-0.785392	0.020139	41.7444	-0.784455	-2.765395E+10	-7.282449E-13	NaN
460	1.000000	0.352229	7.36956e+06	-54089.1	1005.82	-29744.5	0.000000	0.000000	6.352874	-0.090484	NaN	0.000000	0.001527	0.001723	28.0823	0.038811	0.002006	19.3453	-148.293	12.978	-0.109968	0.350854	-0.774094	-0.775469	-0.090484	19.3453	-0.770586	-1.791723E+10	5.050110E-12	NaN
460	1.000000	0.362215	7.36956e+06	-54089.1	1005.82	-29744.5	0.000000	0.000000	6.362863	-0.036503	NaN	0.000000	0.001513	0.001741	28.0826	0.062760	0.001896	33.0965	-124.41	-166.241	-0.035436	0.360864	-0.764107	-0.765459	-0.036503	33.0965	-0.763280	-1.425335E+10	2.561004E-12	NaN
460	1.000000	0.372252	7.36956e+06	-54089.1	1005.82	-29744.5	0.000000	0.000000	6.372900	-0.012598	NaN	0.000000	0.001540	0.001712	28.0821	0.060070	0.002055	29.2297	-100.311	17.0836	0.054619	0.370891	-0.754071	-0.755432	-0.012598	29.2297	-0.753747	-1.057367E+10	1.191437E-12	NaN
460	1.000000	0.382292	7.36956e+06	-54089.1	1005.82	-29744.5	0.000000	0.000000	6.382941	-0.001072	NaN	0.000000	0.001526	0.001716	28.0822	0.014762	0.002164	6.822948	-175.691	-162.177	0.007393	0.380907	-0.744031	-0.745416	-0.001072	6.822948	-0.743913	-7.768606E+9	1.380185E-13	NaN
460	1.000000	0.392236	7.36956e+06	-54089.1	1005.82	-29744.5	0.000000	0.000000	6.392886	0.003931	NaN	0.000000	0.001515	0.001701	28.0822	0.026746	0.001978	13.5198	177.728	17.2872	0.004729	0.390932	-0.734086	-0.735390	0.003931	13.5198	-0.734304	-5.747298E+9	-6.838922E-13	NaN
460	1.000000	0.402270	7.36956e+06	-54089.1	1005.82	-29744.5	0.000000	0.000000	6.402916	-0.082657	NaN	0.000000	0.001507	0.001712	28.0825	0.038663	0.001917	20.1637	35.2155	-163.732	-0.086073	0.400961	-0.724053	-0.725362	-0.082657	20.1637	-0.720978	-3.782798E+9	2.185073E-11	NaN
460	1.000000	0.412246	7.36956e+06	-54089.1	1005.82	-29744.5	0.000000	0.000000	6.412892	-0.085616	NaN	0.000000	0.001548	0.001673	28.0822	0.054568	0.001965	27.7733	-89.8785	12.3863	-0.115560	0.410924	-0.714076	-0.715399	-0.085616	27.7733	-0.711764	-2.832210E+9	3.022942E-11	NaN
460	1.000000	0.422248	7.36956e+06	-54089.1	1005.82	-29744.5	0.000000	0.000000	6.422894	-0.087064	NaN	0.000000	0.001527	0.001699	28.0822	0.034419	0.001931	17.8227	-162.616	-166.713	-0.109319	0.420937	-0.704075	-0.705386	-0.087064	17.8227	-0.700411	-1.982175E+9	4.392341E-11	NaN
460	1.000000	0.432230	7.36956e+06	-54089.1	1005.82	-29744.5	0.000000	0.000000	6.432877	-0.057073	NaN	0.000000	0.001551	0.001681	28.0824	0.095088	0.002061	46.1273	-157.235	12.7306	-0.068878	0.430888	-0.694092	-0.695435	-0.057073	46.1273	-0.693164	-1.578168E+9	3.616393E-11	NaN
460	1.000000	0.442265	7.36956e+06	-54089.1	1005.82	-29744.5	0.000000	0.000000	6.442916	0.037717	NaN	0.000000	0.001516	0.001714	28.0824	0.043372	0.001995	21.7451	41.0207	-165.605	0.002661	0.440942	-0.684057	-0.685381	0.037717	21.7451	-0.685358	-1.234445E+9	-3.055368E-11	NaN
460	1.000000	0.452265	7.36956e+06	-54089.1	1005.82	-29744.5	0.000000	0.000000	6.452916	0.042885	NaN	0.000000	0.001570	0.001698	28.0824	0.037167	0.002069	17.9671	136.332	15.9629	0.016389	0.450910	-0.674058	-0.675413	0.042885	17.9671	-0.675848	-9.149794E+8	-4.686954E-11	NaN
460	1.000000	0.462251	7.36956e+06	-54089.1	1005.82	-29744.5	0.000000	0.000000	6.462898	-0.054445	NaN	0.000000	0.001573	0.001703	28.0812	0.153748	0.002013	76.376	-127.971	-164.391	-0.096592	0.460932	-0.664071	-0.665391	-0.054445	76.376	-0.663537	-6.207373E+8	8.771061E-11	NaN
460	1.000000	0.472269	7.36956e+06	-54089.1	1005.82	-29744.5	0.000000	0.000000	6.472918	0.009072	NaN	0.000000	0.001564	0.001710	28.0813	0.066320	0.001953	33.963	-31.2023	15.0555	-0.015007	0.470905	-0.654054	-0.655418	0.009072	33.963	-0.654254	-4.631727E+8	-1.958599E-11	NaN
460	1.000000	0.482293	7.36956e+06	-54089.1	1005.82	-29744.5	0.000000	0.000000	6.482941	-0.040940	NaN	0.000000	0.001553	0.001680	28.081	0.089254	0.001930	46.2432	40.9293	-162.267	0.007553	0.480954	-0.644029	-0.645368	-0.040940	46.2432	-0.643365	-3.284416E+8	1.246488E-10	NaN
460	1.000000	0.492300	7.36956e+06	-54089.1	1005.82	-29744.5	0.000000	0.000000	6.492946	-0.076277	NaN	0.000000	0.001541	0.001689	28.0811	0.044224	0.002024	21.849	141.475	13.4577	0.031442	0.490907	-0.634022	-0.635415	-0.076277	21.849	-0.631404	-2.250618E+8	3.389153E-10	NaN
460	1.000000	0.502285	7.36956e+06	-54089.1	1005.82	-29744.5	0.000000	0.000000	6.502932	-0.066020	NaN	0.000000	0.001520	0.001700	28.0812	0.114276	0.002007	56.9262	156.807	-166.538	-0.065768	0.500976	-0.624037	-0.625347	-0.066020	56.9262	-0.623167	-1.734448E+8	3.806389E-10	NaN
460	1.000000	0.512314	7.36956e+06	-54089.1	1005.82	-29744.5	0.000000	0.000000	6.512961	-0.060025	NaN	0.000000	0.001554	0.001676	28.0813	0.071948	0.001984	36.2593	-71.1146	17.547	0.009309	0.510944	-0.614008	-0.615379	-0.060025	36.2593	-0.612767	-1.247886E+8	4.810097E-10	NaN
460	1.000000	0.522303	7.36956e+06	-54089.1	1005.82	-29744.5	0.000000	0.000000	6.522952	-0.018049	NaN	0.000000	0.001573	0.001753	28.081	0.046503	0.002042	22.7734	-46.3924	-164.997	-0.048337	0.520991	-0.604019	-0.605332	-0.018049	22.7734	-0.603425	-9.281578E+7	1.944639E-10	NaN
460	1.000000	0.532287	7.36956e+06	-54089.1	1005.82	-29744.5	0.000000	0.000000	6.532936	-0.009576	NaN	0.000000	0.001555	0.001721	28.0812	0.068636	0.001907	35.9978	118.709	16.4795	-0.100993	0.530974	-0.594035	-0.595349	-0.009576	35.9978	-0.593836	-6.847568E+7	1.398523E-10	NaN
460	1.000000	0.542311	7.36956e+06	-54089.1	1005.82	-29744.5	0.000000	0.000000	6.542960	-0.012270	NaN	0.000000	0.001592	0.001713	28.0824	0.048551	0.002002	24.2501	-70.8013	-166.632	-0.103706	0.541006	-0.584011	-0.585316	-0.012270	24.2501	-0.583632	-4.952701E+7	2.477518E-10	NaN
460	1.000000	0.552329	7.36956e+06	-54089.1	1005.82	-29744.5	0.000000	0.000000	6.552977	-0.032160	NaN	0.000000	0.001596	0.001723	28.0811	0.085228	0.002021	42.1712	-7.276266	10.492	0.007789	0.550962	-0.573993	-0.575360	-0.032160	42.1712	-0.573421	-3.580119E+7	8.982822E-10	NaN
460	1.000000	0.562284	7.36956e+06	-54089.1	1005.82	-29744.5	0.000000	0.000000	6.562930	-0.089695	NaN	0.000000	0.001607	0.001733	28.0813	0.110962	0.002032	54.6013	-139.729	-167.475	-0.066032	0.560999	-0.564038	-0.565323	-0.089695	54.6013	-0.562806	-2.553820E+7	3.512184E-9	NaN
460	1.000000	0.572294	7.36956e+06	-54089.1	1005.82	-29744.5	0.000000	0.000000	6.572941	-0.058747	NaN	0.000000	0.001598	0.001703	28.0811	0.065541	0.001935	33.8647	179.866	16.3645	-0.042783	0.570914	-0.554028	-0.555409	-0.058747	33.8647	-0.552727	-1.852346E+7	3.171497E-9	NaN
460	1.000000	0.582340	7.36956e+06	-54089.1	1005.82	-29744.5	0.000000	0.000000	6.582990	0.006804	NaN	0.000000	0.001692	0.001698	28.0812	0.075003	0.001958	38.3102	62.6548	-166.926	0.042230	0.581029	-0.543982	-0.545294	0.006804	38.3102	-0.544116	-1.407412E+7	-4.834383E-10	NaN
460	1.000000	0.592320	7.36956e+06	-54089.1	1005.82	-29744.5	0.000000	0.000000	6.592971	0.030863	NaN	0.000000	0.001664	0.001678	28.081	0.108489	0.002057	52.7514	96.8722	15.7065	-0.001391	0.590944	-0.534002	-0.535379	0.030863	52.7514	-0.534441	-1.033313E+7	-2.986815E-9	NaN
460	1.000000	0.602320	7.36956e+06	-54089.1	1005.82	-29744.5	0.000000	0.000000	6.602971	0.024564	NaN	0.000000	0.001682	0.001732	28.0822	0.089572	0.001920	46.6549	101.416	-165.323	0.050269	0.601053	-0.524002	-0.525270	0.024564	46.6549	-0.524397	-7.49428e+06	-3.277661E-9	NaN
460	1.000000	0.612346	7.36956e+06	-54089.1	1005.82	-29744.5	0.000000	0.000000	6.612996	0.004193	NaN	0.000000	0.001646	0.001681	28.0824	0.031669	0.001950	16.243	-175.007	11.4024	-0.033097	0.611006	-0.513976	-0.515317	0.004193	16.243	-0.514170	-5.40101e+06	-7.762677E-10	NaN
460	1.000000	0.622329	7.36956e+06	-54089.1	1005.82	-29744.5	0.000000	0.000000	6.622977	-0.036388	NaN	0.000000	0.001659	0.001715	28.0825	0.093646	0.001986	47.1499	60.0734	-167.569	-0.022562	0.621008	-0.503993	-0.505314	-0.036388	47.1499	-0.503414	-3.82507e+06	9.513095E-9	NaN
460	1.000000	0.632378	7.36956e+06	-54089.1	1005.82	-29744.5	0.000000	0.000000	6.633028	0.032121	NaN	0.000000	0.001672	0.001693	28.0824	0.080812	0.002015	40.0959	-54.6789	14.1713	-0.006106	0.630999	-0.493945	-0.495323	0.032121	40.0959	-0.494545	-2.87665e+06	-1.116610E-8	NaN
460	1.000000	0.642360	7.36956e+06	-54089.1	1005.82	-29744.5	0.000000	0.000000	6.643008	-0.027682	NaN	0.000000	0.001626	0.001706	28.0825	0.044860	0.002102	21.3447	3.747403	-165.548	-0.057677	0.641031	-0.483963	-0.485291	-0.027682	21.3447	-0.482990	-1.98323e+06	1.395798E-8	NaN
460	1.000000	0.652368	7.36956e+06	-54089.1	1005.82	-29744.5	0.000000	0.000000	6.653014	-0.079669	NaN	0.000000	0.001599	0.001703	28.0828	0.132742	0.001955	67.9126	-47.855	14.6588	-0.077582	0.650967	-0.473954	-0.475355	-0.079669	67.9126	-0.473074	-1.44049e+06	5.530687E-8	NaN
460	1.000000	0.662392	7.36956e+06	-54089.1	1005.82	-29744.5	0.000000	0.000000	6.663041	-0.018300	NaN	0.000000	0.001648	0.001681	28.0824	0.020825	0.002029	10.2612	-112.258	-167.084	0.003352	0.661083	-0.463930	-0.465240	-0.018300	10.2612	-0.462593	-1.0267e+06	1.782413E-8	NaN
460	1.000000	0.672356	7.36956e+06	-54089.1	1005.82	-29744.5	0.000000	0.000000	6.673003	-0.055094	NaN	0.000000	0.001664	0.001685	28.0825	0.052457	0.002095	25.0375	-122.14	10.0852	-0.092405	0.670950	-0.453966	-0.455372	-0.055094	25.0375	-0.452316	-736115	7.484367E-8	NaN
460	1.000000	0.682360	7.36956e+06	-54089.1	1005.82	-29744.5	0.000000	0.000000	6.683005	-0.104894	NaN	0.000000	0.001576	0.001689	28.0825	0.037733	0.002049	18.4182	95.1548	-165.029	-0.080130	0.681024	-0.443962	-0.445299	-0.104894	18.4182	-0.439691	-488650	2.146615E-7	NaN
460	1.000000	0.692350	7.36956e+06	-54089.1	1005.82	-29744.5	0.000000	0.000000	6.692998	-0.013711	NaN	0.000000	0.001586	0.001706	28.0826	0.037213	0.002041	18.2294	-175.356	18.5437	-0.036963	0.691010	-0.433973	-0.435312	-0.013711	18.2294	-0.433409	-398350	3.441883E-8	NaN
460	1.000000	0.702367	7.36956e+06	-54089.1	1005.82	-29744.5	0.000000	0.000000	6.703015	-0.034520	NaN	0.000000	0.001581	0.001712	28.0825	0.095743	0.001967	48.6729	-43.1735	-163.883	-0.053205	0.701045	-0.423955	-0.425277	-0.034520	48.6729	-0.423423	-287703	1.199841E-7	NaN
460	1.000000	0.712356	7.36956e+06	-54089.1	1005.82	-29744.5	0.000000	0.000000	6.713005	-0.000383	NaN	0.000000	0.001571	0.001693	28.0827	0.196816	0.001985	99.1492	-162.586	13.9	-0.007089	0.711024	-0.413967	-0.415299	-0.000383	99.1492	-0.413964	-211221	1.815536E-9	NaN
460	1.000000	0.722399	7.36956e+06	-54089.1	1005.82	-29744.5	0.000000	0.000000	6.723044	-0.114595	NaN	0.000000	0.001566	0.001714	28.0828	0.037004	0.002046	18.0859	-19.7746	-167.714	-0.039596	0.721015	-0.403923	-0.405307	-0.114595	18.0859	-0.399171	-130067	8.810482E-7	NaN
460	1.000000	0.732383	7.36956e+06	-54089.1	1005.82	-29744.5	0.000000	0.000000	6.733032	-0.016849	NaN	0.000000	0.001525	0.001704	28.0824	0.097601	0.002003	48.7253	78.5903	15.4149	-0.029782	0.731079	-0.393939	-0.395244	-0.016849	48.7253	-0.393680	-108587	1.551679E-7	NaN
460	1.000000	0.742388	7.36956e+06	-54089.1	1005.82	-29744.5	0.000000	0.000000	6.743034	-0.065132	NaN	0.000000	0.001555	0.001695	28.0813	0.060828	0.001923	31.6385	177.714	-165.327	-0.031974	0.741071	-0.383935	-0.385251	-0.065132	31.6385	-0.382391	-74848.5	8.701884E-7	NaN
460	1.000000	0.752397	7.36956e+06	-54089.1	1005.82	-29744.5	0.000000	0.000000	6.753044	-0.066619	NaN	0.000000	0.001564	0.001703	28.0814	0.089684	0.001973	45.4558	24.3867	14.7494	-0.068087	0.751057	-0.373925	-0.375266	-0.066619	45.4558	-0.372826	-54551.8	1.221203E-6	NaN
460	1.000000	0.762389	7.36956e+06	-54089.1	1005.82	-29744.5	0.000000	0.000000	6.763040	0.023373	NaN	0.000000	0.001566	0.001723	28.0816	0.115706	0.002019	57.3022	81.2688	-166.76	-0.074296	0.761127	-0.363933	-0.365195	0.023373	57.3022	-0.364239	-41027.3	-5.696860E-7	NaN
460	1.000000	0.772406	7.36956e+06	-54089.1	1005.82	-29744.5	0.000000	0.000000	6.773053	-0.060678	NaN	0.000000	0.001589	0.001706	28.0815	0.073746	0.001976	37.3163	35.0652	15.4434	-0.038408	0.771013	-0.353916	-0.355310	-0.060678	37.3163	-0.352697	-27933	2.172269E-6	NaN
460	1.000000	0.782390	7.36956e+06	-54089.1	1005.82	-29744.5	0.000000	0.000000	6.783038	-0.036663	NaN	0.000000	0.001580	0.001686	28.0812	0.044888	0.001915	23.4372	19.4085	-162.173	0.016359	0.781140	-0.343932	-0.345182	-0.036663	23.4372	-0.342759	-20033.1	1.830122E-6	NaN
460	1.000000	0.792421	7.36956e+06	-54089.1	1005.82	-29744.5	0.000000	0.000000	6.793067	-0.065003	NaN	0.000000	0.001570	0.001677	28.0813	0.123007	0.001927	63.8334	-136.943	12.365	-0.127507	0.791084	-0.333902	-0.335238	-0.065003	63.8334	-0.333138	-14500.1	4.482921E-6	NaN
460	1.000000	0.802435	7.36956e+06	-54089.1	1005.82	-29744.5	0.000000	0.000000	6.803082	-0.046744	NaN	0.000000	0.001554	0.001689	28.0814	0.103466	0.002054	50.3631	129.192	-163.854	-0.009345	0.801074	-0.323888	-0.325249	-0.046744	50.3631	-0.323191	-10365.1	4.509794E-6	NaN
460	1.000000	0.812420	7.36956e+06	-54089.1	1005.82	-29744.5	0.000000	0.000000	6.813065	-0.113093	NaN	0.000000	0.001603	0.001688	28.0812	0.045114	0.002102	21.4641	29.0457	12.3392	-0.142146	0.811051	-0.313902	-0.315272	-0.113093	21.4641	-0.309950	-6611.8	1.710480E-5	NaN
460	1.000000	0.822413	7.36956e+06	-54089.1	1005.82	-29744.5	0.000000	0.000000	6.823056	-0.127830	NaN	0.000000	0.001631	0.001728	28.0815	0.076680	0.001833	41.8424	-158.394	-168.142	-0.008130	0.821072	-0.303910	-0.305250	-0.127830	41.8424	-0.301619	-4974.16	2.569877E-5	NaN
460	1.000000	0.832412	7.36956e+06	-54089.1	1005.82	-29744.5	0.000000	0.000000	6.833059	-0.049957	NaN	0.000000	0.001591	0.001715	28.0815	0.076896	0.002030	37.8847	-28.5658	16.6367	-0.057794	0.831029	-0.293910	-0.295294	-0.049957	37.8847	-0.292921	-3689.99	1.353845E-5	NaN
460	1.000000	0.842442	7.36956e+06	-54089.1	1005.82	-29744.5	0.000000	0.000000	6.843091	0.007165	NaN	0.000000	0.001592	0.001713	28.0814	0.043009	0.002024	21.2511	-103.97	-162.744	0.020861	0.841110	-0.283881	-0.285212	0.007165	21.2511	-0.284134	-2724.19	-2.630255E-6	NaN
460	1.000000	0.852451	7.36956e+06	-54089.1	1005.82	-29744.5	0.000000	0.000000	6.853096	-0.091798	NaN	0.000000	0.001575	0.001738	28.0812	0.022971	0.002048	11.2149	17.4133	13.9502	-0.053045	0.851044	-0.273872	-0.275279	-0.091798	11.2149	-0.267733	-1538.33	5.967417E-5	NaN
460	1.000000	0.862426	7.36956e+06	-54089.1	1005.82	-29744.5	0.000000	0.000000	6.863074	-0.029563	NaN	0.000000	0.001595	0.001707	28.0813	0.007375	0.002185	3.375901	78.9587	-165.547	-0.071260	0.861182	-0.263897	-0.265140	-0.029563	3.375901	-0.257329	-1066.42	2.772130E-5	NaN
460	1.000000	0.872445	7.36956e+06	-54089.1	1005.82	-29744.5	0.000000	0.000000	6.873092	-0.055463	NaN	0.000000	0.001574	0.001712	28.0826	0.048688	0.001859	26.1884	-1.148253	15.1028	-0.007748	0.871095	-0.253877	-0.255227	-0.055463	26.1884	-0.252289	-891.924	6.218389E-5	NaN
460	1.000000	0.882436	7.36956e+06	-54089.1	1005.82	-29744.5	0.000000	0.000000	6.883086	0.007812	NaN	0.000000	0.001576	0.001733	28.0824	0.099051	0.001892	52.3551	-163.589	-162.783	0.011854	0.881116	-0.243886	-0.245206	0.007812	52.3551	-0.243998	-663.556	-1.177309E-5	NaN
460	1.000000	0.892429	7.36956e+06	-54089.1	1005.82	-29744.5	0.000000	0.000000	6.893078	-0.012973	NaN	0.000000	0.001610	0.001693	28.0825	0.039577	0.001921	20.6037	-113.991	17.0024	0.012480	0.891103	-0.233893	-0.235219	-0.012973	20.6037	-0.233421	-453.345	2.861600E-5	NaN
460	1.000000	0.902449	7.36956e+06	-54089.1	1005.82	-29744.5	0.000000	0.000000	6.903101	0.056660	NaN	0.000000	0.001568	0.001736	28.0827	0.032750	0.001901	17.2252	172.951	-161.676	0.015912	0.901117	-0.223873	-0.225206	0.056660	17.2252	-0.226340	-350.43	-0.000162	NaN
460	1.000000	0.912464	7.36956e+06	-54089.1	1005.82	-29744.5	0.000000	0.000000	6.913111	-0.040941	NaN	0.000000	0.001573	0.001720	28.0826	0.023100	0.002021	11.4272	-32.9227	15.5031	-0.056057	0.911076	-0.213859	-0.215247	-0.040941	11.4272	-0.211172	-200.345	0.000204	NaN
460	1.000000	0.922443	7.36956e+06	-54089.1	1005.82	-29744.5	0.000000	0.000000	6.923088	-0.092694	NaN	0.000000	0.001568	0.001711	28.0825	0.037676	0.002022	18.6351	18.479	-168.21	-0.117970	0.921196	-0.203879	-0.205126	-0.092694	18.6351	-0.200149	-132.478	0.000700	NaN
460	1.000000	0.932470	7.36956e+06	-54089.1	1005.82	-29744.5	0.000000	0.000000	6.933118	-0.034895	NaN	0.000000	0.001577	0.001729	28.0827	0.035263	0.001908	18.4843	-114.284	13.6791	-0.100914	0.931115	-0.193853	-0.195208	-0.034895	18.4843	-0.192437	-98.7761	0.000353	NaN
460	1.000000	0.942458	7.36956e+06	-54089.1	1005.82	-29744.5	0.000000	0.000000	6.943106	-0.029203	NaN	0.000000	0.001593	0.001758	28.0825	0.064019	0.002002	31.979	143.285	-167.023	0.006515	0.941155	-0.183864	-0.185168	-0.029203	31.979	-0.183179	-69.0866	0.000423	NaN
460	1.000000	0.952475	7.36956e+06	-54089.1	1005.82	-29744.5	0.000000	0.000000	6.953125	0.004964	NaN	0.000000	0.001551	0.001695	28.0824	0.010568	0.002015	5.244023	125.703	17.3009	-0.012561	0.951169	-0.173847	-0.175153	0.004964	5.244023	-0.174557	-49.2459	-0.000101	NaN
460	1.000000	0.962475	7.36956e+06	-54089.1	1005.82	-29744.5	0.000000	0.000000	6.963125	0.013692	NaN	0.000000	0.001559	0.001742	28.0824	0.084771	0.001972	42.9818	-0.813244	-160.21	0.023984	0.961150	-0.163847	-0.165172	0.013692	42.9818	-0.164086	-32.3774	-0.000423	NaN
460	1.000000	0.972489	7.36956e+06	-54089.1	1005.82	-29744.5	0.000000	0.000000	6.973139	0.022473	NaN	0.000000	0.001573	0.001726	28.0828	0.056163	0.001916	29.3161	-142.298	14.6342	0.051067	0.971149	-0.153834	-0.155173	0.022473	29.3161	-0.154409	-21.7738	-0.001032	NaN
460	1.000000	0.982498	7.36956e+06	-54089.1	1005.82	-29744.5	0.000000	0.000000	6.983145	-0.061835	NaN	0.000000	0.001570	0.001731	28.0824	0.099801	0.002013	49.5693	109.618	-163.922	-0.009988	0.981172	-0.143824	-0.145151	-0.061835	49.5693	-0.142888	-13.3961	0.004616	NaN
460	1.000000	0.992523	7.36956e+06	-54089.1	1005.82	-29744.5	0.000000	0.000000	6.993172	-0.000294	NaN	0.000000	0.001564	0.001722	28.0825	0.033630	0.002023	16.6213	-145.398	15.782	0.008871	0.991106	-0.133800	-0.135217	-0.000294	16.6213	-0.133786	-9.017206	3.265190E-5	NaN
460	1.000000	1.002501	7.36956e+06	-54089.1	1005.82	-29744.5	0.000000	0.000000	7.003149	-0.033480	NaN	0.000000	0.001605	0.001730	28.0824	0.149289	0.001967	75.8827	83.4374	-166.071	-0.084240	1.001222	-0.123822	-0.125101	-0.033480	75.8827	-0.123491	-5.676030	0.005899	NaN
460	1.000000	1.012465	7.36956e+06	-54089.1	1005.82	-29744.5	0.000000	0.000000	7.013111	-0.082251	NaN	0.000000	0.001616	0.001752	28.0814	0.147418	0.002112	69.8168	136.972	15.6663	-0.114113	1.011086	-0.113857	-0.115237	-0.082251	69.8168	-0.112974	-3.468536	0.023713	NaN
460	1.000000	1.022514	7.36956e+06	-54089.1	1005.82	-29744.5	0.000000	0.000000	7.023159	-0.099205	NaN	0.000000	0.001597	0.001760	28.081	0.128686	0.001969	65.362	-114.863	-164.371	-0.066531	1.021164	-0.103809	-0.105158	-0.099205	65.362	-0.102670	-2.091937	0.047422	NaN
460	1.000000	1.032474	7.36956e+06	-54089.1	1005.82	-29744.5	0.000000	0.000000	7.033121	-0.062461	NaN	0.000000	0.001578	0.001740	28.0812	0.142458	0.002119	67.2182	-142.941	13.74	-0.126364	1.031179	-0.093848	-0.095143	-0.062461	67.2182	-0.093151	-1.279590	0.048813	NaN
460	1.000000	1.042493	7.36956e+06	-54089.1	1005.82	-29744.5	0.000000	0.000000	7.043140	-0.064971	NaN	0.000000	0.001603	0.001712	28.0811	0.072930	0.002063	35.3493	12.3875	-164.637	-0.023414	1.041204	-0.083829	-0.085118	-0.064971	35.3493	-0.082451	-0.711986	0.091253	NaN
460	1.000000	1.052516	7.36956e+06	-54089.1	1005.82	-29744.5	0.000000	0.000000	7.053163	-0.054110	NaN	0.000000	0.001599	0.001711	28.0812	0.121540	0.001932	62.9082	-2.201336	13.3954	-0.108543	1.051143	-0.073807	-0.075179	-0.054110	62.9082	-0.073162	-0.413675	0.130804	NaN
460	1.000000	1.062509	7.36956e+06	-54089.1	1005.82	-29744.5	0.000000	0.000000	7.063159	0.013034	NaN	0.000000	0.001584	0.001688	28.0811	0.059123	0.002041	28.9704	-35.7074	-162.381	-0.012785	1.061224	-0.063813	-0.065099	0.013034	28.9704	-0.064150	-0.236015	-0.055225	NaN
460	1.000000	1.072514	7.36956e+06	-54089.1	1005.82	-29744.5	0.000000	0.000000	7.073166	0.078248	NaN	0.000000	0.001570	0.001714	28.0814	0.113125	0.001979	57.1728	-30.3347	16.1362	0.019512	1.071201	-0.053808	-0.055122	0.078248	57.1728	-0.054835	-0.127338	-0.614485	NaN
460	1.000000	1.082531	7.36956e+06	-54089.1	1005.82	-29744.5	0.000000	0.000000	7.083182	0.036211	NaN	0.000000	0.001567	0.001726	28.0813	0.005883	0.002103	2.797093	118.127	-164.642	-0.076354	1.081244	-0.043791	-0.045079	0.036211	2.797093	-0.053501	-0.116241	-0.311521	NaN
460	1.000000	1.092537	7.36956e+06	-54089.1	1005.82	-29744.5	0.000000	0.000000	7.093185	-0.023644	NaN	0.000000	0.001570	0.001709	28.0812	0.013231	0.001918	6.898255	126.364	16.9509	0.037640	1.091159	-0.033785	-0.035164	-0.023644	6.898255	-0.031215	-0.024893	0.949797	NaN
460	1.000000	1.102558	7.36956e+06	-54089.1	1005.82	-29744.5	0.000000	0.000000	7.103204	-0.082606	NaN	0.000000	0.001552	0.001709	28.0811	0.123488	0.002058	60.001	-132.35	-164.849	-0.074543	1.101217	-0.023765	-0.025105	-0.082606	60.001	-0.022732	-0.014742	5.603513	NaN
460	1.000000	1.112542	7.36956e+06	-54089.1	1005.82	-29744.5	0.000000	0.000000	7.113187	-0.093519	NaN	0.000000	0.001545	0.001720	28.0813	0.117669	0.002099	56.0562	120.954	18.5842	-0.036775	1.111173	-0.013781	-0.015149	-0.093519	56.0562	-0.012529	-0.007832	11.9412	NaN
460	1.000000	1.122534	7.36956e+06	-54089.1	1005.82	-29744.5	0.000000	0.000000	7.123183	-0.005644	NaN	0.000000	0.001579	0.001735	28.0814	0.151824	0.002058	73.7719	-172.078	-163.673	0.044004	1.121214	-0.003789	-0.005108	-0.005644	73.7719	-0.003731	-0.002604	2.167595	NaN
460	1.000000	1.132535	7.36956e+06	-54089.1	1005.82	-29744.5	0.000000	0.000000	7.133366	4.433040	NaN	0.000000	0.001582	0.001728	28.0813	5.207553	0.001879	2770.98	12.4017	10.8144	3.259666	1.131240	0.006212	0.004917	4.433040	2770.98	0.005012	0.004145	1069.56	39324.1
460	2.000000	1.138117	7.36956e+06	-54089.1	1005.82	-29744.5	0.000000	0.000000	7.139215	10.9273	NaN	0.000000	0.001648	0.001681	28.0814	10.5061	0.001582	6640.44	8.565088	-174.948	10.6832	1.137777	0.011794	0.011454	10.9273	6640.44	0.010560	0.009810	1113.84	61252.7
460	2.000000	1.140549	7.36956e+06	-54089.1	1005.82	-29744.5	0.000000	0.000000	7.141777	14.0876	NaN	0.000000	0.001577	0.001713	28.0828	13.2195	0.001730	7642.14	7.374507	7.496945	13.021	1.140206	0.014226	0.013883	14.0876	7642.14	0.012844	0.012516	1125.53	62409
460	2.000000	1.143018	7.36956e+06	-54089.1	1005.82	-29744.5	0.000000	0.000000	7.144505	20.3809	NaN	0.000000	0.001657	0.001677	28.0827	16.4416	0.001689	9733.31	-2.207121	-168.084	18.4164	1.142646	0.016695	0.016324	20.3809	9733.31	0.015125	0.015452	1318.98	71538.6
460	2.000000	1.145536	7.36956e+06	-54089.1	1005.82	-29744.5	0.000000	0.000000	7.147064	21.3832	NaN	0.000000	0.001641	0.001702	28.0828	18.8894	0.001706	11072.2	9.043382	0.132118	19.7868	1.145226	0.019213	0.018904	21.3832	11072.2	0.017765	0.019151	1116.57	73099.6
460	2.000000	1.147990	7.36956e+06	-54089.1	1005.82	-29744.5	0.000000	0.000000	7.149885	30.2882	NaN	0.000000	0.001621	0.001720	28.0824	21.5817	0.001633	13216.7	5.466830	-177.996	27.8995	1.147651	0.021668	0.021329	30.2882	13216.7	0.019949	0.022462	1348.41	80569.6
460	2.000000	1.150490	7.36956e+06	-54089.1	1005.82	-29744.5	0.000000	0.000000	7.152476	32.5192	NaN	0.000000	0.001620	0.001715	28.0827	23.8251	0.001738	13707.7	5.564944	1.855170	30.8326	1.150211	0.024167	0.023888	32.5192	13707.7	0.022388	0.026434	1230.19	77028.9
460	2.000000	1.152981	7.36956e+06	-54089.1	1005.82	-29744.5	0.000000	0.000000	7.155309	40.8137	NaN	0.000000	0.001611	0.001757	28.0827	27.1088	0.001728	15690.6	2.895417	-177.31	39.5137	1.152682	0.026658	0.026360	40.8137	15690.6	0.024707	0.030485	1338.8	82104.5
460	2.000000	1.155500	7.36956e+06	-54089.1	1005.82	-29744.5	0.000000	0.000000	7.158226	50.4847	NaN	0.000000	0.001594	0.001721	28.0829	29.2776	0.001817	16116.3	5.409180	2.016005	48.9143	1.155151	0.029178	0.028829	50.4847	16116.3	0.026829	0.034426	1466.46	79358.2
460	2.000000	1.158031	7.36956e+06	-54089.1	1005.82	-29744.5	0.000000	0.000000	7.161135	59.6878	NaN	0.000000	0.001638	0.001709	28.0822	32.0295	0.001921	16674.6	6.040809	-178.986	60.1781	1.157600	0.031709	0.031277	59.6878	16674.6	0.029024	0.038745	1540.53	77396.3
460	2.000000	1.160483	7.36956e+06	-54089.1	1005.82	-29744.5	0.000000	0.000000	7.163767	64.0575	NaN	0.000000	0.001620	0.001730	28.0827	35.124	0.001831	19186.4	4.601366	-0.443851	63.3348	1.160241	0.034160	0.033919	64.0575	19186.4	0.031656	0.044247	1447.73	83334.8
460	2.000000	1.163023	7.36956e+06	-54089.1	1005.82	-29744.5	0.000000	0.000000	7.166643	72.2254	NaN	0.000000	0.001573	0.001727	28.0826	37.3613	0.001829	20427.2	6.690005	178.955	73.4055	1.162621	0.036701	0.036298	72.2254	20427.2	0.034049	0.049555	1457.49	83837.9
460	2.000000	1.165465	7.36956e+06	-54089.1	1005.82	-29744.5	0.000000	0.000000	7.169394	79.7371	NaN	0.000000	0.001592	0.001716	28.0827	39.0312	0.001812	21542	4.482314	0.092173	77.9235	1.165078	0.039142	0.038756	79.7371	21542	0.036366	0.054975	1450.43	83941.8
460	2.000000	1.167933	7.36956e+06	-54089.1	1005.82	-29744.5	0.000000	0.000000	7.172366	91.9865	NaN	0.000000	0.001590	0.001738	28.0825	40.9946	0.001689	24276.6	5.125411	177.971	91.584	1.167669	0.041611	0.041346	91.9865	24276.6	0.038769	0.060886	1510.8	89888
460	2.000000	1.170469	7.36956e+06	-54089.1	1005.82	-29744.5	0.000000	0.000000	7.175157	98.1939	NaN	0.000000	0.001587	0.001698	28.0828	44.7951	0.001800	24884.2	5.059799	-3.023899	96.1012	1.170161	0.044146	0.043839	98.1939	24884.2	0.041187	0.067132	1462.71	87747.3
460	2.000000	1.172941	7.36956e+06	-54089.1	1005.82	-29744.5	0.000000	0.000000	7.177945	105.85	NaN	0.000000	0.001599	0.001721	28.0814	47.4098	0.001759	26949.1	4.281802	177.09	104.009	1.172655	0.046619	0.046332	105.85	26949.1	0.043673	0.073865	1433.01	90593.6
460	2.000000	1.175436	7.36956e+06	-54089.1	1005.82	-29744.5	0.000000	0.000000	7.180840	115.612	NaN	0.000000	0.001592	0.001719	28.0815	49.6193	0.001811	27396.1	4.819433	-3.720320	113.36	1.175203	0.049113	0.048881	115.612	27396.1	0.045948	0.080301	1439.73	88328.4
460	2.000000	1.177937	7.36956e+06	-54089.1	1005.82	-29744.5	0.000000	0.000000	7.184055	132.951	NaN	0.000000	0.001537	0.001700	28.0813	51.564	0.001854	27819.8	3.118808	178.442	133.262	1.177663	0.051614	0.051340	132.951	27819.8	0.048030	0.086422	1538.4	86460
460	2.000000	1.180468	7.36956e+06	-54089.1	1005.82	-29744.5	0.000000	0.000000	7.187056	144.381	NaN	0.000000	0.001589	0.001707	28.0818	55.2627	0.001936	28538.8	5.939449	-4.447731	143.675	1.180028	0.054146	0.053706	144.381	28538.8	0.050351	0.093503	1544.14	85270
460	2.000000	1.182895	7.36956e+06	-54089.1	1005.82	-29744.5	0.000000	0.000000	7.190181	161.355	NaN	0.000000	0.001593	0.001725	28.0813	57.0113	0.001890	30157.4	6.786968	174.362	157.875	1.182578	0.056573	0.056255	161.355	30157.4	0.052560	0.100489	1605.69	86917.4
460	2.000000	1.185540	7.36956e+06	-54089.1	1005.82	-29744.5	0.000000	0.000000	7.193116	168.407	NaN	0.000000	0.001593	0.001706	28.0816	58.6855	0.001851	31705.4	6.622057	-5.275739	170.558	1.185020	0.059217	0.058698	168.407	31705.4	0.055234	0.109274	1541.14	87629
460	2.000000	1.187950	7.36956e+06	-54089.1	1005.82	-29744.5	0.000000	0.000000	7.196145	183.446	NaN	0.000000	0.001553	0.001685	28.0812	60.1845	0.001833	32828.1	3.286251	177.058	183.336	1.187633	0.061627	0.061311	183.446	32828.1	0.057436	0.116776	1570.93	87769.3
460	2.000000	1.190431	7.36956e+06	-54089.1	1005.82	-29744.5	0.000000	0.000000	7.199232	198.168	NaN	0.000000	0.001557	0.001695	28.0821	62.1548	0.001740	35726	0.873234	-0.610474	195.174	1.190037	0.064109	0.063715	198.168	35726	0.059949	0.125625	1577.46	92091.4
460	2.000000	1.192910	7.36956e+06	-54089.1	1005.82	-29744.5	0.000000	0.000000	7.202120	208.132	NaN	0.000000	0.001521	0.001707	28.0814	66.8834	0.001870	35768	3.371925	176.017	206.103	1.192692	0.066587	0.066369	208.132	35768	0.062223	0.133901	1554.37	89304.9
460	2.000000	1.195506	7.36956e+06	-54089.1	1005.82	-29744.5	0.000000	0.000000	7.205219	220.356	NaN	0.000000	0.001530	0.001709	28.0814	68.4385	0.001688	40538.3	5.237990	-5.817931	222.227	1.195025	0.069184	0.068702	220.356	40538.3	0.065107	0.144755	1522.27	97346.9
460	2.000000	1.197920	7.36956e+06	-54089.1	1005.82	-29744.5	0.000000	0.000000	7.208536	242.308	NaN	0.000000	0.001556	0.001680	28.0813	70.3859	0.001678	41937.2	7.774193	170.988	241.022	1.197569	0.071597	0.071247	242.308	41937.2	0.067264	0.153137	1582.29	97911.2
460	2.000000	1.200401	7.36956e+06	-54089.1	1005.82	-29744.5	0.000000	0.000000	7.211377	251.062	NaN	0.000000	0.001536	0.001701	28.0815	73.2482	0.001779	41180.3	2.561059	-3.711428	248.787	1.200010	0.074079	0.073687	251.062	41180.3	0.069506	0.162084	1548.96	93452.7
460	2.000000	1.202941	7.36956e+06	-54089.1	1005.82	-29744.5	0.000000	0.000000	7.214584	267.276	NaN	0.000000	0.001546	0.001704	28.0812	76.6405	0.001815	42214.9	5.512856	172.967	265.633	1.202635	0.076619	0.076312	267.276	42214.9	0.071870	0.171778	1555.94	93058.2
460	2.000000	1.205400	7.36956e+06	-54089.1	1005.82	-29744.5	0.000000	0.000000	7.217941	289.096	NaN	0.000000	0.001609	0.001729	28.0813	78.3217	0.001787	43837.1	7.194149	-8.589035	284.692	1.204990	0.079078	0.078668	289.096	43837.1	0.074132	0.181300	1594.57	94062.4
460	2.000000	1.207865	7.36956e+06	-54089.1	1005.82	-29744.5	0.000000	0.000000	7.220949	302.301	NaN	0.000000	0.001557	0.001704	28.0824	79.5981	0.001826	43591.2	4.501222	173.658	298.618	1.207514	0.081542	0.081192	302.301	43591.2	0.076341	0.190835	1584.09	91168.1
460	2.000000	1.210403	7.36956e+06	-54089.1	1005.82	-29744.5	0.000000	0.000000	7.223963	313.881	NaN	0.000000	0.001588	0.001689	28.083	83.011	0.001854	44771.4	5.073269	-7.516495	310.004	1.210118	0.084081	0.083796	313.881	44771.4	0.078823	0.201817	1555.27	91053
460	2.000000	1.212897	7.36956e+06	-54089.1	1005.82	-29744.5	0.000000	0.000000	7.227338	335.286	NaN	0.000000	0.001574	0.001712	28.0825	83.7623	0.001707	49065.3	2.156266	175.329	332.72	1.212540	0.086575	0.086217	335.286	49065.3	0.081450	0.213757	1568.54	96958.7
460	2.000000	1.215400	7.36956e+06	-54089.1	1005.82	-29744.5	0.000000	0.000000	7.230453	350.171	NaN	0.000000	0.001519	0.001701	28.0825	85.321	0.001707	49979.6	2.878886	-5.521303	345.565	1.215020	0.089078	0.088697	350.171	49979.6	0.083823	0.224820	1557.56	96305
460	2.000000	1.217892	7.36956e+06	-54089.1	1005.82	-29744.5	0.000000	0.000000	7.233714	368.882	NaN	0.000000	0.001513	0.001719	28.0827	87.1952	0.001805	48320.3	4.843172	173.115	368.004	1.217530	0.091569	0.091208	368.882	48320.3	0.085844	0.234443	1573.44	91176.8
460	2.000000	1.220436	7.36956e+06	-54089.1	1005.82	-29744.5	0.000000	0.000000	7.237021	387.418	NaN	0.000000	0.001524	0.001726	28.0824	89.8869	0.001763	50989	5.283766	-8.143761	385.935	1.219993	0.094114	0.093671	387.418	50989	0.088415	0.246964	1568.73	93741.9
460	2.000000	1.222981	7.36956e+06	-54089.1	1005.82	-29744.5	0.000000	0.000000	7.239816	393.517	NaN	0.000000	0.001565	0.001713	28.0827	93.721	0.001887	49662.5	2.945915	174.688	398.992	1.222684	0.096658	0.096362	393.517	49662.5	0.090715	0.258418	1522.79	89256.6
460	2.000000	1.225263	7.36956e+06	-54089.1	1005.82	-29744.5	0.000000	0.000000	7.242636	406.584	NaN	0.000000	0.001547	0.001710	28.0826	95.6068	0.001766	54137.8	8.139401	-11.867	397.389	1.224997	0.098941	0.098675	406.584	54137.8	0.093308	0.271622	1496.88	94905.6
460	2.000000	1.227840	7.36956e+06	-54089.1	1005.82	-29744.5	0.000000	0.000000	7.246220	431.058	NaN	0.000000	0.001548	0.001733	28.0827	96.5324	0.001742	55428.9	4.638869	171.851	428.988	1.227509	0.101518	0.101187	431.058	55428.9	0.095685	0.283999	1517.82	95027.9
460	2.000000	1.230385	7.36956e+06	-54089.1	1005.82	-29744.5	0.000000	0.000000	7.249433	447.308	NaN	0.000000	0.001569	0.001743	28.0824	98.6745	0.001826	54028.7	3.975412	-6.948060	444.96	1.230005	0.104062	0.103682	447.308	54028.7	0.097853	0.295509	1513.69	90805.6
460	2.000000	1.232810	7.36956e+06	-54089.1	1005.82	-29744.5	0.000000	0.000000	7.252405	460.584	NaN	0.000000	0.001578	0.001713	28.0826	101.158	0.001827	55359.1	2.255584	174.257	456.792	1.232594	0.106488	0.106271	460.584	55359.1	0.100248	0.308473	1493.11	91065.5
460	2.000000	1.234786	7.36956e+06	-54089.1	1005.82	-29744.5	0.000000	0.000000	7.255215	480.863	NaN	0.000000	0.001536	0.001711	28.083	101.762	0.001758	57877.5	3.509906	172.6	474.885	1.234531	0.108464	0.108209	480.863	57877.5	0.102232	0.319414	1505.45	93563.4