File: remote_trans/data/nanoindenter/0828-1/data/Data_2025-08-06,11h17m57s/2025-07-22_16-23-58_1_530.txt
2025-07-22, 16:23:58, 1
Index	Phase	Displacement	Time	Pos X	Pos Y	Pos Z	Rot A	Rot B	Piezo Z	Force A	Force B	Gripper	Voltage A	Voltage B	Temperature	Amplitude force	Amplitude pos	Stiffness	Phase shift	Phase excitation	Force A raw	Displacement raw	HMax	HMax raw	Real Force	Real Stiffness	Contact Depth	Area	Hardness	Reduced Mod.
[#]	[#]	[um]	[s]	[um]	[um]	[um]	[m°]	[m°]	[um]	[uN]	[uN]	[V]	[V]	[V]	[°C]	[uN]	[um]	[N/m]	[°]	[°]	[uN]	[um]	[um]	[um]	[uN]	[N/m]	[um]	[um^2]	[MPa]	[MPa]
530	1.000000	0.001971	7.37023e+06	-50589.1	1005.82	-29755.3	0.000000	0.000000	6.002808	-0.043821	NaN	0.000000	0.001589	0.001648	28.0825	0.028864	0.000929	31.0638	-84.6668	-170.943	-0.018100	0.000720	-1.058138	-1.059389	-0.043821	31.0638	-1.057080	-1.329166E+14	3.296876E-16	NaN
530	1.000000	0.009941	7.37023e+06	-50589.1	1005.82	-29755.3	0.000000	0.000000	6.010778	-0.034776	NaN	0.000000	0.001573	0.001667	28.0821	0.047468	0.000918	51.6847	-11.3075	-158.875	-0.107054	0.008645	-1.050168	-1.051464	-0.034776	51.6847	-1.049663	-1.056545E+14	3.291446E-16	NaN
530	1.000000	0.017950	7.37023e+06	-50589.1	1005.82	-29755.3	0.000000	0.000000	6.018790	0.032117	NaN	0.000000	0.001597	0.001653	28.0824	0.029572	0.001806	16.3752	142.986	-163.348	-0.073360	0.016617	-1.042159	-1.043492	0.032117	16.3752	-1.043630	-8.765427E+13	-3.664084E-16	NaN
530	1.000000	0.025958	7.37023e+06	-50589.1	1005.82	-29755.3	0.000000	0.000000	6.026794	-0.064766	NaN	0.000000	0.001589	0.001677	28.0822	0.099777	0.001833	54.419	-126.435	-168.275	0.010750	0.024633	-1.034151	-1.035476	-0.064766	54.419	-1.033259	-6.357845E+13	1.018676E-15	NaN
530	1.000000	0.033908	7.37023e+06	-50589.1	1005.82	-29755.3	0.000000	0.000000	6.034748	0.023109	NaN	0.000000	0.001584	0.001669	28.082	0.026164	0.001705	15.3463	-163.789	-164.688	0.057138	0.032581	-1.026201	-1.027527	0.023109	15.3463	-1.027330	-5.291337E+13	-4.367393E-16	NaN
530	1.000000	0.041898	7.37023e+06	-50589.1	1005.82	-29755.3	0.000000	0.000000	6.042737	0.005818	NaN	0.000000	0.001612	0.001692	28.0823	0.132160	0.002025	65.2534	-81.2391	-167.53	-0.039163	0.040629	-1.018211	-1.019480	0.005818	65.2534	-1.018278	-3.997459E+13	-1.455461E-16	NaN
530	1.000000	0.049938	7.37023e+06	-50589.1	1005.82	-29755.3	0.000000	0.000000	6.050777	0.007236	NaN	0.000000	0.001603	0.001664	28.0824	0.103384	0.001961	52.7311	166.972	-168.582	0.042801	0.048586	-1.010171	-1.011523	0.007236	52.7311	-1.010274	-3.119406E+13	-2.319771E-16	NaN
530	1.000000	0.057942	7.37023e+06	-50589.1	1005.82	-29755.2	0.000000	0.000000	6.058780	-0.034992	NaN	0.000000	0.001576	0.001670	28.0828	0.094042	0.002062	45.6123	-97.1433	-165.457	-0.001831	0.056636	-1.002166	-1.003473	-0.034992	45.6123	-1.001591	-2.383357E+13	1.468199E-15	NaN
530	1.000000	0.065913	7.37023e+06	-50589.1	1005.82	-29755.2	0.000000	0.000000	6.066750	-0.056080	NaN	0.000000	0.001567	0.001634	28.082	0.035064	0.002084	16.8289	41.603	-168.078	-0.050699	0.064588	-0.994196	-0.995521	-0.056080	16.8289	-0.991696	-1.753706E+13	3.197818E-15	NaN
530	1.000000	0.073917	7.37023e+06	-50589.1	1005.82	-29755.3	0.000000	0.000000	6.074753	-0.070933	NaN	0.000000	0.001586	0.001657	28.0822	0.029965	0.002179	13.7539	-71.1077	-166.503	-0.023431	0.072610	-0.986191	-0.987499	-0.070933	13.7539	-0.982323	-1.311331E+13	5.409270E-15	NaN
530	1.000000	0.081923	7.37023e+06	-50589.1	1005.82	-29755.2	0.000000	0.000000	6.082764	0.041028	NaN	0.000000	0.001620	0.001671	28.0826	0.029778	0.001910	15.5933	50.454	-166.59	0.060522	0.080628	-0.978186	-0.979481	0.041028	15.5933	-0.980159	-1.226179E+13	-3.346033E-15	NaN
530	1.000000	0.089949	7.37023e+06	-50589.1	1005.82	-29755.2	0.000000	0.000000	6.090788	0.014187	NaN	0.000000	0.001603	0.001622	28.0821	0.026922	0.002069	13.0107	126.886	-167.671	-0.005282	0.088614	-0.970160	-0.971494	0.014187	13.0107	-0.970978	-9.222266E+12	-1.538328E-15	NaN
530	1.000000	0.097938	7.37023e+06	-50589.1	1005.82	-29755.2	0.000000	0.000000	6.098777	0.007966	NaN	0.000000	0.001605	0.001687	28.0824	0.037940	0.001913	19.8336	-121.116	-166.924	-0.014466	0.096605	-0.962171	-0.963504	0.007966	19.8336	-0.962472	-7.082667E+12	-1.124675E-15	NaN
530	1.000000	0.105928	7.37023e+06	-50589.1	1005.82	-29755.2	0.000000	0.000000	6.106765	-0.048474	NaN	0.000000	0.001613	0.001650	28.0822	0.115181	0.002043	56.3654	-40.1464	-166.755	0.050178	0.104603	-0.954181	-0.955505	-0.048474	56.3654	-0.953536	-5.366698E+12	9.032382E-15	NaN
530	1.000000	0.113913	7.37023e+06	-50589.1	1005.82	-29755.2	0.000000	0.000000	6.114752	0.014856	NaN	0.000000	0.001623	0.001680	28.0824	0.116681	0.002105	55.4189	138.911	-169	0.054289	0.112619	-0.946196	-0.947490	0.014856	55.4189	-0.946397	-4.299661E+12	-3.455110E-15	NaN
530	1.000000	0.121928	7.37023e+06	-50589.1	1005.82	-29755.2	0.000000	0.000000	6.122765	-0.048292	NaN	0.000000	0.001610	0.001679	28.0834	0.017886	0.001910	9.366196	57.3365	-166.187	0.030210	0.120628	-0.938181	-0.939481	-0.048292	9.366196	-0.934314	-2.954019E+12	1.634804E-14	NaN
530	1.000000	0.129962	7.37023e+06	-50589.1	1005.82	-29755.2	0.000000	0.000000	6.130801	-0.006339	NaN	0.000000	0.001587	0.001691	28.0835	0.027452	0.001897	14.4698	85.992	-167.875	0.030323	0.128614	-0.930147	-0.931494	-0.006339	14.4698	-0.929818	-2.568882E+12	2.467425E-15	NaN
530	1.000000	0.137954	7.37023e+06	-50589.1	1005.82	-29755.2	0.000000	0.000000	6.138793	0.012183	NaN	0.000000	0.001610	0.001684	28.0835	0.096845	0.001977	48.9897	65.9436	-165.42	0.023803	0.136625	-0.922155	-0.923484	0.012183	48.9897	-0.922342	-2.036211E+12	-5.983350E-15	NaN
530	1.000000	0.145967	7.37023e+06	-50589.1	1005.82	-29755.2	0.000000	0.000000	6.146803	-0.045811	NaN	0.000000	0.001623	0.001684	28.0833	0.097473	0.002042	47.7349	88.0277	-167.768	-0.065157	0.144649	-0.914142	-0.915460	-0.045811	47.7349	-0.913423	-1.543076E+12	2.968791E-14	NaN
530	1.000000	0.153933	7.37023e+06	-50589.1	1005.82	-29755.2	0.000000	0.000000	6.154772	0.011865	NaN	0.000000	0.001584	0.001668	28.0835	0.095955	0.002016	47.5925	-119.507	-167.123	-0.018765	0.152593	-0.906176	-0.907515	0.011865	47.5925	-0.906363	-1.238885E+12	-9.577491E-15	NaN
530	1.000000	0.161931	7.37023e+06	-50589.1	1005.82	-29755.3	0.000000	0.000000	6.162771	0.005819	NaN	0.000000	0.001570	0.001698	28.0834	0.051666	0.002087	24.7512	-0.776748	-163.151	-0.008279	0.160650	-0.898177	-0.899458	0.005819	24.7512	-0.898354	-9.656503E+11	-6.026497E-15	NaN
530	1.000000	0.169972	7.37023e+06	-50589.1	1005.82	-29755.2	0.000000	0.000000	6.170811	0.012128	NaN	0.000000	0.001564	0.001695	28.0843	0.044766	0.001998	22.4071	41.0657	-165.358	-0.011802	0.168661	-0.890137	-0.891447	0.012128	22.4071	-0.890543	-7.572715E+11	-1.601543E-14	NaN
530	1.000000	0.177967	7.37023e+06	-50589.1	1005.82	-29755.2	0.000000	0.000000	6.178805	-0.020845	NaN	0.000000	0.001591	0.001692	28.0834	0.101464	0.001972	51.4611	140.914	-163.949	-0.011043	0.176650	-0.882142	-0.883459	-0.020845	51.4611	-0.881838	-5.775146E+11	3.609481E-14	NaN
530	1.000000	0.185955	7.37023e+06	-50589.1	1005.82	-29755.2	0.000000	0.000000	6.186794	-0.005199	NaN	0.000000	0.001596	0.001670	28.0834	0.078172	0.001993	39.2186	157.718	-165.606	0.002156	0.184651	-0.874154	-0.875458	-0.005199	39.2186	-0.874054	-4.532016E+11	1.147182E-14	NaN
530	1.000000	0.193967	7.37023e+06	-50589.1	1005.82	-29755.2	0.000000	0.000000	6.194802	-0.090161	NaN	0.000000	0.001567	0.001650	28.0835	0.024827	0.002085	11.9098	55.7893	-168.744	-0.044142	0.192706	-0.866142	-0.867403	-0.090161	11.9098	-0.860464	-2.967614E+11	3.038181E-13	NaN
530	1.000000	0.201999	7.37023e+06	-50589.1	1005.82	-29755.2	0.000000	0.000000	6.202835	-0.060920	NaN	0.000000	0.001598	0.001645	28.0834	0.024524	0.001874	13.089	167.182	-169.585	-0.099792	0.200680	-0.858110	-0.859429	-0.060920	13.089	-0.854619	-2.473348E+11	2.463064E-13	NaN
530	1.000000	0.209939	7.37023e+06	-50589.1	1005.82	-29755.2	0.000000	0.000000	6.210775	-0.054248	NaN	0.000000	0.001576	0.001671	28.0838	0.062538	0.001928	32.4334	-90.2131	-165.378	-0.127733	0.208709	-0.850170	-0.851399	-0.054248	32.4334	-0.848915	-2.070386E+11	2.620211E-13	NaN
530	1.000000	0.217964	7.37023e+06	-50589.1	1005.82	-29755.2	0.000000	0.000000	6.218805	0.059225	NaN	0.000000	0.001634	0.001706	28.0833	0.045036	0.002136	21.0875	163.293	-165.963	-0.003097	0.216692	-0.842145	-0.843417	0.059225	21.0875	-0.844251	-1.790124E+11	-3.308434E-13	NaN
530	1.000000	0.225962	7.37023e+06	-50589.1	1005.82	-29755.2	0.000000	0.000000	6.226801	-0.005391	NaN	0.000000	0.001611	0.001691	28.0837	0.070618	0.001888	37.395	-145.778	-167.983	-0.060735	0.224706	-0.834147	-0.835403	-0.005391	37.395	-0.834039	-1.301730E+11	4.141455E-14	NaN
530	1.000000	0.234012	7.37023e+06	-50589.1	1005.82	-29755.2	0.000000	0.000000	6.234846	-0.097145	NaN	0.000000	0.001600	0.001710	28.0836	0.134253	0.001887	71.1568	-70.7663	-166.511	-0.055693	0.232679	-0.826097	-0.827430	-0.097145	71.1568	-0.825073	-9.840106E+10	9.872325E-13	NaN
530	1.000000	0.241964	7.37023e+06	-50589.1	1005.82	-29755.2	0.000000	0.000000	6.242802	-0.020446	NaN	0.000000	0.001635	0.001728	28.0835	0.086935	0.002093	41.5364	172.137	-169.049	-0.082112	0.240713	-0.818144	-0.819396	-0.020446	41.5364	-0.817775	-7.834996E+10	2.609598E-13	NaN
530	1.000000	0.250006	7.37023e+06	-50589.1	1005.82	-29755.2	0.000000	0.000000	6.250842	-0.080382	NaN	0.000000	0.001569	0.001731	28.0839	0.044210	0.001987	22.2462	63.7003	-167.9	-0.006412	0.248692	-0.810103	-0.811417	-0.080382	22.2462	-0.807393	-5.664956E+10	1.418931E-12	NaN
530	1.000000	0.257981	7.37023e+06	-50589.1	1005.82	-29755.2	0.000000	0.000000	6.258818	-0.051741	NaN	0.000000	0.001559	0.001686	28.0824	0.080803	0.001937	41.7072	31.9218	-163.9	-0.085177	0.256722	-0.802128	-0.803387	-0.051741	41.7072	-0.801197	-4.667845E+10	1.108461E-12	NaN
530	1.000000	0.266008	7.37023e+06	-50589.1	1005.82	-29755.2	0.000000	0.000000	6.266846	-0.019771	NaN	0.000000	0.001601	0.001685	28.0825	0.060503	0.002005	30.1813	-31.1338	-164.607	-0.055769	0.264693	-0.794101	-0.795416	-0.019771	30.1813	-0.793610	-3.682178E+10	5.369290E-13	NaN
530	1.000000	0.274003	7.37023e+06	-50589.1	1005.82	-29755.2	0.000000	0.000000	6.274839	-0.075288	NaN	0.000000	0.001626	0.001662	28.0822	0.025341	0.001881	13.4748	-153.441	-168.372	-0.072774	0.272669	-0.786106	-0.787440	-0.075288	13.4748	-0.781915	-2.554218E+10	2.947613E-12	NaN
530	1.000000	0.282018	7.37023e+06	-50589.1	1005.82	-29755.2	0.000000	0.000000	6.282854	-0.071620	NaN	0.000000	0.001620	0.001700	28.0821	0.078658	0.002027	38.8038	51.37	-166.93	-0.034352	0.280735	-0.778091	-0.779374	-0.071620	38.8038	-0.776707	-2.170067E+10	3.300344E-12	NaN
530	1.000000	0.289996	7.37023e+06	-50589.1	1005.82	-29755.2	0.000000	0.000000	6.290835	-0.011282	NaN	0.000000	0.001653	0.001658	28.0823	0.085699	0.002075	41.2934	41.2187	-163.852	0.053311	0.288716	-0.770113	-0.771392	-0.011282	41.2934	-0.769908	-1.754079E+10	6.431682E-13	NaN
530	1.000000	0.298020	7.37023e+06	-50589.1	1005.82	-29755.2	0.000000	0.000000	6.298859	-0.002516	NaN	0.000000	0.001610	0.001679	28.0821	0.039345	0.002082	18.8998	62.8657	-167.79	0.019199	0.296725	-0.762089	-0.763383	-0.002516	18.8998	-0.761989	-1.368866E+10	1.838275E-13	NaN
530	1.000000	0.306004	7.37023e+06	-50589.1	1005.82	-29755.2	0.000000	0.000000	6.306843	0.003013	NaN	0.000000	0.001612	0.001682	28.0823	0.037752	0.001965	19.2098	84.5097	-166.506	0.017797	0.304740	-0.754105	-0.755369	0.003013	19.2098	-0.754223	-1.073229E+10	-2.807026E-13	NaN
530	1.000000	0.314030	7.37023e+06	-50589.1	1005.82	-29755.2	0.000000	0.000000	6.314870	0.032559	NaN	0.000000	0.001635	0.001686	28.082	0.060669	0.002059	29.4713	96.217	-169.4	-0.007748	0.312703	-0.746079	-0.747405	0.032559	29.4713	-0.746907	-8.533326E+9	-3.815465E-12	NaN
530	1.000000	0.322041	7.37023e+06	-50589.1	1005.82	-29755.2	0.000000	0.000000	6.322879	-0.038011	NaN	0.000000	0.001693	0.001667	28.0821	0.065848	0.002041	32.2577	-115.569	-164.966	-0.023458	0.320756	-0.738067	-0.739353	-0.038011	32.2577	-0.737184	-6.290589E+9	6.042592E-12	NaN
530	1.000000	0.330052	7.37023e+06	-50589.1	1005.82	-29755.2	0.000000	0.000000	6.330890	-0.020329	NaN	0.000000	0.001593	0.001693	28.0819	0.048375	0.001892	25.57	36.4218	-169.08	-0.055234	0.328734	-0.730057	-0.731374	-0.020329	25.57	-0.729461	-4.936944E+9	4.117695E-12	NaN
530	1.000000	0.338016	7.37023e+06	-50589.1	1005.82	-29755.2	0.000000	0.000000	6.338856	0.023732	NaN	0.000000	0.001571	0.001717	28.0819	0.078466	0.002101	37.3411	159.25	-169.01	0.005294	0.336708	-0.722093	-0.723401	0.023732	37.3411	-0.722569	-3.976581E+9	-5.967926E-12	NaN
530	1.000000	0.345987	7.37024e+06	-50589.1	1005.82	-29755.2	0.000000	0.000000	6.346825	-0.023956	NaN	0.000000	0.001614	0.001688	28.0823	0.069124	0.001955	35.3582	41.8348	-167.854	0.034404	0.344761	-0.714121	-0.715348	-0.023956	35.3582	-0.713613	-3.001606E+9	7.980904E-12	NaN
530	1.000000	0.354034	7.37024e+06	-50589.1	1005.82	-29755.2	0.000000	0.000000	6.354875	0.032916	NaN	0.000000	0.001671	0.001686	28.0819	0.026300	0.001824	14.4152	-153.157	-166.307	0.026288	0.352738	-0.706074	-0.707371	0.032916	14.4152	-0.707787	-2.499454E+9	-1.316934E-11	NaN
530	1.000000	0.362056	7.37024e+06	-50589.1	1005.82	-29755.2	0.000000	0.000000	6.362896	0.031266	NaN	0.000000	0.001612	0.001701	28.0821	0.036032	0.002026	17.7816	62.5246	-165.751	-0.046646	0.360720	-0.698053	-0.699389	0.031266	17.7816	-0.699372	-1.918444E+9	-1.629741E-11	NaN
530	1.000000	0.370037	7.37024e+06	-50589.1	1005.82	-29755.2	0.000000	0.000000	6.370875	0.001095	NaN	0.000000	0.001612	0.001695	28.0819	0.086252	0.001969	43.7981	-107.868	-167.383	0.003252	0.368706	-0.690072	-0.691403	0.001095	43.7981	-0.690091	-1.432721E+9	-7.640445E-13	NaN
530	1.000000	0.378063	7.37024e+06	-50589.1	1005.82	-29755.2	0.000000	0.000000	6.378898	-0.098664	NaN	0.000000	0.001635	0.001664	28.082	0.103201	0.001833	56.3016	88.5133	-165.688	0.030967	0.376775	-0.682046	-0.683333	-0.098664	56.3016	-0.680731	-1.067105E+9	9.245908E-11	NaN
530	1.000000	0.386055	7.37024e+06	-50589.1	1005.82	-29755.2	0.000000	0.000000	6.386892	-0.028946	NaN	0.000000	0.001671	0.001702	28.082	0.003123	0.001967	1.588070	-129.915	-165.502	0.044923	0.384745	-0.674054	-0.675364	-0.028946	1.588070	-0.660384	-5.619856E+8	5.150701E-11	NaN
530	1.000000	0.394074	7.37024e+06	-50589.1	1005.82	-29755.2	0.000000	0.000000	6.394909	-0.093416	NaN	0.000000	0.001600	0.001731	28.0832	0.040866	0.002157	18.9458	82.063	-163.614	-0.028782	0.392745	-0.666035	-0.667364	-0.093416	18.9458	-0.662337	-5.976828E+8	1.562965E-10	NaN
530	1.000000	0.402068	7.37024e+06	-50589.1	1005.82	-29755.2	0.000000	0.000000	6.402906	-0.021116	NaN	0.000000	0.001615	0.001711	28.0832	0.111211	0.001826	60.9117	-86.9626	-168.047	-0.081311	0.400708	-0.658041	-0.659400	-0.021116	60.9117	-0.657781	-5.176912E+8	4.078946E-11	NaN
530	1.000000	0.410102	7.37024e+06	-50589.1	1005.82	-29755.2	0.000000	0.000000	6.410943	0.034267	NaN	0.000000	0.001598	0.001694	28.083	0.082309	0.001989	41.3774	130.151	-165.765	-0.045128	0.408690	-0.650007	-0.651418	0.034267	41.3774	-0.650628	-4.130859E+8	-8.295450E-11	NaN
530	1.000000	0.418065	7.37024e+06	-50589.1	1005.82	-29755.2	0.000000	0.000000	6.418902	-0.027131	NaN	0.000000	0.001657	0.001703	28.0832	0.022734	0.001946	11.6794	24.6185	-164.425	-0.021249	0.416793	-0.642044	-0.643316	-0.027131	11.6794	-0.640302	-2.981491E+8	9.099827E-11	NaN
530	1.000000	0.426055	7.37024e+06	-50589.1	1005.82	-29755.2	0.000000	0.000000	6.426895	0.031065	NaN	0.000000	0.001584	0.001726	28.083	0.032838	0.002072	15.8463	-77.8294	-166.259	0.026058	0.424730	-0.634054	-0.635379	0.031065	15.8463	-0.635524	-2.563694E+8	-1.211735E-10	NaN
530	1.000000	0.434098	7.37024e+06	-50589.1	1005.82	-29755.2	0.000000	0.000000	6.434934	-0.073069	NaN	0.000000	0.001628	0.001705	28.083	0.066672	0.001977	33.7292	-99.2358	-163.348	-0.009655	0.432802	-0.626011	-0.627306	-0.073069	33.7292	-0.624386	-1.802645E+8	4.053406E-10	NaN
530	1.000000	0.442077	7.37024e+06	-50589.1	1005.82	-29755.2	0.000000	0.000000	6.442915	-0.028780	NaN	0.000000	0.001608	0.001695	28.0831	0.132046	0.002007	65.7879	-114.266	-167.414	-0.044387	0.440804	-0.618031	-0.619304	-0.028780	65.7879	-0.617703	-1.459017E+8	1.972537E-10	NaN
530	1.000000	0.450080	7.37024e+06	-50589.1	1005.82	-29755.2	0.000000	0.000000	6.450917	-0.041861	NaN	0.000000	0.001561	0.001701	28.0831	0.141872	0.001960	72.3983	16.2053	-167.968	-0.049681	0.448733	-0.610029	-0.611376	-0.041861	72.3983	-0.609595	-1.128617E+8	3.709025E-10	NaN
530	1.000000	0.458056	7.37024e+06	-50589.1	1005.82	-29755.2	0.000000	0.000000	6.458894	-0.012895	NaN	0.000000	0.001618	0.001698	28.083	0.015857	0.002028	7.817347	-64.1348	-166.36	-0.049787	0.456808	-0.602053	-0.603301	-0.012895	7.817347	-0.600816	-8.544702E+7	1.509079E-10	NaN
530	1.000000	0.466113	7.37024e+06	-50589.1	1005.82	-29755.2	0.000000	0.000000	6.466951	-0.006439	NaN	0.000000	0.001612	0.001683	28.083	0.097210	0.002053	47.3564	133.213	-167.511	0.045001	0.464771	-0.593996	-0.595337	-0.006439	47.3564	-0.593894	-6.860302E+7	9.385656E-11	NaN
530	1.000000	0.474071	7.37024e+06	-50589.1	1005.82	-29755.2	0.000000	0.000000	6.474906	-0.083015	NaN	0.000000	0.001613	0.001668	28.0831	0.041104	0.001993	20.6231	23.1149	-165.87	-0.120628	0.472752	-0.586038	-0.587357	-0.083015	20.6231	-0.583019	-4.857219E+7	1.709101E-9	NaN
530	1.000000	0.482092	7.37024e+06	-50589.1	1005.82	-29755.2	0.000000	0.000000	6.482928	-0.077760	NaN	0.000000	0.001584	0.001681	28.0832	0.103841	0.002020	51.4167	101.3	-171.579	-0.059030	0.480760	-0.578016	-0.579349	-0.077760	51.4167	-0.576882	-3.996569E+7	1.945666E-9	NaN
530	1.000000	0.490137	7.37024e+06	-50589.1	1005.82	-29755.2	0.000000	0.000000	6.490975	-0.017308	NaN	0.000000	0.001598	0.001679	28.0834	0.059681	0.001940	30.7558	-100.869	-164.13	0.023394	0.488838	-0.569971	-0.571271	-0.017308	30.7558	-0.569549	-3.165234E+7	5.468042E-10	NaN
530	1.000000	0.498096	7.37024e+06	-50589.1	1005.82	-29755.2	0.000000	0.000000	6.498935	0.003669	NaN	0.000000	0.001625	0.001686	28.0834	0.055838	0.001988	28.0888	-86.4637	-165.999	0.026478	0.496835	-0.562013	-0.563274	0.003669	28.0888	-0.562111	-2.497925E+7	-1.468873E-10	NaN
530	1.000000	0.506113	7.37024e+06	-50589.1	1005.82	-29755.2	0.000000	0.000000	6.506950	-0.043066	NaN	0.000000	0.001611	0.001726	28.0831	0.057773	0.002033	28.4202	-41.6817	-170.249	-0.039416	0.504819	-0.553996	-0.555289	-0.043066	28.4202	-0.552859	-1.860172E+7	2.315146E-9	NaN
530	1.000000	0.514131	7.37024e+06	-50589.1	1005.82	-29755.2	0.000000	0.000000	6.514971	0.023903	NaN	0.000000	0.001581	0.001685	28.0834	0.036752	0.002006	18.3204	119.841	-163.843	0.010953	0.512765	-0.545978	-0.547344	0.023903	18.3204	-0.546956	-1.540959E+7	-1.551188E-9	NaN
530	1.000000	0.522121	7.37024e+06	-50589.1	1005.82	-29755.2	0.000000	0.000000	6.522962	0.043285	NaN	0.000000	0.001613	0.001649	28.0833	0.083245	0.002079	40.0467	-153.279	-163.968	0.017786	0.520803	-0.537987	-0.539305	0.043285	40.0467	-0.538798	-1.187644E+7	-3.644616E-9	NaN
530	1.000000	0.530132	7.37024e+06	-50589.1	1005.82	-29755.2	0.000000	0.000000	6.530972	0.031514	NaN	0.000000	0.001603	0.001613	28.0821	0.019337	0.001906	10.1451	8.646823	-170.031	0.023345	0.528835	-0.529977	-0.531274	0.031514	10.1451	-0.532307	-9.6517e+06	-3.265161E-9	NaN
530	1.000000	0.538095	7.37024e+06	-50589.1	1005.82	-29755.2	0.000000	0.000000	6.538931	-0.057516	NaN	0.000000	0.001628	0.001635	28.0821	0.040457	0.002007	20.1613	54.1197	-163.059	-0.036746	0.536804	-0.522014	-0.523305	-0.057516	20.1613	-0.519874	-6.4841e+06	8.870336E-9	NaN
530	1.000000	0.546109	7.37024e+06	-50589.1	1005.82	-29755.2	0.000000	0.000000	6.546951	0.067853	NaN	0.000000	0.001604	0.001656	28.082	0.139590	0.001821	76.6577	-77.3709	-166.338	0.075112	0.544778	-0.514000	-0.515330	0.067853	76.6577	-0.514663	-5.48716e+06	-1.236584E-8	NaN
530	1.000000	0.554143	7.37024e+06	-50589.1	1005.82	-29755.2	0.000000	0.000000	6.554981	-0.028070	NaN	0.000000	0.001590	0.001717	28.0822	0.060030	0.002079	28.8766	71.6132	-172.472	0.033245	0.552834	-0.505966	-0.507275	-0.028070	28.8766	-0.505237	-4.05552e+06	6.921544E-9	NaN
530	1.000000	0.562126	7.37024e+06	-50589.1	1005.82	-29755.2	0.000000	0.000000	6.562965	0.005951	NaN	0.000000	0.001618	0.001674	28.0821	0.071213	0.001828	38.9604	70.2446	-163.73	-0.006040	0.560809	-0.497983	-0.499299	0.005951	38.9604	-0.498098	-3.22459e+06	-1.845392E-9	NaN
530	1.000000	0.570118	7.37024e+06	-50589.1	1005.82	-29755.2	0.000000	0.000000	6.570953	-0.082653	NaN	0.000000	0.001572	0.001660	28.0821	0.035729	0.002015	17.7285	12.9722	-167.372	-0.046085	0.568877	-0.489991	-0.491232	-0.082653	17.7285	-0.486494	-2.22019e+06	3.722798E-8	NaN
530	1.000000	0.578112	7.37024e+06	-50589.1	1005.82	-29755.2	0.000000	0.000000	6.578949	-0.033757	NaN	0.000000	0.001613	0.001675	28.082	0.133880	0.001939	69.0501	76.5456	-163.839	-0.071020	0.576854	-0.481997	-0.483255	-0.033757	69.0501	-0.481630	-1.89823e+06	1.778330E-8	NaN
530	1.000000	0.586138	7.37024e+06	-50589.1	1005.82	-29755.2	0.000000	0.000000	6.586979	0.054943	NaN	0.000000	0.001610	0.001687	28.0821	0.149162	0.001888	79.0088	94.3885	-171.496	0.087132	0.584844	-0.473971	-0.475264	0.054943	79.0088	-0.474492	-1.50795e+06	-3.643536E-8	NaN
530	1.000000	0.594141	7.37024e+06	-50589.1	1005.82	-29755.2	0.000000	0.000000	6.594981	0.040781	NaN	0.000000	0.001555	0.001691	28.0823	0.039470	0.001986	19.8724	-84.3721	-164.816	-0.033260	0.592810	-0.465968	-0.467299	0.040781	19.8724	-0.467507	-1.20347e+06	-3.388594E-8	NaN
530	1.000000	0.602145	7.37024e+06	-50589.1	1005.82	-29755.2	0.000000	0.000000	6.602984	0.009025	NaN	0.000000	0.001597	0.001624	28.0821	0.026140	0.001904	13.7301	130.004	-168.259	-0.055210	0.600833	-0.457964	-0.459276	0.009025	13.7301	-0.458457	-898109	-1.004907E-8	NaN
530	1.000000	0.610114	7.37024e+06	-50589.1	1005.82	-29755.2	0.000000	0.000000	6.610954	0.035372	NaN	0.000000	0.001630	0.001651	28.0823	0.070418	0.002089	33.7149	89.3082	-164.207	0.008456	0.608859	-0.449995	-0.451250	0.035372	33.7149	-0.450782	-700412	-5.050185E-8	NaN
530	1.000000	0.618130	7.37024e+06	-50589.1	1005.82	-29755.2	0.000000	0.000000	6.618966	-0.065264	NaN	0.000000	0.001599	0.001661	28.0821	0.115129	0.002088	55.14	-85.7385	-167.039	-0.063439	0.616860	-0.441979	-0.443249	-0.065264	55.14	-0.441092	-511408	1.276173E-7	NaN
530	1.000000	0.626133	7.37024e+06	-50589.1	1005.82	-29755.2	0.000000	0.000000	6.626971	-0.011725	NaN	0.000000	0.001638	0.001654	28.0821	0.088448	0.001938	45.6307	39.8817	-166.397	-0.029697	0.624896	-0.433976	-0.435213	-0.011725	45.6307	-0.433784	-403239	2.907715E-8	NaN
530	1.000000	0.634153	7.37024e+06	-50589.1	1005.82	-29755.2	0.000000	0.000000	6.634992	0.007040	NaN	0.000000	0.001606	0.001652	28.0825	0.012274	0.002047	5.996445	-54.7948	-167.922	0.028601	0.632803	-0.425956	-0.427305	0.007040	5.996445	-0.426836	-321577	-2.189238E-8	NaN
530	1.000000	0.642149	7.37024e+06	-50589.1	1005.82	-29755.2	0.000000	0.000000	6.642991	0.056138	NaN	0.000000	0.001627	0.001648	28.0818	0.013030	0.001918	6.793132	-150.503	-164.193	0.015214	0.640816	-0.417959	-0.419293	0.056138	6.793132	-0.424157	-294675	-1.905067E-7	NaN
530	1.000000	0.650161	7.37024e+06	-50589.1	1005.82	-29755.2	0.000000	0.000000	6.650996	-0.095481	NaN	0.000000	0.001586	0.001690	28.082	0.074762	0.001885	39.6668	34.9845	-167.057	-0.039923	0.648889	-0.409948	-0.411219	-0.095481	39.6668	-0.408143	-174575	5.469316E-7	NaN
530	1.000000	0.658173	7.37024e+06	-50589.1	1005.82	-29755.2	0.000000	0.000000	6.659012	0.007212	NaN	0.000000	0.001586	0.001725	28.0821	0.085646	0.001962	43.6622	133.787	-169.885	0.007783	0.656853	-0.401935	-0.403256	0.007212	43.6622	-0.402059	-143006	-5.042878E-8	NaN
530	1.000000	0.666136	7.37024e+06	-50589.1	1005.82	-29755.2	0.000000	0.000000	6.666973	-0.048219	NaN	0.000000	0.001590	0.001674	28.0834	0.023749	0.001949	12.1832	-152.532	-167.019	0.022796	0.664886	-0.393973	-0.395223	-0.048219	12.1832	-0.391004	-99433.6	4.849350E-7	NaN
530	1.000000	0.674193	7.37024e+06	-50589.1	1005.82	-29755.2	0.000000	0.000000	6.675031	-0.019981	NaN	0.000000	0.001612	0.001657	28.0835	0.075331	0.001945	38.7319	-86.4269	-167.521	0.048439	0.672887	-0.385916	-0.387222	-0.019981	38.7319	-0.385529	-83017.2	2.406829E-7	NaN
530	1.000000	0.682169	7.37024e+06	-50589.1	1005.82	-29755.2	0.000000	0.000000	6.683007	-0.030897	NaN	0.000000	0.001573	0.001656	28.0834	0.124411	0.002030	61.2844	-130.979	-164.366	-0.013927	0.680891	-0.377940	-0.379218	-0.030897	61.2844	-0.377562	-63808.7	4.842090E-7	NaN
530	1.000000	0.690195	7.37024e+06	-50589.1	1005.82	-29755.2	0.000000	0.000000	6.691033	-0.020295	NaN	0.000000	0.001535	0.001703	28.0835	0.069161	0.001885	36.6926	110.353	-162.634	-0.084946	0.688909	-0.369914	-0.371199	-0.020295	36.6926	-0.369499	-48854.9	4.154147E-7	NaN
530	1.000000	0.698175	7.37024e+06	-50589.1	1005.82	-29755.2	0.000000	0.000000	6.699012	-0.052755	NaN	0.000000	0.001541	0.001740	28.0835	0.072823	0.001873	38.8746	-61.7373	-167.484	0.056994	0.696867	-0.361934	-0.363242	-0.052755	38.8746	-0.360916	-36735.2	1.436099E-6	NaN
530	1.000000	0.706188	7.37024e+06	-50589.1	1005.82	-29755.2	0.000000	0.000000	6.707022	-0.119452	NaN	0.000000	0.001571	0.001699	28.0839	0.116755	0.002032	57.4694	136.659	-164.71	-0.106366	0.704910	-0.353921	-0.355199	-0.119452	57.4694	-0.352362	-27622.5	4.324455E-6	NaN
530	1.000000	0.714197	7.37024e+06	-50589.1	1005.82	-29755.2	0.000000	0.000000	6.715036	-0.010346	NaN	0.000000	0.001614	0.001659	28.0835	0.042605	0.001991	21.4036	11.191	-167.243	-0.041939	0.712831	-0.345912	-0.347278	-0.010346	21.4036	-0.345549	-21995.9	4.703397E-7	NaN
530	1.000000	0.722205	7.37024e+06	-50589.1	1005.82	-29755.2	0.000000	0.000000	6.723042	-0.038450	NaN	0.000000	0.001658	0.001658	28.0835	0.091614	0.002022	45.3038	35.5438	-162.079	-0.081733	0.720835	-0.337904	-0.339274	-0.038450	45.3038	-0.337267	-16660.8	2.307790E-6	NaN
530	1.000000	0.730227	7.37024e+06	-50589.1	1005.82	-29755.2	0.000000	0.000000	6.731066	0.018442	NaN	0.000000	0.001673	0.001633	28.0836	0.160417	0.002071	77.4593	-31.7438	-165.018	-0.002096	0.728922	-0.329882	-0.331187	0.018442	77.4593	-0.330060	-13071.8	-1.410851E-6	NaN
530	1.000000	0.738192	7.37024e+06	-50589.1	1005.82	-29755.2	0.000000	0.000000	6.739029	-0.047478	NaN	0.000000	0.001648	0.001642	28.0836	0.031103	0.002001	15.5458	14.5773	-166.863	0.009347	0.736901	-0.321917	-0.323208	-0.047478	15.5458	-0.319626	-9186.16	5.168480E-6	NaN
530	1.000000	0.746201	7.37024e+06	-50589.1	1005.82	-29755.2	0.000000	0.000000	6.747041	0.007389	NaN	0.000000	0.001701	0.001628	28.0836	0.116035	0.001947	59.6102	130.232	-167.169	-0.050476	0.744912	-0.313907	-0.315197	0.007389	59.6102	-0.314000	-7589.09	-9.736958E-7	NaN
530	1.000000	0.754208	7.37024e+06	-50589.1	1005.82	-29755.2	0.000000	0.000000	6.755046	-0.027415	NaN	0.000000	0.001648	0.001642	28.0835	0.134113	0.001964	68.3001	38.1094	-165.903	-0.023013	0.752926	-0.305900	-0.307183	-0.027415	68.3001	-0.305599	-5699.65	4.809978E-6	NaN
530	1.000000	0.762193	7.37024e+06	-50589.1	1005.82	-29755.2	0.000000	0.000000	6.763030	-0.040454	NaN	0.000000	0.001637	0.001644	28.0833	0.024186	0.001890	12.7969	-100.717	-167.725	-0.023221	0.760907	-0.297916	-0.299202	-0.040454	12.7969	-0.295545	-4038.58	1.001687E-5	NaN
530	1.000000	0.770211	7.37024e+06	-50589.1	1005.82	-29755.2	0.000000	0.000000	6.771045	-0.124470	NaN	0.000000	0.001668	0.001641	28.0834	0.103324	0.001897	54.4552	23.3009	-167.028	-0.123416	0.768888	-0.289898	-0.291221	-0.124470	54.4552	-0.288183	-3133.78	3.971885E-5	NaN
530	1.000000	0.778222	7.37024e+06	-50589.1	1005.82	-29755.2	0.000000	0.000000	6.779057	-0.101139	NaN	0.000000	0.001626	0.001655	28.0836	0.039356	0.001929	20.4067	107.298	-165.865	-0.129598	0.776881	-0.281887	-0.283228	-0.101139	20.4067	-0.278170	-2214.83	4.566431E-5	NaN
530	1.000000	0.786227	7.37024e+06	-50589.1	1005.82	-29755.2	0.000000	0.000000	6.787061	-0.108902	NaN	0.000000	0.001590	0.001642	28.0833	0.036696	0.002065	17.7729	-96.3803	-166.841	-0.070109	0.784905	-0.273882	-0.275204	-0.108902	17.7729	-0.269287	-1624.41	6.704087E-5	NaN
530	1.000000	0.794204	7.37024e+06	-50589.1	1005.82	-29755.2	0.000000	0.000000	6.795040	-0.052266	NaN	0.000000	0.001593	0.001624	28.0833	0.062777	0.002088	30.065	-163.072	-168.019	-0.034496	0.792906	-0.265905	-0.267203	-0.052266	30.065	-0.264601	-1378.17	3.792415E-5	NaN
530	1.000000	0.802216	7.37024e+06	-50589.1	1005.82	-29755.2	0.000000	0.000000	6.803051	-0.088235	NaN	0.000000	0.001610	0.001661	28.0824	0.097396	0.002082	46.7702	176.717	-167.521	-0.021348	0.800969	-0.257893	-0.259140	-0.088235	46.7702	-0.256478	-1034.8	8.526812E-5	NaN
530	1.000000	0.810229	7.37024e+06	-50589.1	1005.82	-29755.2	0.000000	0.000000	6.811065	-0.055214	NaN	0.000000	0.001565	0.001657	28.0822	0.019402	0.001931	10.0457	-103.831	-168.288	-0.013801	0.808894	-0.249880	-0.251215	-0.055214	10.0457	-0.245758	-706.688	7.813031E-5	NaN
530	1.000000	0.818231	7.37024e+06	-50589.1	1005.82	-29755.2	0.000000	0.000000	6.819068	-0.040013	NaN	0.000000	0.001583	0.001657	28.0821	0.052835	0.002038	25.928	156.851	-164.955	-0.078346	0.816875	-0.241878	-0.243234	-0.040013	25.928	-0.240721	-589.936	6.782535E-5	NaN
530	1.000000	0.826248	7.37024e+06	-50589.1	1005.82	-29755.2	0.000000	0.000000	6.827085	-0.036781	NaN	0.000000	0.001654	0.001623	28.0822	0.125682	0.001919	65.4854	169.172	-165.525	-0.072825	0.824908	-0.233861	-0.235201	-0.036781	65.4854	-0.233440	-453.661	8.107696E-5	NaN
530	1.000000	0.834238	7.37024e+06	-50589.1	1005.82	-29755.3	0.000000	0.000000	6.835075	-0.054008	NaN	0.000000	0.001627	0.001639	28.0822	0.051215	0.001930	26.532	143.382	-169.309	-0.009733	0.832922	-0.225871	-0.227187	-0.054008	26.532	-0.224344	-325.769	0.000166	NaN
530	1.000000	0.842245	7.37024e+06	-50589.1	1005.82	-29755.2	0.000000	0.000000	6.843083	-0.038226	NaN	0.000000	0.001617	0.001651	28.0824	0.041580	0.001946	21.3642	54.3291	-166.685	-0.027345	0.840961	-0.217863	-0.219148	-0.038226	21.3642	-0.216521	-244.321	0.000156	NaN
530	1.000000	0.850235	7.37024e+06	-50589.1	1005.82	-29755.2	0.000000	0.000000	6.851074	0.001979	NaN	0.000000	0.001609	0.001642	28.0823	0.039387	0.001991	19.7797	-5.960041	-164.893	-0.011690	0.848932	-0.209874	-0.211177	0.001979	19.7797	-0.209949	-191.422	-1.033945E-5	NaN
530	1.000000	0.858236	7.37024e+06	-50589.1	1005.82	-29755.2	0.000000	0.000000	6.859071	-0.081991	NaN	0.000000	0.001639	0.001676	28.0824	0.062429	0.001943	32.1299	28.337	-169.537	7.372010E-5	0.856903	-0.201873	-0.203206	-0.081991	32.1299	-0.199959	-131.53	0.000623	NaN
530	1.000000	0.866275	7.37024e+06	-50589.1	1005.82	-29755.2	0.000000	0.000000	6.867112	-0.036620	NaN	0.000000	0.001621	0.001618	28.0823	0.107989	0.001996	54.0924	-56.8077	-172.31	-0.036373	0.864956	-0.193834	-0.195153	-0.036620	54.0924	-0.193326	-102.196	0.000358	NaN
530	1.000000	0.874244	7.37024e+06	-50589.1	1005.82	-29755.2	0.000000	0.000000	6.875083	0.018019	NaN	0.000000	0.001613	0.001631	28.0823	0.038704	0.002147	18.026	-119.115	-167.069	-0.077732	0.872911	-0.185865	-0.187198	0.018019	18.026	-0.186615	-78.9419	-0.000228	NaN
530	1.000000	0.882254	7.37024e+06	-50589.1	1005.82	-29755.2	0.000000	0.000000	6.883092	-0.015407	NaN	0.000000	0.001581	0.001666	28.0823	0.033056	0.002019	16.374	99.7381	-165.287	-0.001790	0.880935	-0.177855	-0.179174	-0.015407	16.374	-0.177149	-54.5536	0.000282	NaN
530	1.000000	0.890266	7.37024e+06	-50589.1	1005.82	-29755.2	0.000000	0.000000	6.891103	-0.044803	NaN	0.000000	0.001602	0.001679	28.0822	0.102098	0.001985	51.445	-94.3193	-169.795	-0.042298	0.888938	-0.169843	-0.171170	-0.044803	51.445	-0.169190	-39.7674	0.001127	NaN
530	1.000000	0.898273	7.37024e+06	-50589.1	1005.82	-29755.2	0.000000	0.000000	6.899111	-0.026080	NaN	0.000000	0.001600	0.001663	28.0823	0.014177	0.002031	6.979599	153.376	-167.795	-0.010484	0.896897	-0.161836	-0.163212	-0.026080	6.979599	-0.159033	-26.3505	0.000990	NaN
530	1.000000	0.906261	7.37024e+06	-50589.1	1005.82	-29755.2	0.000000	0.000000	6.907097	-0.087652	NaN	0.000000	0.001593	0.001645	28.0824	0.043574	0.002059	21.1648	-100.125	-166.612	-0.087134	0.904983	-0.153848	-0.155126	-0.087652	21.1648	-0.150741	-18.6859	0.004691	NaN
530	1.000000	0.914272	7.37024e+06	-50589.1	1005.82	-29755.2	0.000000	0.000000	6.915110	-0.010923	NaN	0.000000	0.001589	0.001613	28.0826	0.016235	0.001920	8.457822	-134.388	-165.644	-0.088670	0.912946	-0.145837	-0.147163	-0.010923	8.457822	-0.144869	-14.5792	0.000749	NaN
530	1.000000	0.922251	7.37024e+06	-50589.1	1005.82	-29755.2	0.000000	0.000000	6.923087	-0.075092	NaN	0.000000	0.001600	0.001641	28.0823	0.050930	0.001951	26.1042	73.5372	-168.808	-0.073946	0.920919	-0.137857	-0.139190	-0.075092	26.1042	-0.135700	-9.809304	0.007655	NaN
530	1.000000	0.930279	7.37024e+06	-50589.1	1005.82	-29755.2	0.000000	0.000000	6.931117	-0.019411	NaN	0.000000	0.001606	0.001634	28.0822	0.072774	0.001933	37.64	-81.1288	-164.652	-0.048506	0.928905	-0.129830	-0.131204	-0.019411	37.64	-0.129443	-7.433415	0.002611	NaN
530	1.000000	0.938282	7.37024e+06	-50589.1	1005.82	-29755.2	0.000000	0.000000	6.939120	-0.015534	NaN	0.000000	0.001573	0.001672	28.0836	0.077237	0.001928	40.051	0.908488	-166.885	-0.055742	0.936988	-0.121827	-0.123121	-0.015534	40.051	-0.121536	-5.187860	0.002994	NaN
530	1.000000	0.946282	7.37024e+06	-50589.1	1005.82	-29755.2	0.000000	0.000000	6.947120	-0.021987	NaN	0.000000	0.001574	0.001620	28.0834	0.090014	0.002075	43.3733	11.6399	-167.505	-0.051437	0.944955	-0.113827	-0.115154	-0.021987	43.3733	-0.113447	-3.547916	0.006197	NaN
530	1.000000	0.954290	7.37024e+06	-50589.1	1005.82	-29755.2	0.000000	0.000000	6.955129	0.001146	NaN	0.000000	0.001609	0.001642	28.0835	0.033345	0.001925	17.3213	-23.3652	-169.115	-0.030312	0.952996	-0.105819	-0.107113	0.001146	17.3213	-0.105868	-2.454110	-0.000467	NaN
530	1.000000	0.962313	7.37024e+06	-50589.1	1005.82	-29755.2	0.000000	0.000000	6.963150	-0.032204	NaN	0.000000	0.001602	0.001607	28.0835	0.038764	0.002037	19.0317	-174.817	-165.291	-0.079104	0.960924	-0.097796	-0.099185	-0.032204	19.0317	-0.096527	-1.527775	0.021079	NaN
530	1.000000	0.970284	7.37024e+06	-50589.1	1005.82	-29755.2	0.000000	0.000000	6.971120	-0.068436	NaN	0.000000	0.001574	0.001645	28.0838	0.038791	0.002117	18.3252	160.961	-167.664	-0.086739	0.968995	-0.089825	-0.091114	-0.068436	18.3252	-0.087024	-0.919083	0.074461	NaN
530	1.000000	0.978281	7.37024e+06	-50589.1	1005.82	-29755.2	0.000000	0.000000	6.979121	0.014808	NaN	0.000000	0.001565	0.001649	28.0833	0.079903	0.002031	39.3352	139.42	-167.008	-0.011942	0.976970	-0.081828	-0.083139	0.014808	39.3352	-0.082110	-0.698362	-0.021205	NaN
530	1.000000	0.986302	7.37024e+06	-50589.1	1005.82	-29755.2	0.000000	0.000000	6.987138	-0.060058	NaN	0.000000	0.001550	0.001665	28.0833	0.039176	0.001953	20.0574	14.5672	-165.238	-0.071999	0.985010	-0.073807	-0.075099	-0.060058	20.0574	-0.071561	-0.375389	0.159989	NaN
530	1.000000	0.994333	7.37024e+06	-50589.1	1005.82	-29755.2	0.000000	0.000000	6.995170	-0.048839	NaN	0.000000	0.001589	0.001666	28.0834	0.075137	0.002081	36.099	-129.034	-166.43	-0.067855	0.992987	-0.065776	-0.067121	-0.048839	36.099	-0.064761	-0.245439	0.198986	NaN
530	1.000000	1.002304	7.37024e+06	-50589.1	1005.82	-29755.2	0.000000	0.000000	7.003140	-0.062019	NaN	0.000000	0.001646	0.001683	28.0834	0.025873	0.001952	13.2559	-11.8543	-167.211	-0.006937	1.001020	-0.057805	-0.059088	-0.062019	13.2559	-0.054296	-0.122741	0.505284	NaN
530	1.000000	1.010296	7.37024e+06	-50589.1	1005.82	-29755.2	0.000000	0.000000	7.011137	0.046788	NaN	0.000000	0.001614	0.001633	28.0836	0.151255	0.001969	76.8205	-137.019	-167.933	0.041661	1.009003	-0.049813	-0.051106	0.046788	76.8205	-0.050269	-0.092978	-0.503217	NaN
530	1.000000	1.018332	7.37024e+06	-50589.1	1005.82	-29755.2	0.000000	0.000000	7.019169	-0.052551	NaN	0.000000	0.001580	0.001699	28.0833	0.067840	0.002078	32.6496	-1.319400	-165.075	-0.064113	1.017072	-0.041777	-0.043037	-0.052551	32.6496	-0.040569	-0.047061	1.116653	NaN
530	1.000000	1.026293	7.37024e+06	-50589.1	1005.82	-29755.2	0.000000	0.000000	7.027132	0.001015	NaN	0.000000	0.001607	0.001664	28.0833	0.041306	0.002023	20.417	99.4903	-167.013	0.091501	1.025002	-0.033815	-0.035107	0.001015	20.417	-0.033853	-0.029639	-0.034232	NaN
530	1.000000	1.034306	7.37024e+06	-50589.1	1005.82	-29755.2	0.000000	0.000000	7.035144	-0.027508	NaN	0.000000	0.001609	0.001679	28.0832	0.055634	0.001832	30.3661	-43.1273	-170.202	-0.042528	1.032985	-0.025803	-0.027124	-0.027508	30.3661	-0.025123	-0.016996	1.618474	NaN
530	1.000000	1.042296	7.37024e+06	-50589.1	1005.82	-29755.3	0.000000	0.000000	7.043132	-0.066141	NaN	0.000000	0.001615	0.001693	28.0831	0.094373	0.001856	50.8528	160.236	-168.295	-0.022467	1.040958	-0.017813	-0.019151	-0.066141	50.8528	-0.016837	-0.010407	6.355557	NaN
530	1.000000	1.050334	7.37024e+06	-50589.1	1005.82	-29755.2	0.000000	0.000000	7.051170	-0.057923	NaN	0.000000	0.001616	0.001686	28.0833	0.034784	0.001948	17.8515	5.073060	-165.265	0.056477	1.048947	-0.009775	-0.011162	-0.057923	17.8515	-0.007341	-0.004843	11.9588	NaN
530	1.000000	1.058346	7.37024e+06	-50589.1	1005.82	-29755.2	0.000000	0.000000	7.059268	2.027995	NaN	0.000000	0.001615	0.001684	28.0834	2.919042	0.001772	1647.57	3.367801	-167.708	0.969980	1.057013	-0.001763	-0.003095	2.027995	1647.57	-0.002686	-0.001909	-1062.21	NaN
530	2.000000	1.064965	7.37024e+06	-50589.1	1005.82	-29755.2	0.000000	0.000000	7.066143	8.240091	NaN	0.000000	0.001615	0.001698	28.0836	8.467428	0.001709	4953.49	8.364294	-171.248	9.050422	1.064567	0.004857	0.004459	8.240091	4953.49	0.003609	0.002899	2842.5	84056
530	2.000000	1.066942	7.37024e+06	-50589.1	1005.82	-29755.2	0.000000	0.000000	7.068136	8.649183	NaN	0.000000	0.001609	0.001675	28.0819	9.931849	0.001748	5681.82	7.046824	-172.375	8.649905	1.066628	0.006833	0.006519	8.649183	5681.82	0.005691	0.004773	1812.01	75136.8
530	2.000000	1.068909	7.37024e+06	-50589.1	1005.82	-29755.2	0.000000	0.000000	7.070245	12.096	NaN	0.000000	0.001612	0.001669	28.0824	12.2819	0.001827	6722.66	10.3233	-176.029	12.1092	1.068614	0.008800	0.008506	12.096	6722.66	0.007450	0.006483	1865.77	76282
530	2.000000	1.070871	7.37024e+06	-50589.1	1005.82	-29755.2	0.000000	0.000000	7.072378	16.2502	NaN	0.000000	0.001596	0.001697	28.082	14.2354	0.001681	8469.12	11.5926	179.963	16.272	1.070506	0.010762	0.010398	16.2502	8469.12	0.009323	0.008438	1925.72	84232.4
530	2.000000	1.072849	7.37024e+06	-50589.1	1005.82	-29755.2	0.000000	0.000000	7.074462	18.8208	NaN	0.000000	0.001591	0.001652	28.0822	17.1181	0.001832	9343.46	4.387536	-174.104	17.2524	1.072532	0.012740	0.012423	18.8208	9343.46	0.011230	0.010580	1778.88	82991.8
530	2.000000	1.074892	7.37024e+06	-50589.1	1005.82	-29755.2	0.000000	0.000000	7.076671	22.8687	NaN	0.000000	0.001595	0.001699	28.0823	18.8819	0.001838	10271.8	8.497380	-178.441	23.8175	1.074548	0.014783	0.014439	22.8687	10271.8	0.013114	0.012852	1779.44	82783.4
530	2.000000	1.076841	7.37024e+06	-50589.1	1005.82	-29755.2	0.000000	0.000000	7.078823	27.7995	NaN	0.000000	0.001586	0.001678	28.0817	21.0051	0.001766	11892.2	9.084922	179.585	28.4985	1.076539	0.016732	0.016430	27.7995	11892.2	0.014979	0.015257	1822.1	87963.7
530	2.000000	1.078854	7.37024e+06	-50589.1	1005.82	-29755.2	0.000000	0.000000	7.080898	29.3048	NaN	0.000000	0.001560	0.001699	28.0821	23.4483	0.001878	12483.5	5.793150	-178.661	28.4097	1.078544	0.018745	0.018435	29.3048	12483.5	0.016985	0.018024	1625.88	84954.2
530	2.000000	1.080853	7.37024e+06	-50589.1	1005.82	-29755.2	0.000000	0.000000	7.083071	33.5243	NaN	0.000000	0.001550	0.001684	28.0817	25.0763	0.001866	13435.4	10.3944	177.012	34.7101	1.080527	0.020745	0.020418	33.5243	13435.4	0.018873	0.020802	1611.56	85107.6
530	2.000000	1.082793	7.37024e+06	-50589.1	1005.82	-29755.3	0.000000	0.000000	7.085289	40.2996	NaN	0.000000	0.001563	0.001690	28.0819	27.2627	0.001803	15118.1	7.120239	178.152	39.55	1.082497	0.022684	0.022388	40.2996	15118.1	0.020685	0.023630	1705.42	89854.1
530	2.000000	1.084820	7.37024e+06	-50589.1	1005.82	-29755.3	0.000000	0.000000	7.087571	46.4912	NaN	0.000000	0.001590	0.001693	28.0821	29.5571	0.001800	16417.3	6.069416	179.43	44.8419	1.084505	0.024712	0.024396	46.4912	16417.3	0.022588	0.026773	1736.5	91670.1
530	2.000000	1.086813	7.37024e+06	-50589.1	1005.82	-29755.2	0.000000	0.000000	7.089724	50.4094	NaN	0.000000	0.001563	0.001666	28.082	30.6909	0.001852	16576	6.086800	177.987	49.6582	1.086527	0.026704	0.026418	50.4094	16576	0.024423	0.029974	1681.75	87473.8
530	2.000000	1.088796	7.37024e+06	-50589.1	1005.82	-29755.2	0.000000	0.000000	7.091980	57.0304	NaN	0.000000	0.001613	0.001709	28.0824	32.4032	0.001765	18356.1	5.174696	179.016	55.466	1.088408	0.028687	0.028299	57.0304	18356.1	0.026357	0.033531	1700.83	91586.5
530	2.000000	1.090786	7.37024e+06	-50589.1	1005.82	-29755.2	0.000000	0.000000	7.094273	64.3957	NaN	0.000000	0.001597	0.001698	28.0819	33.4599	0.001649	20291.1	4.462569	178.658	64.1984	1.090491	0.030677	0.030382	64.3957	20291.1	0.028297	0.037288	1726.99	96005.5
530	2.000000	1.092761	7.37024e+06	-50589.1	1005.82	-29755.2	0.000000	0.000000	7.096368	67.3189	NaN	0.000000	0.001615	0.001683	28.0821	36.591	0.001828	20013.5	5.856930	177.157	65.717	1.092479	0.032652	0.032370	67.3189	20013.5	0.030129	0.041012	1641.43	90289.9
530	2.000000	1.094772	7.37024e+06	-50589.1	1005.82	-29755.3	0.000000	0.000000	7.098747	76.2495	NaN	0.000000	0.001594	0.001694	28.0819	37.9843	0.001759	21598	6.005399	176.438	73.9415	1.094461	0.034663	0.034352	76.2495	21598	0.032016	0.045025	1693.49	92995
530	2.000000	1.096854	7.37024e+06	-50589.1	1005.82	-29755.3	0.000000	0.000000	7.101129	83.5438	NaN	0.000000	0.001600	0.001642	28.0819	39.3651	0.001661	23700.1	0.740631	-179.165	85.4229	1.096496	0.036745	0.036387	83.5438	23700.1	0.034102	0.049675	1681.81	97152.8
530	2.000000	1.098745	7.37024e+06	-50589.1	1005.82	-29755.3	0.000000	0.000000	7.103253	89.2213	NaN	0.000000	0.001564	0.001674	28.0822	42.3996	0.001936	21899.7	2.269570	179.821	86.9668	1.098557	0.038636	0.038448	89.2213	21899.7	0.035581	0.053107	1680.03	86823.1
530	2.000000	1.100788	7.37024e+06	-50589.1	1005.82	-29755.3	0.000000	0.000000	7.105754	100.366	NaN	0.000000	0.001591	0.001668	28.0831	43.7299	0.001736	25194.5	3.558667	177.071	99.6231	1.100436	0.040679	0.040327	100.366	25194.5	0.037692	0.058199	1724.54	95416.4
530	2.000000	1.102715	7.37024e+06	-50589.1	1005.82	-29755.3	0.000000	0.000000	7.108076	109.959	NaN	0.000000	0.001585	0.001633	28.0836	46.6649	0.001724	27074	6.915841	172.879	104.642	1.102418	0.042606	0.042309	109.959	27074	0.039560	0.062897	1748.23	98630.1
530	2.000000	1.104839	7.37024e+06	-50589.1	1005.82	-29755.2	0.000000	0.000000	7.110442	115.871	NaN	0.000000	0.001653	0.001645	28.083	49.5516	0.001818	27252.5	10.0889	170.844	114.511	1.104368	0.044730	0.044259	115.871	27252.5	0.041541	0.068072	1702.19	95432.3
530	2.000000	1.106790	7.37024e+06	-50589.1	1005.82	-29755.2	0.000000	0.000000	7.112942	129.201	NaN	0.000000	0.001684	0.001674	28.083	50.2808	0.001874	26830.7	5.278053	175.35	129.451	1.106438	0.046681	0.046329	129.201	26830.7	0.043069	0.072201	1789.45	91228.7
530	2.000000	1.108717	7.37024e+06	-50589.1	1005.82	-29755.3	0.000000	0.000000	7.114948	131.128	NaN	0.000000	0.001659	0.001650	28.083	51.7077	0.001759	29394.3	2.340781	176.493	126.938	1.108430	0.048609	0.048321	131.128	29394.3	0.045263	0.078335	1673.92	95952.8
530	2.000000	1.110778	7.37024e+06	-50589.1	1005.82	-29755.3	0.000000	0.000000	7.117562	144.582	NaN	0.000000	0.001624	0.001643	28.0832	52.8306	0.001834	28806.6	7.174801	173.099	142.675	1.110386	0.050669	0.050277	144.582	28806.6	0.046904	0.083086	1740.16	91306.5
530	2.000000	1.112828	7.37024e+06	-50589.1	1005.82	-29755.2	0.000000	0.000000	7.119920	152.063	NaN	0.000000	0.001672	0.001667	28.0839	55.3149	0.001737	31852.4	4.601119	174	153.787	1.112478	0.052719	0.052370	152.063	31852.4	0.049139	0.089770	1693.91	97129.1
530	2.000000	1.114745	7.37024e+06	-50589.1	1005.82	-29755.2	0.000000	0.000000	7.122321	163.829	NaN	0.000000	0.001636	0.001655	28.0831	57.1659	0.001712	33400.3	3.956255	175.269	158.524	1.114445	0.054636	0.054336	163.829	33400.3	0.050958	0.095396	1717.36	98800.5
530	2.000000	1.116835	7.37024e+06	-50589.1	1005.82	-29755.2	0.000000	0.000000	7.124643	169.476	NaN	0.000000	0.001585	0.001658	28.0832	59.7531	0.001844	32395.5	3.917763	175.291	174.062	1.116441	0.056727	0.056332	169.476	32395.5	0.052803	0.101274	1673.44	93005.6
530	2.000000	1.118729	7.37024e+06	-50589.1	1005.82	-29755.2	0.000000	0.000000	7.126917	178.719	NaN	0.000000	0.001559	0.001645	28.0833	62.3451	0.001900	32812.9	6.120361	172.084	175.872	1.118461	0.058620	0.058352	178.719	32812.9	0.054535	0.106946	1671.12	91671.8
530	2.000000	1.120758	7.37024e+06	-50589.1	1005.82	-29755.2	0.000000	0.000000	7.129530	192.925	NaN	0.000000	0.001566	0.001654	28.0834	61.708	0.001724	35785.4	-1.380616	179.126	191.434	1.120481	0.060649	0.060372	192.925	35785.4	0.056605	0.113918	1693.54	96868.8
530	2.000000	1.122661	7.37024e+06	-50589.1	1005.82	-29755.2	0.000000	0.000000	7.131591	196.756	NaN	0.000000	0.001553	0.001653	28.0836	64.8528	0.001831	35416.9	4.271910	174.315	190.737	1.122363	0.062553	0.062254	196.756	35416.9	0.058386	0.120084	1638.48	93377.1
530	2.000000	1.124771	7.37024e+06	-50589.1	1005.82	-29755.2	0.000000	0.000000	7.134310	211.564	NaN	0.000000	0.001597	0.001641	28.0832	66.4982	0.001784	37278.4	4.939181	173.653	210.828	1.124414	0.064663	0.064305	211.564	37278.4	0.060406	0.127269	1662.34	95470.5
530	2.000000	1.126697	7.37024e+06	-50589.1	1005.82	-29755.2	0.000000	0.000000	7.137001	230.173	NaN	0.000000	0.001587	0.001655	28.0834	67.5585	0.001793	37687.1	2.631648	175.717	226.459	1.126274	0.066588	0.066165	230.173	37687.1	0.062008	0.133106	1729.25	94377.3
530	2.000000	1.128755	7.37024e+06	-50589.1	1005.82	-29755.2	0.000000	0.000000	7.139378	237.932	NaN	0.000000	0.001594	0.001676	28.0834	71.0362	0.001817	39098.6	5.083870	171.939	235.42	1.128412	0.068646	0.068303	237.932	39098.6	0.064082	0.140852	1689.23	95181.7
530	2.000000	1.130750	7.37024e+06	-50589.1	1005.82	-29755.2	0.000000	0.000000	7.141594	243.305	NaN	0.000000	0.001565	0.001652	28.0834	71.4203	0.001799	39706.1	3.876390	172.968	241.572	1.130547	0.070642	0.070438	243.305	39706.1	0.066046	0.148376	1639.78	94177.8
530	2.000000	1.132759	7.37024e+06	-50589.1	1005.82	-29755.2	0.000000	0.000000	7.144409	262.903	NaN	0.000000	0.001608	0.001667	28.0836	73.4339	0.001716	42793.2	3.250745	173.52	263.07	1.132371	0.072650	0.072262	262.903	42793.2	0.068043	0.156217	1682.94	98919.8
530	2.000000	1.134717	7.37024e+06	-50589.1	1005.82	-29755.2	0.000000	0.000000	7.146776	272.855	NaN	0.000000	0.001601	0.001645	28.0821	75.412	0.001753	43014.3	3.535353	173.634	269.105	1.134467	0.074608	0.074358	272.855	43014.3	0.069851	0.163481	1669.03	97196.7
530	2.000000	1.136748	7.37024e+06	-50589.1	1005.82	-29755.2	0.000000	0.000000	7.149282	284.402	NaN	0.000000	0.001609	0.001694	28.0823	77.8619	0.001879	41440.5	2.789039	174.267	285.169	1.136431	0.076640	0.076322	284.402	41440.5	0.071492	0.170212	1670.87	91770.5
530	2.000000	1.138804	7.37024e+06	-50589.1	1005.82	-29755.2	0.000000	0.000000	7.151890	297.834	NaN	0.000000	0.001593	0.001679	28.0818	80.0305	0.001698	47135.9	6.814066	169.575	301.266	1.138393	0.078695	0.078285	297.834	47135.9	0.073956	0.180552	1649.57	101350
530	2.000000	1.140808	7.37024e+06	-50589.1	1005.82	-29755.2	0.000000	0.000000	7.154590	314.763	NaN	0.000000	0.001595	0.001639	28.0823	80.1244	0.001760	45516.1	6.538081	170.573	315.874	1.140407	0.080699	0.080298	314.763	45516.1	0.075513	0.187233	1681.13	96105.3
530	2.000000	1.142580	7.37024e+06	-50589.1	1005.82	-29755.2	0.000000	0.000000	7.156575	319.939	NaN	0.000000	0.001601	0.001672	28.0822	83.8015	0.001747	47967.8	4.911221	170.734	311.95	1.142436	0.082471	0.082328	319.939	47967.8	0.077469	0.195789	1634.1	99044.2
530	2.000000	1.144792	7.37024e+06	-50589.1	1005.82	-29755.2	0.000000	0.000000	7.159460	336.3	NaN	0.000000	0.001588	0.001647	28.0823	84.5549	0.001809	46748.4	4.244458	172.711	334.3	1.144379	0.084684	0.084271	336.3	46748.4	0.079288	0.203910	1649.26	94584.7
530	2.000000	1.146789	7.37024e+06	-50589.1	1005.82	-29755.2	0.000000	0.000000	7.161765	343.781	NaN	0.000000	0.001612	0.001637	28.0828	87.6314	0.001782	49165.9	7.124657	168.391	347.042	1.146366	0.086680	0.086258	343.781	49165.9	0.081436	0.213693	1608.76	97172.2
530	2.000000	1.148658	7.37024e+06	-50589.1	1005.82	-29755.3	0.000000	0.000000	7.164730	370.45	NaN	0.000000	0.001580	0.001699	28.0823	88.7378	0.001710	51882.1	3.398017	171.563	367.111	1.148373	0.088549	0.088264	370.45	51882.1	0.083194	0.221860	1669.74	100635
530	2.000000	1.150649	7.37024e+06	-50589.1	1005.82	-29755.2	0.000000	0.000000	7.167461	388.425	NaN	0.000000	0.001620	0.001653	28.0826	90.7559	0.001778	51046.9	8.543737	166.919	383.05	1.150245	0.090541	0.090136	388.425	51046.9	0.084834	0.229609	1691.68	97330.4
530	2.000000	1.152699	7.37024e+06	-50589.1	1005.82	-29755.2	0.000000	0.000000	7.169908	398.078	NaN	0.000000	0.001608	0.001662	28.0824	93.1318	0.001836	50733.7	7.544938	167.963	395.903	1.152373	0.092590	0.092264	398.078	50733.7	0.086705	0.238604	1668.36	94892.3
530	2.000000	1.154667	7.37024e+06	-50589.1	1005.82	-29755.3	0.000000	0.000000	7.172481	412.81	NaN	0.000000	0.001591	0.001625	28.0823	94.9454	0.001795	52892.8	5.300810	170.412	407.428	1.154344	0.094558	0.094235	412.81	52892.8	0.088704	0.248389	1661.95	96962.4
530	2.000000	1.156658	7.37024e+06	-50589.1	1005.82	-29755.2	0.000000	0.000000	7.174960	424.66	NaN	0.000000	0.001534	0.001672	28.0825	95.9965	0.001818	52814.1	6.100426	169.227	420.167	1.156306	0.096549	0.096197	424.66	52814.1	0.090519	0.257431	1649.61	95102.8
530	2.000000	1.158783	7.37024e+06	-50589.1	1005.82	-29755.3	0.000000	0.000000	7.177414	432.691	NaN	0.000000	0.001551	0.001667	28.0824	98.3445	0.001729	56867	4.328777	170.501	434.854	1.158487	0.098674	0.098379	432.691	56867	0.092967	0.269868	1603.35	100013
530	2.000000	1.160816	7.37024e+06	-50589.1	1005.82	-29755.2	0.000000	0.000000	7.180086	448.226	NaN	0.000000	0.001614	0.001683	28.0826	99.6741	0.001852	53812.9	6.782046	168.867	454.865	1.160425	0.100707	0.100316	448.226	53812.9	0.094460	0.277585	1614.73	93317.1
530	2.000000	1.162792	7.37024e+06	-50589.1	1005.82	-29755.2	0.000000	0.000000	7.182857	467.547	NaN	0.000000	0.001586	0.001691	28.0824	103.094	0.001904	54159.4	7.603654	167.843	471.294	1.162316	0.102683	0.102207	467.547	54159.4	0.096209	0.286757	1630.47	92403.8