File: remote_trans/data/nanoindenter/0828-1/data/Data_2025-08-06,11h17m57s/2025-07-22_16-23-58_1_1049.txt
2025-07-22, 16:23:58, 1
Index	Phase	Displacement	Time	Pos X	Pos Y	Pos Z	Rot A	Rot B	Piezo Z	Force A	Force B	Gripper	Voltage A	Voltage B	Temperature	Amplitude force	Amplitude pos	Stiffness	Phase shift	Phase excitation	Force A raw	Displacement raw	HMax	HMax raw	Real Force	Real Stiffness	Contact Depth	Area	Hardness	Reduced Mod.
[#]	[#]	[um]	[s]	[um]	[um]	[um]	[m°]	[m°]	[um]	[uN]	[uN]	[V]	[V]	[V]	[°C]	[uN]	[um]	[N/m]	[°]	[°]	[uN]	[um]	[um]	[um]	[uN]	[N/m]	[um]	[um^2]	[MPa]	[MPa]
1049	1.000000	0.002376	7.3753e+06	-52589.1	1055.82	-29748.7	0.000000	0.000000	6.002778	-0.045294	NaN	0.000000	0.001591	0.001773	28.083	0.063566	0.000985	64.5106	93.9695	-166.159	-0.047458	0.001143	-1.077403	-1.078635	-0.045294	64.5106	-1.076876	-2.452234E+14	1.847066E-16	NaN
1049	1.000000	0.012466	7.3753e+06	-52589.1	1055.82	-29748.7	0.000000	0.000000	6.012870	-0.000616	NaN	0.000000	0.001605	0.001772	28.083	0.084780	0.001307	64.8419	-129.416	19.4496	0.092780	0.011006	-1.067313	-1.068773	-0.000616	64.8419	-1.067306	-1.823849E+14	3.375849E-18	NaN
1049	1.000000	0.022363	7.3753e+06	-52589.1	1055.82	-29748.7	0.000000	0.000000	6.022767	0.014371	NaN	0.000000	0.001637	0.001788	28.0834	0.062502	0.001686	37.0817	-124.807	-165.108	0.003506	0.021003	-1.057416	-1.058775	0.014371	37.0817	-1.057706	-1.355183E+14	-1.060477E-16	NaN
1049	1.000000	0.032334	7.37531e+06	-52589.1	1055.82	-29748.7	0.000000	0.000000	6.032739	0.010820	NaN	0.000000	0.001637	0.001755	28.0831	0.045316	0.001873	24.1923	138.919	11.3187	-0.040386	0.030973	-1.047444	-1.048806	0.010820	24.1923	-1.047780	-9.967081E+13	-1.085588E-16	NaN
1049	1.000000	0.042350	7.37531e+06	-52589.1	1055.82	-29748.7	0.000000	0.000000	6.042756	0.060635	NaN	0.000000	0.001637	0.001764	28.0831	0.051023	0.002003	25.4759	-101.849	-165.784	-0.015501	0.041054	-1.037429	-1.038725	0.060635	25.4759	-1.039214	-7.645398E+13	-7.930972E-16	NaN
1049	1.000000	0.052328	7.37531e+06	-52589.1	1055.82	-29748.7	0.000000	0.000000	6.052730	-0.043130	NaN	0.000000	0.001575	0.001791	28.0832	0.032168	0.001923	16.7296	13.1028	13.1679	0.000961	0.050975	-1.027451	-1.028804	-0.043130	16.7296	-1.025517	-5.002399E+13	8.621923E-16	NaN
1049	1.000000	0.062347	7.37531e+06	-52589.1	1055.82	-29748.7	0.000000	0.000000	6.062747	-0.085885	NaN	0.000000	0.001585	0.001767	28.0836	0.047961	0.002019	23.751	-12.9004	-163.972	-0.072919	0.061021	-1.017432	-1.018758	-0.085885	23.751	-1.014720	-3.580127E+13	2.398944E-15	NaN
1049	1.000000	0.072334	7.37531e+06	-52589.1	1055.82	-29748.7	0.000000	0.000000	6.072738	0.007969	NaN	0.000000	0.001641	0.001765	28.0834	0.054342	0.001863	29.1672	-141.869	12.883	0.005184	0.070993	-1.007444	-1.008786	0.007969	29.1672	-1.007649	-2.875702E+13	-2.771181E-16	NaN
1049	1.000000	0.082368	7.37531e+06	-52589.1	1055.82	-29748.7	0.000000	0.000000	6.082772	0.007050	NaN	0.000000	0.001634	0.001754	28.0833	0.105805	0.002141	49.4092	-43.2438	-165.441	-0.058958	0.081081	-0.997411	-0.998698	0.007050	49.4092	-0.997518	-2.100630E+13	-3.356123E-16	NaN
1049	1.000000	0.092356	7.37531e+06	-52589.1	1055.82	-29748.7	0.000000	0.000000	6.092759	-0.028325	NaN	0.000000	0.001651	0.001737	28.0832	0.053358	0.002089	25.5393	57.3089	15.5759	-0.090726	0.091008	-0.987422	-0.988770	-0.028325	25.5393	-0.986590	-1.496888E+13	1.892227E-15	NaN
1049	1.000000	0.102360	7.37531e+06	-52589.1	1055.82	-29748.7	0.000000	0.000000	6.102764	-0.000915	NaN	0.000000	0.001665	0.001690	28.0828	0.002853	0.001953	1.461140	89.5524	-168.001	0.019246	0.101079	-0.977419	-0.978699	-0.000915	1.461140	-0.976949	-1.109955E+13	8.241370E-17	NaN
1049	1.000000	0.112363	7.37531e+06	-52589.1	1055.82	-29748.7	0.000000	0.000000	6.112766	-0.004609	NaN	0.000000	0.001664	0.001723	28.082	0.056020	0.001907	29.3797	22.8809	11.3708	-0.092574	0.110960	-0.967416	-0.968819	-0.004609	29.3797	-0.967298	-8.227150E+12	5.602196E-16	NaN
1049	1.000000	0.122357	7.37531e+06	-52589.1	1055.82	-29748.7	0.000000	0.000000	6.122761	-0.007364	NaN	0.000000	0.001664	0.001720	28.082	0.109225	0.002049	53.3121	-167.157	-166.629	0.054201	0.121071	-0.957422	-0.958708	-0.007364	53.3121	-0.957318	-6.035456E+12	1.220117E-15	NaN
1049	1.000000	0.132411	7.37531e+06	-52589.1	1055.82	-29748.7	0.000000	0.000000	6.132817	0.034246	NaN	0.000000	0.001679	0.001748	28.082	0.034560	0.001947	17.7494	139.965	13.4904	0.019035	0.131001	-0.947367	-0.948778	0.034246	17.7494	-0.948814	-4.634874E+12	-7.388759E-15	NaN
1049	1.000000	0.142363	7.37531e+06	-52589.1	1055.82	-29748.7	0.000000	0.000000	6.142768	0.029596	NaN	0.000000	0.001647	0.001755	28.082	0.055905	0.001981	28.2187	126.04	-165.205	-0.006115	0.141089	-0.937415	-0.938689	0.029596	28.2187	-0.938202	-3.333327E+12	-8.878733E-15	NaN
1049	1.000000	0.152366	7.37531e+06	-52589.1	1055.82	-29748.7	0.000000	0.000000	6.152770	0.005202	NaN	0.000000	0.001635	0.001736	28.0818	0.101219	0.001913	52.9108	153.883	13.0526	0.006578	0.151012	-0.927413	-0.928767	0.005202	52.9108	-0.927486	-2.389303E+12	-2.177225E-15	NaN
1049	1.000000	0.162409	7.37531e+06	-52589.1	1055.82	-29748.7	0.000000	0.000000	6.162815	0.045941	NaN	0.000000	0.001691	0.001775	28.0822	0.063463	0.002038	31.1324	-119.288	-168.856	0.043266	0.161110	-0.917369	-0.918668	0.045941	31.1324	-0.918476	-1.805633E+12	-2.544314E-14	NaN
1049	1.000000	0.172387	7.37531e+06	-52589.1	1055.82	-29748.7	0.000000	0.000000	6.172788	-0.082942	NaN	0.000000	0.001625	0.001775	28.082	0.140138	0.002027	69.1214	119.248	15.8051	-0.087938	0.171064	-0.907392	-0.908715	-0.082942	69.1214	-0.906492	-1.243861E+12	6.668100E-14	NaN
1049	1.000000	0.182381	7.37531e+06	-52589.1	1055.82	-29748.7	0.000000	0.000000	6.182785	-0.007406	NaN	0.000000	0.001693	0.001737	28.0822	0.077631	0.001993	38.9502	120.914	-166.672	-0.006400	0.181137	-0.897398	-0.898642	-0.007406	38.9502	-0.897255	-9.331941E+11	7.935809E-15	NaN
1049	1.000000	0.192383	7.37531e+06	-52589.1	1055.82	-29748.7	0.000000	0.000000	6.192788	0.024748	NaN	0.000000	0.001662	0.001757	28.0818	0.019437	0.002126	9.143758	120.592	10.7504	0.025247	0.191095	-0.887396	-0.888684	0.024748	9.143758	-0.889426	-7.313979E+11	-3.383636E-14	NaN
1049	1.000000	0.202403	7.37531e+06	-52589.1	1055.82	-29748.7	0.000000	0.000000	6.202805	-0.047221	NaN	0.000000	0.001629	0.001745	28.0819	0.093446	0.001997	46.782	142.924	-166.56	-0.096118	0.201125	-0.877375	-0.878654	-0.047221	46.782	-0.876618	-4.908752E+11	9.619786E-14	NaN
1049	1.000000	0.212402	7.37531e+06	-52589.1	1055.82	-29748.7	0.000000	0.000000	6.212805	-0.019250	NaN	0.000000	0.001646	0.001758	28.0819	0.068607	0.001974	34.7577	26.9855	15.6574	-0.030264	0.211070	-0.867376	-0.868709	-0.019250	34.7577	-0.866961	-3.633513E+11	5.297858E-14	NaN
1049	1.000000	0.222446	7.37531e+06	-52589.1	1055.82	-29748.7	0.000000	0.000000	6.222845	-0.119692	NaN	0.000000	0.001643	0.001719	28.0827	0.044639	0.001968	22.6792	110.831	-169.282	-0.096617	0.221106	-0.857333	-0.858672	-0.119692	22.6792	-0.853374	-2.379183E+11	5.030807E-13	NaN
1049	1.000000	0.232398	7.37531e+06	-52589.1	1055.82	-29748.7	0.000000	0.000000	6.232802	-0.011967	NaN	0.000000	0.001639	0.001721	28.0819	0.145411	0.001944	74.7843	13.7383	10.5643	0.009161	0.230991	-0.847380	-0.848788	-0.011967	74.7843	-0.847260	-1.966240E+11	6.086454E-14	NaN
1049	1.000000	0.242431	7.37531e+06	-52589.1	1055.82	-29748.7	0.000000	0.000000	6.242832	-0.094113	NaN	0.000000	0.001685	0.001666	28.0836	0.093064	0.002046	45.4842	-111.684	-162.924	-0.041571	0.241093	-0.837347	-0.838686	-0.094113	45.4842	-0.835795	-1.375067E+11	6.844214E-13	NaN
1049	1.000000	0.252426	7.37531e+06	-52589.1	1055.82	-29748.7	0.000000	0.000000	6.252828	-0.037811	NaN	0.000000	0.001651	0.001731	28.0832	0.153577	0.001939	79.2186	53.8225	10.0418	-0.094891	0.251078	-0.827353	-0.828700	-0.037811	79.2186	-0.826995	-1.044836E+11	3.618871E-13	NaN
1049	1.000000	0.262419	7.37531e+06	-52589.1	1055.82	-29748.7	0.000000	0.000000	6.262820	-0.073766	NaN	0.000000	0.001647	0.001755	28.0833	0.028020	0.002040	13.7369	-123.27	-169.238	-0.096322	0.261131	-0.817360	-0.818648	-0.073766	13.7369	-0.813333	-6.819954E+10	1.081619E-12	NaN
1049	1.000000	0.272426	7.37531e+06	-52589.1	1055.82	-29748.7	0.000000	0.000000	6.272827	-0.051261	NaN	0.000000	0.001678	0.001769	28.083	0.061494	0.001915	32.1071	-35.398	13.9149	-0.052474	0.271073	-0.807353	-0.808705	-0.051261	32.1071	-0.806156	-5.450141E+10	9.405380E-13	NaN
1049	1.000000	0.282452	7.37531e+06	-52589.1	1055.82	-29748.7	0.000000	0.000000	6.282856	0.001101	NaN	0.000000	0.001648	0.001752	28.0836	0.037714	0.002016	18.7071	43.0896	-165.911	-0.006505	0.281150	-0.797327	-0.798629	0.001101	18.7071	-0.797371	-4.141637E+10	-2.658217E-14	NaN
1049	1.000000	0.292436	7.37531e+06	-52589.1	1055.82	-29748.7	0.000000	0.000000	6.292839	-0.015753	NaN	0.000000	0.001687	0.001757	28.0834	0.031146	0.001983	15.7092	-85.0883	18.2255	0.029342	0.291058	-0.787343	-0.788720	-0.015753	15.7092	-0.786591	-2.956510E+10	5.328283E-13	NaN
1049	1.000000	0.302440	7.37531e+06	-52589.1	1055.82	-29748.7	0.000000	0.000000	6.302845	0.026497	NaN	0.000000	0.001639	0.001734	28.0834	0.042933	0.001907	22.5081	161.826	-167.345	0.060338	0.301147	-0.777338	-0.778632	0.026497	22.5081	-0.778221	-2.275406E+10	-1.164499E-12	NaN
1049	1.000000	0.312449	7.37531e+06	-52589.1	1055.82	-29748.7	0.000000	0.000000	6.312851	-0.033348	NaN	0.000000	0.001667	0.001744	28.0833	0.079633	0.002099	37.9329	-84.4836	12.9958	-0.031981	0.311150	-0.767330	-0.768629	-0.033348	37.9329	-0.766671	-1.585023E+10	2.103915E-12	NaN
1049	1.000000	0.322447	7.37531e+06	-52589.1	1055.82	-29748.7	0.000000	0.000000	6.322848	-0.058173	NaN	0.000000	0.001665	0.001734	28.0834	0.055344	0.001926	28.7351	53.9734	-162.588	-0.038895	0.321171	-0.757332	-0.758607	-0.058173	28.7351	-0.755813	-1.128081E+10	5.156844E-12	NaN
1049	1.000000	0.332466	7.37531e+06	-52589.1	1055.82	-29748.7	0.000000	0.000000	6.332871	0.019845	NaN	0.000000	0.001647	0.001720	28.0833	0.098760	0.001958	50.4346	115.513	12.9321	0.017280	0.331115	-0.747312	-0.748663	0.019845	50.4346	-0.747608	-8.722696E+9	-2.275054E-12	NaN
1049	1.000000	0.342482	7.37531e+06	-52589.1	1055.82	-29748.7	0.000000	0.000000	6.342882	-0.097533	NaN	0.000000	0.001653	0.001719	28.0831	0.052243	0.001934	27.0185	64.7206	-165.264	-0.141273	0.341131	-0.737296	-0.738648	-0.097533	27.0185	-0.734589	-5.798829E+9	1.681950E-11	NaN
1049	1.000000	0.352466	7.37531e+06	-52589.1	1055.82	-29748.7	0.000000	0.000000	6.352870	-0.014118	NaN	0.000000	0.001709	0.001701	28.0833	0.021245	0.002296	9.254353	107.023	11.0638	-0.024991	0.351088	-0.727312	-0.728690	-0.014118	9.254353	-0.726168	-4.452238E+9	3.170935E-12	NaN
1049	1.000000	0.362481	7.37531e+06	-52589.1	1055.82	-29748.7	0.000000	0.000000	6.362882	-0.050891	NaN	0.000000	0.001696	0.001751	28.0832	0.015676	0.001889	8.299787	24.6229	-164.118	-0.036847	0.361141	-0.717298	-0.718638	-0.050891	8.299787	-0.712699	-2.916650E+9	1.744840E-11	NaN
1049	1.000000	0.372461	7.37531e+06	-52589.1	1055.82	-29748.7	0.000000	0.000000	6.372862	-0.063842	NaN	0.000000	0.001659	0.001713	28.0832	0.125877	0.001883	66.8326	-3.134984	15.1968	-0.108050	0.371105	-0.707318	-0.708674	-0.063842	66.8326	-0.706602	-2.408052E+9	2.651168E-11	NaN
1049	1.000000	0.382489	7.37531e+06	-52589.1	1055.82	-29748.7	0.000000	0.000000	6.382892	-0.020136	NaN	0.000000	0.001665	0.001747	28.0821	0.167849	0.002002	83.8313	42.5969	-164.369	-0.024580	0.381155	-0.697290	-0.698624	-0.020136	83.8313	-0.697110	-1.786727E+9	1.126992E-11	NaN
1049	1.000000	0.392485	7.37531e+06	-52589.1	1055.82	-29748.7	0.000000	0.000000	6.392889	-0.002757	NaN	0.000000	0.001664	0.001699	28.0823	0.014859	0.001876	7.920534	-27.3295	14.9794	0.026456	0.391127	-0.687293	-0.688652	-0.002757	7.920534	-0.687032	-1.301240E+9	2.119117E-12	NaN
1049	1.000000	0.402481	7.37531e+06	-52589.1	1055.82	-29748.7	0.000000	0.000000	6.402883	-0.030959	NaN	0.000000	0.001602	0.001711	28.0819	0.048618	0.002128	22.8485	53.2521	-163.879	-0.000372	0.401213	-0.677298	-0.678566	-0.030959	22.8485	-0.676282	-9.275640E+8	3.337635E-11	NaN
1049	1.000000	0.412478	7.37531e+06	-52589.1	1055.82	-29748.7	0.000000	0.000000	6.412882	0.022004	NaN	0.000000	0.001640	0.001725	28.0819	0.146154	0.002138	68.3685	-174.624	11.2902	-0.056310	0.411170	-0.667301	-0.668608	0.022004	68.3685	-0.667542	-7.042907E+8	-3.124306E-11	NaN
1049	1.000000	0.422509	7.37531e+06	-52589.1	1055.82	-29748.7	0.000000	0.000000	6.422911	-0.039634	NaN	0.000000	0.001660	0.001716	28.082	0.025959	0.002001	12.9758	74.2549	-163.393	-0.073770	0.421214	-0.657270	-0.658565	-0.039634	12.9758	-0.654979	-4.738889E+8	8.363491E-11	NaN
1049	1.000000	0.432535	7.37531e+06	-52589.1	1055.82	-29748.7	0.000000	0.000000	6.432940	0.029278	NaN	0.000000	0.001641	0.001736	28.0822	0.124191	0.001964	63.2227	45.1317	13.6576	0.039653	0.431116	-0.647243	-0.648662	0.029278	63.2227	-0.647591	-3.753225E+8	-7.800757E-11	NaN
1049	1.000000	0.442515	7.37531e+06	-52589.1	1055.82	-29748.7	0.000000	0.000000	6.442917	-0.064211	NaN	0.000000	0.001622	0.001750	28.082	0.072739	0.002063	35.2536	-146.542	-166.672	-0.114449	0.441217	-0.637263	-0.638562	-0.064211	35.2536	-0.635897	-2.594100E+8	2.475261E-10	NaN
1049	1.000000	0.452534	7.37531e+06	-52589.1	1055.82	-29748.7	0.000000	0.000000	6.452937	-0.017483	NaN	0.000000	0.001666	0.001713	28.082	0.094107	0.002098	44.8515	113.884	13.4202	0.058997	0.451164	-0.627245	-0.628614	-0.017483	44.8515	-0.626952	-1.955076E+8	8.942155E-11	NaN
1049	1.000000	0.462500	7.37531e+06	-52589.1	1055.82	-29748.7	0.000000	0.000000	6.462900	-0.094372	NaN	0.000000	0.001601	0.001711	28.0823	0.059157	0.001882	31.4299	-69.2313	-163.747	-0.055015	0.461188	-0.617279	-0.618591	-0.094372	31.4299	-0.615027	-1.340490E+8	7.040081E-10	NaN
1049	1.000000	0.472504	7.37531e+06	-52589.1	1055.82	-29748.7	0.000000	0.000000	6.472908	0.012886	NaN	0.000000	0.001633	0.001732	28.0821	0.096272	0.002048	47.0094	-10.8578	15.103	-0.057359	0.471116	-0.607275	-0.608662	0.012886	47.0094	-0.607480	-1.055459E+8	-1.220938E-10	NaN
1049	1.000000	0.482517	7.37531e+06	-52589.1	1055.82	-29748.7	0.000000	0.000000	6.482918	-0.084891	NaN	0.000000	0.001614	0.001783	28.0821	0.056354	0.002059	27.3692	-127.078	-165.128	-0.021611	0.481244	-0.597261	-0.598534	-0.084891	27.3692	-0.594935	-7.090680E+7	1.197217E-9	NaN
1049	1.000000	0.492547	7.37531e+06	-52589.1	1055.82	-29748.7	0.000000	0.000000	6.492950	-0.027743	NaN	0.000000	0.001674	0.001746	28.082	0.036530	0.001946	18.775	-26.0012	14.8221	0.005509	0.491199	-0.587231	-0.588580	-0.027743	18.775	-0.586123	-5.360517E+7	5.175498E-10	NaN
1049	1.000000	0.502568	7.37531e+06	-52589.1	1055.82	-29748.7	0.000000	0.000000	6.502972	0.019321	NaN	0.000000	0.001713	0.001749	28.0821	0.129289	0.002025	63.8326	56.6588	-165.976	0.030038	0.501199	-0.577211	-0.578580	0.019321	63.8326	-0.577438	-4.067814E+7	-4.749819E-10	NaN
1049	1.000000	0.512525	7.37531e+06	-52589.1	1055.82	-29748.7	0.000000	0.000000	6.512926	-0.062973	NaN	0.000000	0.001721	0.001691	28.0828	0.039917	0.001980	20.1574	102.219	16.8835	-0.089105	0.511180	-0.567254	-0.568598	-0.062973	20.1574	-0.564911	-2.730822E+7	2.306017E-9	NaN
1049	1.000000	0.522546	7.37531e+06	-52589.1	1055.82	-29748.7	0.000000	0.000000	6.522949	-0.018290	NaN	0.000000	0.001709	0.001755	28.0832	0.082068	0.002042	40.1803	176.216	-167.554	-0.006936	0.521287	-0.557233	-0.558492	-0.018290	40.1803	-0.556892	-2.115283E+7	8.646368E-10	NaN
1049	1.000000	0.532544	7.37531e+06	-52589.1	1055.82	-29748.7	0.000000	0.000000	6.532948	0.003816	NaN	0.000000	0.001736	0.001737	28.0834	0.010330	0.001973	5.236993	85.7602	12.1772	0.036688	0.531182	-0.547234	-0.548596	0.003816	5.236993	-0.547781	-1.582033E+7	-2.412022E-10	NaN
1049	1.000000	0.542557	7.37531e+06	-52589.1	1055.82	-29748.7	0.000000	0.000000	6.542957	-0.100985	NaN	0.000000	0.001733	0.001719	28.083	0.073798	0.001970	37.4599	147.536	-164.694	-0.102326	0.541222	-0.537221	-0.538556	-0.100985	37.4599	-0.535200	-1.058670E+7	9.538866E-9	NaN
1049	1.000000	0.552581	7.37531e+06	-52589.1	1055.82	-29748.7	0.000000	0.000000	6.552984	-0.006603	NaN	0.000000	0.001759	0.001717	28.0831	0.070206	0.001956	35.8918	129.259	15.4221	0.033045	0.551223	-0.527198	-0.528556	-0.006603	35.8918	-0.527060	-8.16088e+06	8.090688E-10	NaN
1049	1.000000	0.562544	7.37531e+06	-52589.1	1055.82	-29748.7	0.000000	0.000000	6.562948	0.003619	NaN	0.000000	0.001738	0.001721	28.0831	0.069335	0.002053	33.7777	81.5757	-164.1	0.022604	0.561265	-0.517235	-0.518513	0.003619	33.7777	-0.517315	-5.97382e+06	-6.057432E-10	NaN
1049	1.000000	0.572543	7.37531e+06	-52589.1	1055.82	-29748.7	0.000000	0.000000	6.572946	-0.029793	NaN	0.000000	0.001707	0.001716	28.0835	0.162052	0.002110	76.8019	-49.8794	12.9927	-0.014664	0.571213	-0.507236	-0.508566	-0.029793	76.8019	-0.506945	-4.28401e+06	6.954522E-9	NaN
1049	1.000000	0.582545	7.37531e+06	-52589.1	1055.82	-29748.7	0.000000	0.000000	6.582948	-0.027328	NaN	0.000000	0.001732	0.001707	28.0831	0.040140	0.001835	21.8762	102.319	-164.943	-0.038070	0.581250	-0.497234	-0.498529	-0.027328	21.8762	-0.496297	-3.04326e+06	8.979727E-9	NaN
1049	1.000000	0.592622	7.37531e+06	-52589.1	1055.82	-29748.7	0.000000	0.000000	6.593023	-0.067353	NaN	0.000000	0.001639	0.001733	28.0832	0.079541	0.002066	38.4973	-38.1488	12.892	0.042213	0.591217	-0.487157	-0.488562	-0.067353	38.4973	-0.485845	-2.17424e+06	3.097777E-8	NaN
1049	1.000000	0.602574	7.37531e+06	-52589.1	1055.82	-29748.7	0.000000	0.000000	6.602973	-0.117565	NaN	0.000000	0.001659	0.001741	28.0832	0.115653	0.001862	62.1251	-130.419	-162.559	-0.174988	0.601251	-0.477204	-0.478528	-0.117565	62.1251	-0.475785	-1.57216e+06	7.477915E-8	NaN
1049	1.000000	0.612616	7.37531e+06	-52589.1	1055.82	-29748.7	0.000000	0.000000	6.613020	0.009856	NaN	0.000000	0.001636	0.001723	28.0832	0.047159	0.001923	24.5232	0.878618	15.9313	0.024468	0.611184	-0.467163	-0.468594	0.009856	24.5232	-0.467464	-1.20181e+06	-8.200978E-9	NaN
1049	1.000000	0.622593	7.37531e+06	-52589.1	1055.82	-29748.7	0.000000	0.000000	6.622996	-0.021185	NaN	0.000000	0.001594	0.001738	28.0831	0.042672	0.002141	19.9352	103.243	-163.514	-0.012849	0.621284	-0.457186	-0.458495	-0.021185	19.9352	-0.456389	-839951	2.522140E-8	NaN
1049	1.000000	0.632594	7.37531e+06	-52589.1	1055.82	-29748.7	0.000000	0.000000	6.632999	0.026199	NaN	0.000000	0.001627	0.001728	28.083	0.032326	0.001872	17.2709	3.542675	13.0155	-0.006459	0.631218	-0.447185	-0.448561	0.026199	17.2709	-0.448322	-646714	-4.051118E-8	NaN
1049	1.000000	0.642587	7.37531e+06	-52589.1	1055.82	-29748.7	0.000000	0.000000	6.642994	0.063746	NaN	0.000000	0.001643	0.001711	28.0833	0.074167	0.002026	36.5999	52.2802	-163.167	0.042464	0.641299	-0.437191	-0.438480	0.063746	36.5999	-0.438497	-470060	-1.356121E-7	NaN
1049	1.000000	0.652580	7.37531e+06	-52589.1	1055.82	-29748.7	0.000000	0.000000	6.652983	-0.028861	NaN	0.000000	0.001644	0.001775	28.0818	0.029132	0.001918	15.1881	176.704	14.0221	-0.034551	0.651227	-0.427199	-0.428551	-0.028861	15.1881	-0.425774	-310626	9.291367E-8	NaN
1049	1.000000	0.662610	7.37531e+06	-52589.1	1055.82	-29748.7	0.000000	0.000000	6.663013	-0.031301	NaN	0.000000	0.001649	0.001773	28.0819	0.157932	0.002076	76.0686	26.5945	-167.716	0.011838	0.661296	-0.417168	-0.418483	-0.031301	76.0686	-0.416860	-232199	1.348023E-7	NaN
1049	1.000000	0.672613	7.37531e+06	-52589.1	1055.82	-29748.7	0.000000	0.000000	6.673014	-0.062712	NaN	0.000000	0.001617	0.001758	28.0818	0.045064	0.002032	22.1825	42.0783	16.4733	-0.073485	0.671207	-0.407166	-0.408572	-0.062712	22.1825	-0.405045	-157723	3.976064E-7	NaN
1049	1.000000	0.682583	7.37531e+06	-52589.1	1055.82	-29748.7	0.000000	0.000000	6.682985	-0.035808	NaN	0.000000	0.001615	0.001749	28.0819	0.085260	0.002029	42.025	175.673	-162.311	-0.005402	0.681297	-0.397196	-0.398482	-0.035808	42.025	-0.396557	-119363	2.999926E-7	NaN
1049	1.000000	0.692617	7.37531e+06	-52589.1	1055.82	-29748.7	0.000000	0.000000	6.693017	-0.087472	NaN	0.000000	0.001610	0.001750	28.0818	0.042716	0.001896	22.5279	-24.2066	11.8137	-0.160599	0.691262	-0.387162	-0.388517	-0.087472	22.5279	-0.384250	-79585.4	1.099096E-6	NaN
1049	1.000000	0.702638	7.37531e+06	-52589.1	1055.82	-29748.7	0.000000	0.000000	6.703038	-0.095654	NaN	0.000000	0.001601	0.001769	28.0818	0.087510	0.001963	44.5886	12.1186	-162.286	-0.035008	0.701350	-0.377141	-0.378429	-0.095654	44.5886	-0.375532	-59664.9	1.603182E-6	NaN
1049	1.000000	0.712624	7.37531e+06	-52589.1	1055.82	-29748.7	0.000000	0.000000	6.713026	-0.035464	NaN	0.000000	0.001656	0.001746	28.0819	0.057505	0.001903	30.2128	65.685	13.5406	-0.090384	0.711260	-0.367155	-0.368519	-0.035464	30.2128	-0.366274	-43897.2	8.078923E-7	NaN
1049	1.000000	0.722618	7.37531e+06	-52589.1	1055.82	-29748.7	0.000000	0.000000	6.723019	-0.068447	NaN	0.000000	0.001608	0.001747	28.0822	0.108178	0.002187	49.4597	-111.826	-164.397	-0.013497	0.721341	-0.357161	-0.358438	-0.068447	49.4597	-0.356123	-31315.1	2.185739E-6	NaN
1049	1.000000	0.732636	7.37531e+06	-52589.1	1055.82	-29748.7	0.000000	0.000000	6.733037	-0.047341	NaN	0.000000	0.001628	0.001689	28.0819	0.044493	0.002107	21.1119	145.565	12.8977	-0.014673	0.731234	-0.347143	-0.348544	-0.047341	21.1119	-0.345461	-21931.4	2.158614E-6	NaN
1049	1.000000	0.742653	7.37531e+06	-52589.1	1055.82	-29748.7	0.000000	0.000000	6.743054	-0.064296	NaN	0.000000	0.001643	0.001753	28.0826	0.139500	0.001940	71.9149	91.9887	-168.448	-0.040796	0.741334	-0.337125	-0.338444	-0.064296	71.9149	-0.336455	-16212	3.965971E-6	NaN
1049	1.000000	0.752639	7.37531e+06	-52589.1	1055.82	-29748.7	0.000000	0.000000	6.753043	-0.015983	NaN	0.000000	0.001648	0.001746	28.0822	0.033600	0.002065	16.2708	55.5181	16.4895	-0.118878	0.751299	-0.327139	-0.328480	-0.015983	16.2708	-0.326403	-11553.7	1.383339E-6	NaN
1049	1.000000	0.762615	7.37531e+06	-52589.1	1055.82	-29748.7	0.000000	0.000000	6.763017	-0.044101	NaN	0.000000	0.001657	0.001750	28.0819	0.108815	0.002033	53.5274	157.628	-168.243	-0.013676	0.761398	-0.317163	-0.318381	-0.044101	53.5274	-0.316545	-8274.59	5.329643E-6	NaN
1049	1.000000	0.772623	7.37531e+06	-52589.1	1055.82	-29748.7	0.000000	0.000000	6.773026	-0.024524	NaN	0.000000	0.001665	0.001716	28.082	0.041010	0.002133	19.2232	74.0446	14.0394	-0.015586	0.771296	-0.307155	-0.308483	-0.024524	19.2232	-0.306199	-5817.52	4.215513E-6	NaN
1049	1.000000	0.782647	7.37531e+06	-52589.1	1055.82	-29748.7	0.000000	0.000000	6.783050	-0.037040	NaN	0.000000	0.001635	0.001751	28.082	0.082229	0.002068	39.7669	-161.736	-165.618	0.008967	0.781339	-0.297132	-0.298440	-0.037040	39.7669	-0.296433	-4163.67	8.895964E-6	NaN
1049	1.000000	0.792685	7.37531e+06	-52589.1	1055.82	-29748.7	0.000000	0.000000	6.793087	-0.049040	NaN	0.000000	0.001673	0.001755	28.0834	0.087376	0.001903	45.9119	-89.2548	17.6371	-0.097333	0.791319	-0.287094	-0.288460	-0.049040	45.9119	-0.286293	-2935.54	1.670572E-5	NaN
1049	1.000000	0.802660	7.37531e+06	-52589.1	1055.82	-29748.7	0.000000	0.000000	6.803064	-0.007639	NaN	0.000000	0.001652	0.001714	28.0832	0.081761	0.001958	41.7525	-141.409	-164.621	-0.073381	0.801336	-0.277118	-0.278443	-0.007639	41.7525	-0.276981	-2125.08	3.594792E-6	NaN
1049	1.000000	0.812652	7.37531e+06	-52589.1	1055.82	-29748.7	0.000000	0.000000	6.813055	-0.015135	NaN	0.000000	0.001661	0.001711	28.0832	0.074743	0.001986	37.636	87.1273	17.4416	-0.054165	0.811292	-0.267127	-0.268486	-0.015135	37.636	-0.266825	-1490.13	1.015659E-5	NaN
1049	1.000000	0.822669	7.37531e+06	-52589.1	1055.82	-29748.7	0.000000	0.000000	6.823073	-0.000534	NaN	0.000000	0.001667	0.001764	28.0833	0.054485	0.001896	28.744	84.4886	-165.697	0.019021	0.821359	-0.257110	-0.258420	-0.000534	28.744	-0.257096	-1057.66	5.052898E-7	NaN
1049	1.000000	0.832680	7.37531e+06	-52589.1	1055.82	-29748.7	0.000000	0.000000	6.833084	-0.002607	NaN	0.000000	0.001657	0.001736	28.0833	0.065402	0.002028	32.246	97.7821	14.3173	0.013403	0.831324	-0.247099	-0.248454	-0.002607	32.246	-0.247038	-739.769	3.524212E-6	NaN
1049	1.000000	0.842677	7.37531e+06	-52589.1	1055.82	-29748.7	0.000000	0.000000	6.843082	0.043636	NaN	0.000000	0.001678	0.001735	28.0831	0.046646	0.001907	24.4543	-123.163	-165.416	-0.008024	0.841311	-0.237102	-0.238467	0.043636	24.4543	-0.238440	-543.463	-8.029221E-5	NaN
1049	1.000000	0.852705	7.37531e+06	-52589.1	1055.82	-29748.7	0.000000	0.000000	6.853106	-0.060678	NaN	0.000000	0.001668	0.001726	28.0831	0.129403	0.001988	65.1047	84.1643	11.4287	0.022346	0.851370	-0.227074	-0.228409	-0.060678	65.1047	-0.226375	-350.873	0.000173	NaN
1049	1.000000	0.862683	7.37531e+06	-52589.1	1055.82	-29748.7	0.000000	0.000000	6.863087	0.004863	NaN	0.000000	0.001642	0.001758	28.0831	0.098640	0.002067	47.721	39.5303	-161.294	-0.028812	0.861388	-0.217096	-0.218390	0.004863	47.721	-0.217172	-250.268	-1.943040E-5	NaN
1049	1.000000	0.872688	7.37531e+06	-52589.1	1055.82	-29748.7	0.000000	0.000000	6.873090	-0.059008	NaN	0.000000	0.001688	0.001766	28.0831	0.094398	0.002031	46.4758	157.945	11.6457	-0.062262	0.871355	-0.207091	-0.208424	-0.059008	46.4758	-0.206138	-166.001	0.000355	NaN
1049	1.000000	0.882670	7.37531e+06	-52589.1	1055.82	-29748.7	0.000000	0.000000	6.883071	-0.064973	NaN	0.000000	0.001687	0.001746	28.0832	0.069902	0.002098	33.3146	-81.3512	-163.871	-0.040450	0.881324	-0.197109	-0.198454	-0.064973	33.3146	-0.195646	-111.66	0.000582	NaN
1049	1.000000	0.892689	7.37531e+06	-52589.1	1055.82	-29748.7	0.000000	0.000000	6.893090	-0.069888	NaN	0.000000	0.001654	0.001702	28.0834	0.050285	0.002050	24.5259	-70.5358	14.0846	-0.026577	0.891367	-0.187089	-0.188412	-0.069888	24.5259	-0.184952	-74.0166	0.000944	NaN
1049	1.000000	0.902679	7.37531e+06	-52589.1	1055.82	-29748.7	0.000000	0.000000	6.903083	0.000124	NaN	0.000000	0.001693	0.001724	28.0835	0.097431	0.001967	49.5304	-52.2355	-164.738	-0.031731	0.901424	-0.177100	-0.178354	0.000124	49.5304	-0.177102	-54.4522	-2.282193E-6	NaN
1049	1.000000	0.912710	7.37531e+06	-52589.1	1055.82	-29748.7	0.000000	0.000000	6.913113	-0.031686	NaN	0.000000	0.001701	0.001728	28.0832	0.140102	0.002099	66.7598	51.0435	14.0738	-0.025798	0.911344	-0.167068	-0.168435	-0.031686	66.7598	-0.166712	-36.0009	0.000880	NaN
1049	1.000000	0.922686	7.37531e+06	-52589.1	1055.82	-29748.7	0.000000	0.000000	6.923089	-0.022631	NaN	0.000000	0.001677	0.001710	28.0824	0.130077	0.001893	68.6993	-16.7819	-164.694	0.013778	0.921426	-0.157093	-0.158352	-0.022631	68.6993	-0.156846	-24.0835	0.000940	NaN
1049	1.000000	0.932706	7.37531e+06	-52589.1	1055.82	-29748.7	0.000000	0.000000	6.933110	0.022965	NaN	0.000000	0.001700	0.001766	28.0821	0.069383	0.001989	34.8759	173.922	15.1893	-0.021779	0.931362	-0.147073	-0.148416	0.022965	34.8759	-0.147567	-16.3486	-0.001405	NaN
1049	1.000000	0.942718	7.37531e+06	-52589.1	1055.82	-29748.7	0.000000	0.000000	6.943120	-0.037036	NaN	0.000000	0.001695	0.001763	28.0821	0.148174	0.002006	73.8607	167.892	-166.461	-0.031313	0.941378	-0.137061	-0.138401	-0.037036	73.8607	-0.136684	-10.2414	0.003616	NaN
1049	1.000000	0.952734	7.37531e+06	-52589.1	1055.82	-29748.7	0.000000	0.000000	6.953135	-0.074505	NaN	0.000000	0.001677	0.001749	28.0819	0.075757	0.001970	38.4571	129.273	14.7728	-0.016932	0.951415	-0.127045	-0.128363	-0.074505	38.4571	-0.125592	-6.247327	0.011926	NaN
1049	1.000000	0.962733	7.37531e+06	-52589.1	1055.82	-29748.7	0.000000	0.000000	6.963135	-0.047320	NaN	0.000000	0.001691	0.001720	28.082	0.046996	0.001938	24.2459	-94.8717	-162.752	-0.011089	0.961459	-0.117046	-0.118320	-0.047320	24.2459	-0.115582	-3.927268	0.012049	NaN
1049	1.000000	0.972695	7.37531e+06	-52589.1	1055.82	-29748.7	0.000000	0.000000	6.973097	-0.054169	NaN	0.000000	0.001677	0.001768	28.082	0.028440	0.002000	14.22	-38.2438	13.3292	-0.009035	0.971364	-0.107083	-0.108415	-0.054169	14.22	-0.104226	-2.261650	0.023951	NaN
1049	1.000000	0.982732	7.37531e+06	-52589.1	1055.82	-29748.7	0.000000	0.000000	6.983135	-0.040755	NaN	0.000000	0.001692	0.001741	28.0821	0.079720	0.001995	39.9542	-100.361	-161.205	-0.024553	0.981448	-0.097046	-0.098330	-0.040755	39.9542	-0.096281	-1.508349	0.027020	NaN
1049	1.000000	0.992699	7.37531e+06	-52589.1	1055.82	-29748.7	0.000000	0.000000	6.993104	0.028915	NaN	0.000000	0.001665	0.001752	28.0821	0.091253	0.002236	40.8055	166.412	17.8019	-0.021343	0.991393	-0.087080	-0.088386	0.028915	40.8055	-0.087611	-0.949196	-0.030463	NaN
1049	1.000000	1.002731	7.37531e+06	-52589.1	1055.82	-29748.7	0.000000	0.000000	7.003133	-0.050942	NaN	0.000000	0.001683	0.001730	28.0818	0.037901	0.001821	20.8103	158.786	-163.922	-0.089681	1.001453	-0.077048	-0.078326	-0.050942	20.8103	-0.075212	-0.467724	0.108916	NaN
1049	1.000000	1.012751	7.37531e+06	-52589.1	1055.82	-29748.7	0.000000	0.000000	7.013154	-0.024525	NaN	0.000000	0.001662	0.001752	28.0822	0.115470	0.001852	62.3395	86.4079	15.6901	-0.064447	1.011428	-0.067028	-0.068351	-0.024525	62.3395	-0.066732	-0.278195	0.088159	NaN
1049	1.000000	1.022744	7.37531e+06	-52589.1	1055.82	-29748.7	0.000000	0.000000	7.023146	-0.052367	NaN	0.000000	0.001715	0.001730	28.0821	0.105128	0.002027	51.8593	109.631	-168.688	-0.018783	1.021448	-0.057035	-0.058331	-0.052367	51.8593	-0.056277	-0.140429	0.372907	NaN
1049	1.000000	1.032753	7.37531e+06	-52589.1	1055.82	-29748.7	0.000000	0.000000	7.033157	-0.005734	NaN	0.000000	0.001711	0.001741	28.082	0.127308	0.001977	64.3798	141.745	15.3283	0.067318	1.031380	-0.047025	-0.048399	-0.005734	64.3798	-0.046959	-0.073761	0.077736	NaN
1049	1.000000	1.042771	7.37531e+06	-52589.1	1055.82	-29748.7	0.000000	0.000000	7.043172	-0.071416	NaN	0.000000	0.001694	0.001725	28.0819	0.015158	0.002091	7.250906	15.5989	-164.768	-0.082680	1.041382	-0.037007	-0.038396	-0.071416	7.250906	-0.029620	-0.022460	3.179632	NaN
1049	1.000000	1.052721	7.37531e+06	-52589.1	1055.82	-29748.7	0.000000	0.000000	7.053124	-0.021379	NaN	0.000000	0.001736	0.001703	28.0819	0.075006	0.001935	38.7721	172.564	15.5686	0.019996	1.051415	-0.027057	-0.028363	-0.021379	38.7721	-0.026644	-0.018642	1.146847	NaN
1049	1.000000	1.062789	7.37531e+06	-52589.1	1055.82	-29748.7	0.000000	0.000000	7.063194	0.008250	NaN	0.000000	0.001709	0.001733	28.083	0.099680	0.001990	50.0887	-138.376	-164.161	-0.043579	1.061479	-0.016989	-0.018300	0.008250	50.0887	-0.017113	-0.010583	-0.779583	NaN
1049	1.000000	1.072756	7.37531e+06	-52589.1	1055.82	-29748.7	0.000000	0.000000	7.073162	0.048181	NaN	0.000000	0.001722	0.001720	28.083	0.048545	0.001972	24.614	40.7975	16.3396	0.006879	1.071393	-0.007023	-0.008386	0.048181	24.614	-0.008491	-0.005518	-8.731273	NaN
1049	1.000000	1.082786	7.37531e+06	-52589.1	1055.82	-29748.7	0.000000	0.000000	7.083195	0.122831	NaN	0.000000	0.001694	0.001737	28.0831	0.271267	0.001994	136.056	7.352485	-167.131	-0.014065	1.081479	0.003008	0.001700	0.122831	136.056	0.002331	0.001824	67.3432	2910.61
1049	2.000000	1.092530	7.37531e+06	-52589.1	1055.82	-29748.7	0.000000	0.000000	7.093239	7.434716	NaN	0.000000	0.001633	0.001714	28.083	8.185381	0.001718	4764.64	18.2588	3.887215	7.063929	1.091401	0.012751	0.011622	7.434716	4764.64	0.011581	0.010992	676.393	41521.3
1049	2.000000	1.095345	7.37531e+06	-52589.1	1055.82	-29748.7	0.000000	0.000000	7.096147	9.677908	NaN	0.000000	0.001675	0.001755	28.0831	10.3859	0.001721	6033.15	8.906050	-172.165	9.080920	1.095021	0.015566	0.015243	9.677908	6033.15	0.014363	0.014446	669.96	45861.8
1049	2.000000	1.097825	7.37531e+06	-52589.1	1055.82	-29748.7	0.000000	0.000000	7.098719	11.9331	NaN	0.000000	0.001688	0.001706	28.0829	13.7027	0.001844	7429.73	8.077421	6.867087	10.6765	1.097454	0.018046	0.017675	11.9331	7429.73	0.016841	0.017820	669.654	50850.5
1049	2.000000	1.100311	7.37531e+06	-52589.1	1055.82	-29748.7	0.000000	0.000000	7.101326	14.8641	NaN	0.000000	0.001693	0.001734	28.0832	15.9333	0.001749	9108.03	11.7327	-178.168	14.6287	1.100069	0.020532	0.020290	14.8641	9108.03	0.019308	0.021467	692.411	56795.1
1049	2.000000	1.102810	7.37531e+06	-52589.1	1055.82	-29748.7	0.000000	0.000000	7.104044	20.1838	NaN	0.000000	0.001674	0.001731	28.083	17.9076	0.001633	10967	9.525202	1.717078	18.9651	1.102407	0.023031	0.022628	20.1838	10967	0.021651	0.025203	800.856	63115.4
1049	2.000000	1.105306	7.37531e+06	-52589.1	1055.82	-29748.7	0.000000	0.000000	7.106668	23.3056	NaN	0.000000	0.001689	0.001734	28.083	20.0936	0.001677	11978.6	7.612031	-175.922	23.6448	1.104994	0.025527	0.025216	23.3056	11978.6	0.024068	0.029342	794.275	63890.2
1049	2.000000	1.107768	7.37531e+06	-52589.1	1055.82	-29748.7	0.000000	0.000000	7.109362	28.9462	NaN	0.000000	0.001690	0.001714	28.0833	23.3249	0.001788	13044.8	3.640824	6.181174	28.1831	1.107505	0.027989	0.027727	28.9462	13044.8	0.026325	0.033470	864.845	65145.4
1049	2.000000	1.110275	7.37531e+06	-52589.1	1055.82	-29748.7	0.000000	0.000000	7.112105	34.6669	NaN	0.000000	0.001673	0.001781	28.0838	26.5612	0.001806	14705.2	7.135770	-178.585	34.1449	1.110005	0.030496	0.030226	34.6669	14705.2	0.028728	0.038149	908.723	68786.4
1049	2.000000	1.112838	7.37531e+06	-52589.1	1055.82	-29748.7	0.000000	0.000000	7.115062	44.2485	NaN	0.000000	0.001661	0.001745	28.0833	29.172	0.001828	15954.3	4.908223	2.684130	44.1456	1.112403	0.033060	0.032624	44.2485	15954.3	0.030980	0.042799	1033.87	70458.9
1049	2.000000	1.115283	7.37531e+06	-52589.1	1055.82	-29748.7	0.000000	0.000000	7.117795	51.2735	NaN	0.000000	0.001696	0.001707	28.083	31.4855	0.001810	17398.2	6.573229	-179.791	50.9926	1.114897	0.035504	0.035118	51.2735	17398.2	0.033294	0.047848	1071.6	72668.6
1049	2.000000	1.117765	7.37531e+06	-52589.1	1055.82	-29748.7	0.000000	0.000000	7.120710	61.7645	NaN	0.000000	0.001656	0.001740	28.083	33.8177	0.001621	20866.7	6.537104	-2.268174	60.5167	1.117410	0.037987	0.037632	61.7645	20866.7	0.035767	0.053546	1153.47	82387.7
1049	2.000000	1.120259	7.37531e+06	-52589.1	1055.82	-29748.7	0.000000	0.000000	7.123469	68.2227	NaN	0.000000	0.001663	0.001747	28.0819	37.6042	0.001814	20730.6	4.029627	-178.919	68.5191	1.119918	0.040481	0.040140	68.2227	20730.6	0.038012	0.058993	1156.46	77980.5
1049	2.000000	1.122777	7.37531e+06	-52589.1	1055.82	-29748.7	0.000000	0.000000	7.126487	80.3811	NaN	0.000000	0.001681	0.001732	28.0818	40.1038	0.001810	22151.9	6.890240	-2.122131	79.5948	1.122367	0.042999	0.042589	80.3811	22151.9	0.040277	0.064747	1241.46	79537.8
1049	2.000000	1.125264	7.37531e+06	-52589.1	1055.82	-29748.7	0.000000	0.000000	7.129477	92.631	NaN	0.000000	0.001697	0.001737	28.0816	42.9684	0.001777	24184.5	9.544257	173.801	93.5641	1.124918	0.045485	0.045140	92.631	24184.5	0.042612	0.070954	1305.51	82951.1
1049	2.000000	1.127723	7.37531e+06	-52589.1	1055.82	-29748.7	0.000000	0.000000	7.132224	99.6386	NaN	0.000000	0.001671	0.001760	28.0819	45.7905	0.001815	25230	6.751863	-4.392466	97.2911	1.127430	0.047944	0.047651	99.6386	25230	0.044982	0.077536	1285.06	82782.3
1049	2.000000	1.130165	7.37531e+06	-52589.1	1055.82	-29748.7	0.000000	0.000000	7.135286	114.705	NaN	0.000000	0.001670	0.001699	28.0816	47.1123	0.001682	28001.9	1.823963	179.61	110.422	1.129865	0.050386	0.050086	114.705	28001.9	0.047314	0.084291	1360.81	88118.9
1049	2.000000	1.132771	7.37531e+06	-52589.1	1055.82	-29748.7	0.000000	0.000000	7.138371	126.338	NaN	0.000000	0.001717	0.001761	28.0816	49.3257	0.001744	28282.1	6.632500	-3.872024	126.266	1.132386	0.052993	0.052608	126.338	28282.1	0.049642	0.091311	1383.61	85511.3
1049	2.000000	1.135244	7.37531e+06	-52589.1	1055.82	-29748.7	0.000000	0.000000	7.141302	137.472	NaN	0.000000	0.001723	0.001727	28.0816	51.5242	0.001720	29953.3	4.697831	176.808	138.972	1.134909	0.055465	0.055130	137.472	29953.3	0.052023	0.098769	1391.85	87077.8
1049	2.000000	1.137680	7.37531e+06	-52589.1	1055.82	-29748.7	0.000000	0.000000	7.144439	154.513	NaN	0.000000	0.001680	0.001746	28.0818	54.9642	0.001811	30349.3	7.318384	-5.872162	151.874	1.137375	0.057902	0.057596	154.513	30349.3	0.054083	0.105450	1465.27	85388.1
1049	2.000000	1.140261	7.37531e+06	-52589.1	1055.82	-29748.7	0.000000	0.000000	7.147356	162.693	NaN	0.000000	0.001670	0.001732	28.0819	58.0839	0.001702	34134.6	4.676428	176.072	163.235	1.139830	0.060482	0.060051	162.693	34134.6	0.056907	0.114953	1415.3	91983.2
1049	2.000000	1.142679	7.37531e+06	-52589.1	1055.82	-29748.7	0.000000	0.000000	7.150642	183.807	NaN	0.000000	0.001648	0.001751	28.0817	59.6523	0.001856	32147.1	5.802511	-3.804992	179.4	1.142319	0.062900	0.062540	183.807	32147.1	0.058612	0.120878	1520.6	84477.4
1049	2.000000	1.145183	7.37531e+06	-52589.1	1055.82	-29748.7	0.000000	0.000000	7.153764	198.821	NaN	0.000000	0.001652	0.001765	28.0817	62.0167	0.001750	35446.1	4.889656	175.174	196.171	1.144912	0.065404	0.065134	198.821	35446.1	0.061197	0.130136	1527.8	89772.6
1049	2.000000	1.147710	7.37531e+06	-52589.1	1055.82	-29748.7	0.000000	0.000000	7.156749	209.963	NaN	0.000000	0.001660	0.001743	28.0819	65.4771	0.001777	36848.4	4.795150	-4.235010	208.605	1.147195	0.067931	0.067416	209.963	36848.4	0.063658	0.139250	1507.82	90218.1
1049	2.000000	1.150217	7.37531e+06	-52589.1	1055.82	-29748.7	0.000000	0.000000	7.159896	225.52	NaN	0.000000	0.001661	0.001739	28.0818	69.116	0.001723	40125	6.532345	172.328	225.313	1.149945	0.070438	0.070166	225.52	40125	0.066223	0.149064	1512.91	94951.5
1049	2.000000	1.152726	7.37531e+06	-52589.1	1055.82	-29748.7	0.000000	0.000000	7.163120	242.918	NaN	0.000000	0.001676	0.001768	28.0829	70.3134	0.001749	40198.5	4.922512	-5.257912	241.323	1.152341	0.072947	0.072563	242.918	40198.5	0.068415	0.157700	1540.38	92484.3
1049	2.000000	1.155221	7.37531e+06	-52589.1	1055.82	-29748.7	0.000000	0.000000	7.166421	262.485	NaN	0.000000	0.001658	0.001714	28.083	72.0564	0.001732	41614.9	7.529850	172.062	263.004	1.154815	0.075443	0.075036	262.485	41614.9	0.070712	0.166996	1571.8	93039.8
1049	2.000000	1.157737	7.37531e+06	-52589.1	1055.82	-29748.7	0.000000	0.000000	7.169400	273.774	NaN	0.000000	0.001667	0.001712	28.0833	75.807	0.001866	40621	5.795260	-6.916992	273.959	1.157413	0.077958	0.077635	273.774	40621	0.072903	0.176098	1554.67	88439.7
1049	2.000000	1.160245	7.37531e+06	-52589.1	1055.82	-29748.7	0.000000	0.000000	7.172253	282.125	NaN	0.000000	0.001669	0.001736	28.0828	78.2666	0.001881	41612	4.314872	174.944	283.899	1.160035	0.080467	0.080257	282.125	41612	0.075382	0.186667	1511.38	87995
1049	2.000000	1.162673	7.37531e+06	-52589.1	1055.82	-29748.7	0.000000	0.000000	7.175871	311.063	NaN	0.000000	0.001611	0.001673	28.0831	79.7572	0.001936	41199.1	5.743485	-6.333063	307.098	1.162303	0.082895	0.082524	311.063	41199.1	0.077232	0.194745	1597.28	85295.8
1049	2.000000	1.165255	7.37531e+06	-52589.1	1055.82	-29748.7	0.000000	0.000000	7.178639	315.587	NaN	0.000000	0.001632	0.001716	28.0831	81.5118	0.001859	43836.7	1.348723	176.772	315.822	1.165016	0.085477	0.085238	315.587	43836.7	0.080077	0.207479	1521.05	87927.3
1049	2.000000	1.167633	7.37531e+06	-52589.1	1055.82	-29748.7	0.000000	0.000000	7.181800	334.637	NaN	0.000000	0.001633	0.001723	28.0831	83.8955	0.001770	47410.8	2.197315	-4.488819	329.182	1.167362	0.087855	0.087584	334.637	47410.8	0.082561	0.218904	1528.69	92581.3
1049	2.000000	1.170047	7.37531e+06	-52589.1	1055.82	-29748.7	0.000000	0.000000	7.185016	354.152	NaN	0.000000	0.001626	0.001729	28.0829	87.4875	0.001923	45491.3	4.574973	173.248	346.678	1.169893	0.090268	0.090114	354.152	45491.3	0.084430	0.227688	1555.43	87102.7
1049	2.000000	1.172538	7.37531e+06	-52589.1	1055.82	-29748.7	0.000000	0.000000	7.188368	375.06	NaN	0.000000	0.001631	0.001704	28.083	88.4449	0.001718	51490.6	6.022442	-8.327310	363.068	1.172137	0.092760	0.092358	375.06	51490.6	0.087297	0.241479	1553.18	95733.1
1049	2.000000	1.175113	7.37531e+06	-52589.1	1055.82	-29748.7	0.000000	0.000000	7.191926	398.958	NaN	0.000000	0.001636	0.001711	28.0834	90.7725	0.001712	53034.4	8.378392	169.135	393.887	1.174763	0.095335	0.094985	398.958	53034.4	0.089693	0.253295	1575.07	96275.8
1049	2.000000	1.177625	7.37531e+06	-52589.1	1055.82	-29748.7	0.000000	0.000000	7.195401	422.381	NaN	0.000000	0.001612	0.001712	28.0829	93.0606	0.001786	52104	5.835822	-8.438965	416.504	1.177335	0.097846	0.097557	422.381	52104	0.091767	0.263734	1601.54	92696
1049	2.000000	1.180150	7.37531e+06	-52589.1	1055.82	-29748.7	0.000000	0.000000	7.198267	430.688	NaN	0.000000	0.001632	0.001733	28.083	95.801	0.001718	55760.5	4.780067	171.781	428.431	1.179934	0.100371	0.100155	430.688	55760.5	0.094578	0.278201	1548.12	96587.5
1049	2.000000	1.182712	7.37531e+06	-52589.1	1055.82	-29748.7	0.000000	0.000000	7.202101	461.607	NaN	0.000000	0.001633	0.001751	28.083	96.886	0.001753	55254.6	4.208229	-6.769992	460.557	1.182240	0.102934	0.102461	461.607	55254.6	0.096668	0.289190	1596.2	93874.9
1049	2.000000	1.185340	7.37531e+06	-52589.1	1055.82	-29748.7	0.000000	0.000000	7.205528	481.04	NaN	0.000000	0.001652	0.001720	28.0835	100.331	0.001803	55660.9	12.5043	165.87	488.6	1.184713	0.105561	0.104935	481.04	55660.9	0.099079	0.302114	1592.25	92520.5
1049	2.000000	1.187598	7.37531e+06	-52589.1	1055.82	-29748.7	0.000000	0.000000	7.208641	501.807	NaN	0.000000	0.001722	0.001706	28.0816	101.287	0.001706	59364.7	2.711197	-6.242836	497.072	1.187232	0.107820	0.107453	501.807	59364.7	0.101480	0.315245	1591.8	96600.1
1049	2.000000	1.190275	7.37531e+06	-52589.1	1055.82	-29748.7	0.000000	0.000000	7.212452	529.375	NaN	0.000000	0.001679	0.001735	28.0822	106.458	0.001949	54608.8	5.344373	172.227	536.419	1.189915	0.110497	0.110136	529.375	54608.8	0.103226	0.324961	1629.04	87522.6
1049	2.000000	1.191093	7.37531e+06	-52589.1	1055.82	-29748.7	0.000000	0.000000	7.213571	536.702	NaN	0.000000	0.001674	0.001738	28.0818	105.389	0.001799	58590.8	2.479316	174.194	531.595	1.190834	0.111314	0.111055	536.702	58590.8	0.104444	0.331819	1617.45	92929.2