File: remote_trans/data/nanoindenter/0828-1/data/Data_2025-08-06,11h17m57s/2025-07-22_16-23-58_1_229.txt
2025-07-22, 16:23:58, 1
Index	Phase	Displacement	Time	Pos X	Pos Y	Pos Z	Rot A	Rot B	Piezo Z	Force A	Force B	Gripper	Voltage A	Voltage B	Temperature	Amplitude force	Amplitude pos	Stiffness	Phase shift	Phase excitation	Force A raw	Displacement raw	HMax	HMax raw	Real Force	Real Stiffness	Contact Depth	Area	Hardness	Reduced Mod.
[#]	[#]	[um]	[s]	[um]	[um]	[um]	[m°]	[m°]	[um]	[uN]	[uN]	[V]	[V]	[V]	[°C]	[uN]	[um]	[N/m]	[°]	[°]	[uN]	[um]	[um]	[um]	[uN]	[N/m]	[um]	[um^2]	[MPa]	[MPa]
229	1.000000	0.002249	7.36729e+06	-50089.1	955.817	-29757.3	0.000000	0.000000	6.002809	-0.002991	NaN	0.000000	0.001499	0.001616	28.0761	0.045841	0.001021	44.9154	-105.817	-159.789	-0.079451	0.001021	-1.039187	-1.040415	-0.002991	44.9154	-1.039137	-7.627138E+13	3.921637E-17	NaN
229	1.000000	0.010192	7.36729e+06	-50089.1	955.82	-29757.3	0.000000	0.000000	6.010752	-0.020762	NaN	0.000000	0.001513	0.001645	28.076	0.047826	0.000952	50.2285	-135.288	-157.599	-0.043456	0.008879	-1.031243	-1.032556	-0.020762	50.2285	-1.030933	-5.916031E+13	3.509493E-16	NaN
229	1.000000	0.018187	7.36729e+06	-50089.1	955.819	-29757.3	0.000000	0.000000	6.018747	0.010726	NaN	0.000000	0.001517	0.001642	28.0759	0.100257	0.001695	59.1372	27.2198	-165.826	-0.005666	0.016921	-1.023249	-1.024515	0.010726	59.1372	-1.023385	-4.682677E+13	-2.290479E-16	NaN
229	1.000000	0.026224	7.36729e+06	-50089.1	955.818	-29757.3	0.000000	0.000000	6.026783	-0.044513	NaN	0.000000	0.001528	0.001640	28.0761	0.051636	0.001887	27.3574	-49.335	-163.524	-0.038806	0.024864	-1.015211	-1.016571	-0.044513	27.3574	-1.013991	-3.500175E+13	1.271727E-15	NaN
229	1.000000	0.034156	7.36729e+06	-50089.1	955.819	-29757.3	0.000000	0.000000	6.034715	-0.018701	NaN	0.000000	0.001525	0.001610	28.0762	0.091811	0.001811	50.688	-7.443070	-165.068	-0.022886	0.032899	-1.007279	-1.008537	-0.018701	50.688	-1.007003	-2.818620E+13	6.634913E-16	NaN
229	1.000000	0.042196	7.36729e+06	-50089.1	955.818	-29757.3	0.000000	0.000000	6.042753	-0.054437	NaN	0.000000	0.001525	0.001627	28.0758	0.074271	0.001986	37.3911	150.048	-162.944	0.050432	0.040898	-0.999240	-1.000537	-0.054437	37.3911	-0.998148	-2.142061E+13	2.541331E-15	NaN
229	1.000000	0.050189	7.36729e+06	-50089.1	955.819	-29757.3	0.000000	0.000000	6.050748	-0.012035	NaN	0.000000	0.001553	0.001673	28.0761	0.126573	0.001915	66.108	-51.2231	-160.651	0.039574	0.048863	-0.991247	-0.992573	-0.012035	66.108	-0.991110	-1.722126E+13	6.988184E-16	NaN
229	1.000000	0.058220	7.36729e+06	-50089.1	955.818	-29757.3	0.000000	0.000000	6.058780	0.009542	NaN	0.000000	0.001545	0.001631	28.0764	0.049452	0.001878	26.3309	-137.187	-164.573	-0.074378	0.056870	-0.983216	-0.984566	0.009542	26.3309	-0.983488	-1.359544E+13	-7.018834E-16	NaN
229	1.000000	0.066209	7.36729e+06	-50089.1	955.819	-29757.3	0.000000	0.000000	6.066766	-0.068318	NaN	0.000000	0.001549	0.001622	28.0759	0.108729	0.002178	49.9296	-132.979	-165.098	-0.067994	0.064923	-0.975227	-0.976513	-0.068318	49.9296	-0.974201	-1.019226E+13	6.702942E-15	NaN
229	1.000000	0.074200	7.36729e+06	-50089.1	955.818	-29757.3	0.000000	0.000000	6.074761	0.027020	NaN	0.000000	0.001546	0.001612	28.0758	0.099917	0.001986	50.3083	-0.792504	-168.636	0.039720	0.072886	-0.967236	-0.968549	0.027020	50.3083	-0.967639	-8.314557E+12	-3.249709E-15	NaN
229	1.000000	0.082201	7.36729e+06	-50089.1	955.818	-29757.3	0.000000	0.000000	6.082757	-0.104168	NaN	0.000000	0.001545	0.001567	28.0758	0.076511	0.002005	38.1538	-177.719	-166.209	-0.076483	0.080905	-0.959234	-0.960530	-0.104168	38.1538	-0.957187	-6.010895E+12	1.732990E-14	NaN
229	1.000000	0.090223	7.36729e+06	-50089.1	955.82	-29757.3	0.000000	0.000000	6.090783	0.004854	NaN	0.000000	0.001578	0.001593	28.0758	0.082688	0.002026	40.8044	129.681	-164.451	0.092483	0.088936	-0.951213	-0.952499	0.004854	40.8044	-0.951302	-5.007084E+12	-9.693617E-16	NaN
229	1.000000	0.098216	7.36729e+06	-50089.1	955.819	-29757.3	0.000000	0.000000	6.098777	0.019809	NaN	0.000000	0.001541	0.001606	28.076	0.074426	0.002036	36.5598	30.7687	-164.815	-0.009483	0.096917	-0.943220	-0.944518	0.019809	36.5598	-0.943626	-3.945060E+12	-5.021161E-15	NaN
229	1.000000	0.106222	7.36729e+06	-50089.1	955.818	-29757.3	0.000000	0.000000	6.106784	0.045402	NaN	0.000000	0.001551	0.001611	28.0754	0.094812	0.002206	42.9698	-111.402	-165.937	0.107256	0.104903	-0.935214	-0.936533	0.045402	42.9698	-0.936006	-3.113506E+12	-1.458235E-14	NaN
229	1.000000	0.114226	7.36729e+06	-50089.1	955.818	-29757.3	0.000000	0.000000	6.114785	-0.020284	NaN	0.000000	0.001560	0.001622	28.0759	0.038182	0.001959	19.488	-145.63	-166.045	-0.008866	0.112943	-0.927210	-0.928493	-0.020284	19.488	-0.926429	-2.312072E+12	8.773104E-15	NaN
229	1.000000	0.122226	7.36729e+06	-50089.1	955.818	-29757.3	0.000000	0.000000	6.122785	-0.013625	NaN	0.000000	0.001560	0.001639	28.0757	0.078369	0.002172	36.0805	72.4037	-164.368	-0.067729	0.120903	-0.919210	-0.920532	-0.013625	36.0805	-0.918926	-1.831095E+12	7.441105E-15	NaN
229	1.000000	0.130211	7.36729e+06	-50089.1	955.818	-29757.3	0.000000	0.000000	6.130773	0.044578	NaN	0.000000	0.001566	0.001629	28.076	0.063912	0.002008	31.8298	95.2436	-166.4	-0.012344	0.128918	-0.911224	-0.912518	0.044578	31.8298	-0.912274	-1.488952E+12	-2.993932E-14	NaN
229	1.000000	0.138234	7.36729e+06	-50089.1	955.818	-29757.3	0.000000	0.000000	6.138793	-0.014506	NaN	0.000000	0.001554	0.001593	28.0773	0.072829	0.002001	36.3999	-172.055	-167.411	0.013267	0.136891	-0.903202	-0.904545	-0.014506	36.3999	-0.902903	-1.112476E+12	1.303902E-14	NaN
229	1.000000	0.146214	7.36729e+06	-50089.1	955.818	-29757.3	0.000000	0.000000	6.146773	-0.010859	NaN	0.000000	0.001568	0.001608	28.0769	0.030519	0.002010	15.1858	-172.744	-169.465	-0.047685	0.144927	-0.895222	-0.896509	-0.010859	15.1858	-0.894685	-8.614774E+11	1.260536E-14	NaN
229	1.000000	0.154211	7.36729e+06	-50089.1	955.819	-29757.3	0.000000	0.000000	6.154770	-0.032584	NaN	0.000000	0.001574	0.001583	28.0774	0.075472	0.002100	35.9454	20.5756	-162.752	-0.025256	0.152939	-0.887224	-0.888496	-0.032584	35.9454	-0.886544	-6.686446E+11	4.873071E-14	NaN
229	1.000000	0.162221	7.36729e+06	-50089.1	955.818	-29757.3	0.000000	0.000000	6.162782	0.017749	NaN	0.000000	0.001544	0.001579	28.077	0.045686	0.001911	23.9018	7.872219	-165.718	-0.050545	0.160948	-0.879214	-0.880487	0.017749	23.9018	-0.879771	-5.415157E+11	-3.277727E-14	NaN
229	1.000000	0.170207	7.36729e+06	-50089.1	955.818	-29757.3	0.000000	0.000000	6.170767	0.006110	NaN	0.000000	0.001545	0.001590	28.0771	0.095358	0.002045	46.6295	-145.45	-164.836	0.077087	0.168900	-0.871229	-0.872535	0.006110	46.6295	-0.871327	-4.162924E+11	-1.467772E-14	NaN
229	1.000000	0.178264	7.36729e+06	-50089.1	955.819	-29757.3	0.000000	0.000000	6.178821	-0.078656	NaN	0.000000	0.001503	0.001591	28.0772	0.078340	0.001907	41.0718	-118.711	-165.586	-0.086897	0.176972	-0.863171	-0.864464	-0.078656	41.0718	-0.861735	-3.087477E+11	2.547578E-13	NaN
229	1.000000	0.186273	7.36729e+06	-50089.1	955.818	-29757.3	0.000000	0.000000	6.186829	-0.078947	NaN	0.000000	0.001497	0.001592	28.0773	0.069017	0.002052	33.6272	101.526	-166.125	0.019142	0.184949	-0.855163	-0.856487	-0.078947	33.6272	-0.853402	-2.381243E+11	3.315372E-13	NaN
229	1.000000	0.194225	7.36729e+06	-50089.1	955.819	-29757.3	0.000000	0.000000	6.194785	0.013639	NaN	0.000000	0.001551	0.001602	28.0777	0.088979	0.002050	43.3956	-115.548	-166.161	-0.000108	0.192937	-0.847211	-0.848499	0.013639	43.3956	-0.847446	-1.977685E+11	-6.896202E-14	NaN
229	1.000000	0.202255	7.36729e+06	-50089.1	955.818	-29757.3	0.000000	0.000000	6.202814	-0.025471	NaN	0.000000	0.001600	0.001571	28.0774	0.080086	0.001931	41.4771	46.9983	-165.009	-0.053823	0.200982	-0.839181	-0.840453	-0.025471	41.4771	-0.838720	-1.506451E+11	1.690815E-13	NaN
229	1.000000	0.210270	7.36729e+06	-50089.1	955.818	-29757.3	0.000000	0.000000	6.210830	-0.004596	NaN	0.000000	0.001537	0.001598	28.0773	0.022369	0.002059	10.8652	-101.545	-167.536	0.024896	0.208940	-0.831165	-0.832495	-0.004596	10.8652	-0.830848	-1.178357E+11	3.900025E-14	NaN
229	1.000000	0.218257	7.36729e+06	-50089.1	955.819	-29757.3	0.000000	0.000000	6.218815	-0.055180	NaN	0.000000	0.001522	0.001595	28.0773	0.039883	0.002121	18.8049	-114.884	-163.584	0.014893	0.216966	-0.823178	-0.824469	-0.055180	18.8049	-0.820977	-8.658973E+10	6.372532E-13	NaN
229	1.000000	0.226243	7.36729e+06	-50089.1	955.818	-29757.3	0.000000	0.000000	6.226804	0.016083	NaN	0.000000	0.001521	0.001594	28.077	0.046214	0.002000	23.1076	-91.6588	-168.143	0.090821	0.224943	-0.815192	-0.816492	0.016083	23.1076	-0.815714	-7.346561E+10	-2.189160E-13	NaN
229	1.000000	0.234250	7.36729e+06	-50089.1	955.819	-29757.3	0.000000	0.000000	6.234809	-0.045391	NaN	0.000000	0.001513	0.001596	28.0777	0.092419	0.001987	46.5146	-98.2198	-164.778	0.019340	0.232947	-0.807185	-0.808488	-0.045391	46.5146	-0.806453	-5.501046E+10	8.251374E-13	NaN
229	1.000000	0.242288	7.36729e+06	-50089.1	955.819	-29757.3	0.000000	0.000000	6.242848	0.001428	NaN	0.000000	0.001521	0.001662	28.0773	0.107592	0.002003	53.7177	-132.447	-165.746	-0.072279	0.240959	-0.799147	-0.800477	0.001428	53.7177	-0.799167	-4.380864E+10	-3.258842E-14	NaN
229	1.000000	0.250261	7.36729e+06	-50089.1	955.818	-29757.3	0.000000	0.000000	6.250817	-0.079376	NaN	0.000000	0.001509	0.001681	28.0773	0.227222	0.001927	117.899	33.8272	-163.742	-0.050666	0.248971	-0.791175	-0.792464	-0.079376	117.899	-0.790670	-3.358777E+10	2.363232E-12	NaN
229	1.000000	0.258268	7.36729e+06	-50089.1	955.818	-29757.3	0.000000	0.000000	6.258829	0.012413	NaN	0.000000	0.001541	0.001642	28.0774	0.108980	0.002127	51.2403	166.237	-164.791	-0.012253	0.256989	-0.783167	-0.784446	0.012413	51.2403	-0.783349	-2.671387E+10	-4.646705E-13	NaN
229	1.000000	0.266250	7.36729e+06	-50089.1	955.818	-29757.3	0.000000	0.000000	6.266811	0.012135	NaN	0.000000	0.001583	0.001648	28.0771	0.072287	0.002027	35.6684	-174.801	-164.162	0.030928	0.264970	-0.775185	-0.776465	0.012135	35.6684	-0.775440	-2.085748E+10	-5.818233E-13	NaN
229	1.000000	0.274248	7.36729e+06	-50089.1	955.818	-29757.3	0.000000	0.000000	6.274805	-0.083512	NaN	0.000000	0.001589	0.001639	28.0762	0.101575	0.002002	50.7407	43.6957	-164.649	-0.053723	0.272993	-0.767187	-0.768442	-0.083512	50.7407	-0.765953	-1.549785E+10	5.388632E-12	NaN
229	1.000000	0.282275	7.36729e+06	-50089.1	955.818	-29757.3	0.000000	0.000000	6.282836	0.035060	NaN	0.000000	0.001569	0.001662	28.076	0.014974	0.001912	7.831419	166.751	-166.071	0.048477	0.280980	-0.759160	-0.760456	0.035060	7.831419	-0.762518	-1.391732E+10	-2.519128E-12	NaN
229	1.000000	0.290298	7.36729e+06	-50089.1	955.819	-29757.3	0.000000	0.000000	6.290856	-0.054710	NaN	0.000000	0.001584	0.001622	28.0763	0.068623	0.001807	37.9719	93.4097	-167.69	0.043680	0.288986	-0.751138	-0.752449	-0.054710	37.9719	-0.750057	-9.418781E+9	5.808654E-12	NaN
229	1.000000	0.298317	7.36729e+06	-50089.1	955.819	-29757.3	0.000000	0.000000	6.298877	-0.006269	NaN	0.000000	0.001594	0.001636	28.0762	0.096885	0.001939	49.9773	13.8942	-166.757	-0.054229	0.297005	-0.743119	-0.744431	-0.006269	49.9773	-0.743025	-7.555256E+9	8.297894E-13	NaN
229	1.000000	0.306307	7.36729e+06	-50089.1	955.818	-29757.3	0.000000	0.000000	6.306868	0.018867	NaN	0.000000	0.001588	0.001682	28.076	0.073903	0.002036	36.293	134.615	-166.033	-0.013174	0.305008	-0.735128	-0.736427	0.018867	36.293	-0.735518	-5.970399E+9	-3.160122E-12	NaN
229	1.000000	0.314290	7.36729e+06	-50089.1	955.818	-29757.3	0.000000	0.000000	6.314852	0.044341	NaN	0.000000	0.001586	0.001612	28.076	0.045479	0.001858	24.4808	132.821	-164.705	0.057186	0.312972	-0.727145	-0.728463	0.044341	24.4808	-0.728504	-4.790884E+9	-9.255203E-12	NaN
229	1.000000	0.322293	7.36729e+06	-50089.1	955.817	-29757.3	0.000000	0.000000	6.322851	-0.065345	NaN	0.000000	0.001599	0.001675	28.0759	0.056005	0.001935	28.9483	52.4707	-164.056	-0.070964	0.320940	-0.719142	-0.720495	-0.065345	28.9483	-0.717449	-3.385944E+9	1.929881E-11	NaN
229	1.000000	0.330324	7.36729e+06	-50089.1	955.819	-29757.3	0.000000	0.000000	6.330884	0.006424	NaN	0.000000	0.001590	0.001687	28.0761	0.111576	0.002106	52.9888	-103.293	-166.482	-0.038064	0.328957	-0.711112	-0.712478	0.006424	52.9888	-0.711203	-2.782671E+9	-2.308440E-12	NaN
229	1.000000	0.338325	7.36729e+06	-50089.1	955.818	-29757.3	0.000000	0.000000	6.338886	0.032358	NaN	0.000000	0.001588	0.001670	28.076	0.088404	0.002130	41.5035	67.9279	-163.487	-0.031899	0.336985	-0.703111	-0.704450	0.032358	41.5035	-0.703696	-2.197824E+9	-1.472272E-11	NaN
229	1.000000	0.346333	7.36729e+06	-50089.1	955.818	-29757.3	0.000000	0.000000	6.346892	-0.039885	NaN	0.000000	0.001589	0.001671	28.076	0.157912	0.002124	74.3324	-53.8231	-166.689	-0.018991	0.345004	-0.695102	-0.696431	-0.039885	74.3324	-0.694700	-1.656276E+9	2.408129E-11	NaN
229	1.000000	0.354308	7.36729e+06	-50089.1	955.818	-29757.3	0.000000	0.000000	6.354867	-0.034029	NaN	0.000000	0.001599	0.001693	28.0759	0.045568	0.001901	23.9749	-24.286	-164.025	0.060308	0.353007	-0.687127	-0.688428	-0.034029	23.9749	-0.686063	-1.262131E+9	2.696168E-11	NaN
229	1.000000	0.362310	7.36729e+06	-50089.1	955.818	-29757.3	0.000000	0.000000	6.362871	0.024336	NaN	0.000000	0.001632	0.001631	28.076	0.129170	0.002119	60.9625	-8.412030	-167.018	0.066675	0.360997	-0.679126	-0.680439	0.024336	60.9625	-0.679425	-1.024103E+9	-2.376349E-11	NaN
229	1.000000	0.370300	7.36729e+06	-50089.1	955.818	-29757.3	0.000000	0.000000	6.370859	-0.029572	NaN	0.000000	0.001562	0.001641	28.0762	0.045471	0.001996	22.7796	105.246	-162.831	-0.069666	0.369019	-0.671136	-0.672416	-0.029572	22.7796	-0.670162	-7.649076E+8	3.866035E-11	NaN
229	1.000000	0.378320	7.36729e+06	-50089.1	955.819	-29757.3	0.000000	0.000000	6.378880	-0.004607	NaN	0.000000	0.001527	0.001652	28.0762	0.087731	0.002064	42.5072	60.3207	-163.688	-0.037591	0.377023	-0.663115	-0.664413	-0.004607	42.5072	-0.663034	-6.109728E+8	7.539788E-12	NaN
229	1.000000	0.386345	7.36729e+06	-50089.1	955.818	-29757.3	0.000000	0.000000	6.386906	0.008505	NaN	0.000000	0.001544	0.001606	28.0762	0.073132	0.002176	33.6068	-84.8778	-167.542	0.048801	0.385032	-0.655090	-0.656404	0.008505	33.6068	-0.655280	-4.784153E+8	-1.777792E-11	NaN
229	1.000000	0.394326	7.36729e+06	-50089.1	955.818	-29757.3	0.000000	0.000000	6.394886	-0.003061	NaN	0.000000	0.001512	0.001630	28.076	0.067078	0.002088	32.1307	178.02	-162.708	-0.062783	0.393003	-0.647109	-0.648433	-0.003061	32.1307	-0.647038	-3.688301E+8	8.297967E-12	NaN
229	1.000000	0.402322	7.36729e+06	-50089.1	955.819	-29757.3	0.000000	0.000000	6.402883	0.042453	NaN	0.000000	0.001558	0.001638	28.0763	0.056022	0.002021	27.7177	41.338	-164.668	-0.046708	0.400993	-0.639114	-0.640443	0.042453	27.7177	-0.640262	-2.977769E+8	-1.425673E-10	NaN
229	1.000000	0.410345	7.36729e+06	-50089.1	955.819	-29757.3	0.000000	0.000000	6.410905	0.001837	NaN	0.000000	0.001522	0.001626	28.0774	0.068468	0.001932	35.4447	88.235	-162.36	-0.053269	0.409001	-0.631091	-0.632434	0.001837	35.4447	-0.631129	-2.231174E+8	-8.234340E-12	NaN
229	1.000000	0.418339	7.36729e+06	-50089.1	955.818	-29757.3	0.000000	0.000000	6.418896	-0.059511	NaN	0.000000	0.001526	0.001607	28.0772	0.036496	0.002006	18.1916	-42.7608	-166.864	-0.032157	0.417067	-0.623097	-0.624368	-0.059511	18.1916	-0.620643	-1.601298E+8	3.716447E-10	NaN
229	1.000000	0.426327	7.36729e+06	-50089.1	955.818	-29757.3	0.000000	0.000000	6.426887	-0.017814	NaN	0.000000	0.001526	0.001643	28.0776	0.083658	0.002085	40.1243	-24.1296	-165.745	0.001445	0.425052	-0.615108	-0.616384	-0.017814	40.1243	-0.614775	-1.329835E+8	1.339542E-10	NaN
229	1.000000	0.434352	7.36729e+06	-50089.1	955.819	-29757.3	0.000000	0.000000	6.434911	-0.027350	NaN	0.000000	0.001573	0.001648	28.0776	0.068760	0.001994	34.4894	-6.489796	-167.028	-0.056720	0.433105	-0.607083	-0.608331	-0.027350	34.4894	-0.606488	-1.022796E+8	2.674081E-10	NaN
229	1.000000	0.442355	7.36729e+06	-50089.1	955.819	-29757.3	0.000000	0.000000	6.442915	0.004995	NaN	0.000000	0.001558	0.001644	28.0776	0.134917	0.002023	66.6873	-170.368	-167.599	0.040165	0.441046	-0.599081	-0.600389	0.004995	66.6873	-0.599137	-8.101617E+7	-6.165407E-11	NaN
229	1.000000	0.450354	7.36729e+06	-50089.1	955.818	-29757.3	0.000000	0.000000	6.450917	0.067410	NaN	0.000000	0.001562	0.001715	28.0773	0.022792	0.002043	11.154	38.3473	-166.458	0.038453	0.449009	-0.591081	-0.592427	0.067410	11.154	-0.595614	-7.245060E+7	-9.304300E-10	NaN
229	1.000000	0.458355	7.36729e+06	-50089.1	955.818	-29757.3	0.000000	0.000000	6.458917	0.037646	NaN	0.000000	0.001523	0.001697	28.0773	0.013279	0.002079	6.386135	-175.263	-169.285	-0.014135	0.457034	-0.583080	-0.584402	0.037646	6.386135	-0.587501	-5.600322E+7	-6.722109E-10	NaN
229	1.000000	0.466342	7.36729e+06	-50089.1	955.819	-29757.3	0.000000	0.000000	6.466901	-0.022868	NaN	0.000000	0.001573	0.001690	28.0776	0.141873	0.001962	72.3021	141.703	-165.901	0.036920	0.465042	-0.575094	-0.576393	-0.022868	72.3021	-0.574857	-3.747309E+7	6.102431E-10	NaN
229	1.000000	0.474367	7.36729e+06	-50089.1	955.819	-29757.3	0.000000	0.000000	6.474925	-0.035365	NaN	0.000000	0.001558	0.001725	28.0774	0.046629	0.001858	25.0991	51.6984	-164.055	-0.029420	0.473004	-0.567069	-0.568432	-0.035365	25.0991	-0.566012	-2.828237E+7	1.250438E-9	NaN
229	1.000000	0.482370	7.36729e+06	-50089.1	955.818	-29757.3	0.000000	0.000000	6.482932	0.048862	NaN	0.000000	0.001545	0.001692	28.0775	0.049378	0.002185	22.6033	178.245	-165.161	0.017923	0.481028	-0.559065	-0.560408	0.048862	22.6033	-0.560686	-2.387118E+7	-2.046914E-9	NaN
229	1.000000	0.490416	7.36729e+06	-50089.1	955.818	-29757.3	0.000000	0.000000	6.490976	0.011268	NaN	0.000000	0.001559	0.001708	28.0773	0.054485	0.001971	27.6367	-10.4252	-166.951	0.063061	0.489073	-0.551020	-0.552362	0.011268	27.6367	-0.551325	-1.771381E+7	-6.360939E-10	NaN
229	1.000000	0.498397	7.36729e+06	-50089.1	955.817	-29757.3	0.000000	0.000000	6.498955	-0.061081	NaN	0.000000	0.001546	0.001675	28.0772	0.093073	0.002007	46.3834	51.7803	-164.968	-0.018711	0.497077	-0.543038	-0.544358	-0.061081	46.3834	-0.542051	-1.317636E+7	4.635653E-9	NaN
229	1.000000	0.506380	7.36729e+06	-50089.1	955.818	-29757.3	0.000000	0.000000	6.506938	-0.032618	NaN	0.000000	0.001549	0.001718	28.077	0.122202	0.002013	60.7049	-95.7844	-167.751	0.001849	0.505059	-0.535056	-0.536376	-0.032618	60.7049	-0.534653	-1.040326E+7	3.135403E-9	NaN
229	1.000000	0.514340	7.36729e+06	-50089.1	955.819	-29757.3	0.000000	0.000000	6.514895	-0.137166	NaN	0.000000	0.001585	0.001673	28.0781	0.029673	0.001958	15.1547	80.4718	-165.81	-0.191921	0.513109	-0.527095	-0.528326	-0.137166	15.1547	-0.520307	-6.57454e+06	2.086319E-8	NaN
229	1.000000	0.522376	7.36729e+06	-50089.1	955.818	-29757.3	0.000000	0.000000	6.522936	0.017224	NaN	0.000000	0.001571	0.001693	28.0777	0.072682	0.002041	35.6098	74.6402	-165.85	0.043034	0.521052	-0.519060	-0.520383	0.017224	35.6098	-0.519423	-6.39097e+06	-2.694982E-9	NaN
229	1.000000	0.530372	7.36729e+06	-50089.1	955.818	-29757.3	0.000000	0.000000	6.530933	0.031476	NaN	0.000000	0.001577	0.001682	28.0773	0.161607	0.002001	80.7612	-125.454	-165.251	0.016396	0.529053	-0.511064	-0.512383	0.031476	80.7612	-0.511356	-4.93514e+06	-6.377977E-9	NaN
229	1.000000	0.538378	7.36729e+06	-50089.1	955.819	-29757.3	0.000000	0.000000	6.538935	-0.093996	NaN	0.000000	0.001592	0.001677	28.0773	0.120720	0.002033	59.3697	136.063	-166.811	-0.046146	0.537136	-0.503057	-0.504300	-0.093996	59.3697	-0.501870	-3.63996e+06	2.582328E-8	NaN
229	1.000000	0.546415	7.36729e+06	-50089.1	955.818	-29757.3	0.000000	0.000000	6.546973	-0.042013	NaN	0.000000	0.001543	0.001664	28.076	0.048726	0.001929	25.2553	173.642	-165.818	-0.079911	0.545052	-0.495020	-0.496384	-0.042013	25.2553	-0.493773	-2.80606e+06	1.497213E-8	NaN
229	1.000000	0.554395	7.36729e+06	-50089.1	955.819	-29757.3	0.000000	0.000000	6.554953	-0.055206	NaN	0.000000	0.001519	0.001737	28.0761	0.128483	0.002035	63.1246	68.1533	-164.59	0.033620	0.553054	-0.487040	-0.488382	-0.055206	63.1246	-0.486384	-2.21232e+06	2.495364E-8	NaN
229	1.000000	0.562395	7.36729e+06	-50089.1	955.818	-29757.3	0.000000	0.000000	6.562952	-0.052041	NaN	0.000000	0.001525	0.001670	28.0763	0.030802	0.001913	16.1052	19.2801	-168.707	0.017407	0.561027	-0.479041	-0.480408	-0.052041	16.1052	-0.476617	-1.61495e+06	3.222444E-8	NaN
229	1.000000	0.570415	7.36729e+06	-50089.1	955.818	-29757.3	0.000000	0.000000	6.570974	-0.022596	NaN	0.000000	0.001527	0.001669	28.076	0.050346	0.001952	25.7877	140.215	-163.746	-0.057974	0.569115	-0.471021	-0.472320	-0.022596	25.7877	-0.470363	-1.31979e+06	1.712059E-8	NaN
229	1.000000	0.578403	7.36729e+06	-50089.1	955.818	-29757.3	0.000000	0.000000	6.578964	0.029644	NaN	0.000000	0.001560	0.001667	28.0763	0.066770	0.002076	32.1683	-58.0661	-166.282	0.044989	0.577136	-0.463033	-0.464299	0.029644	32.1683	-0.463724	-1.06496e+06	-2.783605E-8	NaN
229	1.000000	0.586411	7.36729e+06	-50089.1	955.819	-29757.3	0.000000	0.000000	6.586971	-0.010165	NaN	0.000000	0.001594	0.001650	28.0766	0.061999	0.002051	30.2266	43.3461	-164.643	-0.032721	0.585071	-0.455024	-0.456365	-0.010165	30.2266	-0.454772	-797091	1.275242E-8	NaN
229	1.000000	0.594438	7.36729e+06	-50089.1	955.819	-29757.3	0.000000	0.000000	6.595000	0.058530	NaN	0.000000	0.001582	0.001651	28.0764	0.070394	0.001862	37.8104	-3.384495	-164.214	-0.002610	0.593104	-0.446998	-0.448332	0.058530	37.8104	-0.448159	-643291	-9.098543E-8	NaN
229	1.000000	0.602441	7.36729e+06	-50089.1	955.818	-29757.3	0.000000	0.000000	6.603002	0.027537	NaN	0.000000	0.001581	0.001633	28.0762	0.036652	0.002102	17.4367	-153.31	-160.687	0.003144	0.601112	-0.438994	-0.440324	0.027537	17.4367	-0.440179	-496461	-5.546588E-8	NaN
229	1.000000	0.610419	7.36729e+06	-50089.1	955.818	-29757.3	0.000000	0.000000	6.610976	-0.075718	NaN	0.000000	0.001629	0.001679	28.0761	0.031856	0.001957	16.2757	152.1	-164.98	-0.017762	0.609110	-0.431017	-0.432325	-0.075718	16.2757	-0.427528	-328908	2.302093E-7	NaN
229	1.000000	0.618411	7.36729e+06	-50089.1	955.818	-29757.3	0.000000	0.000000	6.618974	0.059376	NaN	0.000000	0.001639	0.001678	28.0766	0.190633	0.001972	96.663	159.028	-166.459	0.025583	0.617108	-0.423024	-0.424327	0.059376	96.663	-0.423485	-288284	-2.059639E-7	NaN
229	1.000000	0.626397	7.36729e+06	-50089.1	955.818	-29757.3	0.000000	0.000000	6.626957	0.007409	NaN	0.000000	0.001586	0.001729	28.0764	0.018139	0.001976	9.180622	97.3428	-164.089	-0.052695	0.625176	-0.415039	-0.416260	0.007409	9.180622	-0.415644	-223150	-3.320294E-8	NaN
229	1.000000	0.634428	7.36729e+06	-50089.1	955.818	-29757.3	0.000000	0.000000	6.634987	-0.031288	NaN	0.000000	0.001581	0.001737	28.0766	0.047419	0.001936	24.4933	-178.806	-166.378	-0.092370	0.633142	-0.407007	-0.408294	-0.031288	24.4933	-0.406049	-162998	1.919559E-7	NaN
229	1.000000	0.642443	7.36729e+06	-50089.1	955.819	-29757.3	0.000000	0.000000	6.643000	-0.065819	NaN	0.000000	0.001580	0.001751	28.0762	0.037104	0.001918	19.3408	30.7048	-167.347	-0.000471	0.641086	-0.398992	-0.400349	-0.065819	19.3408	-0.396440	-118905	5.535438E-7	NaN
229	1.000000	0.650454	7.36729e+06	-50089.1	955.819	-29757.3	0.000000	0.000000	6.651014	-0.007738	NaN	0.000000	0.001591	0.001712	28.0761	0.016168	0.002032	7.956007	-84.9224	-169.186	-0.060804	0.649191	-0.390981	-0.392245	-0.007738	7.956007	-0.390252	-96999.9	7.976935E-8	NaN
229	1.000000	0.658446	7.36729e+06	-50089.1	955.819	-29757.3	0.000000	0.000000	6.659002	-0.081445	NaN	0.000000	0.001556	0.001717	28.0764	0.026821	0.002042	13.1341	56.5581	-167.53	-0.093730	0.657188	-0.382990	-0.384247	-0.081445	13.1341	-0.378339	-65470.2	1.244004E-6	NaN
229	1.000000	0.666444	7.36729e+06	-50089.1	955.818	-29757.3	0.000000	0.000000	6.667003	-0.011085	NaN	0.000000	0.001630	0.001718	28.0763	0.061727	0.001958	31.5321	121.165	-164.823	-0.001112	0.665175	-0.374992	-0.376260	-0.011085	31.5321	-0.374728	-58097.7	1.907983E-7	NaN
229	1.000000	0.674459	7.36729e+06	-50089.1	955.818	-29757.3	0.000000	0.000000	6.675022	0.065496	NaN	0.000000	0.001668	0.001711	28.0764	0.102964	0.001968	52.3251	69.0413	-165.031	0.058343	0.673162	-0.366976	-0.368273	0.065496	52.3251	-0.367915	-46353.8	-1.412955E-6	NaN
229	1.000000	0.682444	7.36729e+06	-50089.1	955.819	-29757.3	0.000000	0.000000	6.683003	-0.022704	NaN	0.000000	0.001616	0.001738	28.0774	0.041843	0.002022	20.6928	33.0729	-165.494	0.010428	0.681185	-0.358991	-0.360251	-0.022704	20.6928	-0.358168	-33524.2	6.772512E-7	NaN
229	1.000000	0.690497	7.36729e+06	-50089.1	955.819	-29757.3	0.000000	0.000000	6.691056	-0.046315	NaN	0.000000	0.001631	0.001692	28.0775	0.075232	0.001975	38.101	-32.3032	-167.567	-0.000468	0.689149	-0.350938	-0.352286	-0.046315	38.101	-0.350026	-25549.6	1.812740E-6	NaN
229	1.000000	0.698467	7.36729e+06	-50089.1	955.818	-29757.3	0.000000	0.000000	6.699025	-0.055150	NaN	0.000000	0.001611	0.001698	28.0773	0.046458	0.001965	23.6378	-77.4195	-165.381	-0.044488	0.697152	-0.342968	-0.344284	-0.055150	23.6378	-0.341218	-19024.2	2.898960E-6	NaN
229	1.000000	0.706462	7.36729e+06	-50089.1	955.818	-29757.3	0.000000	0.000000	6.707020	-0.057078	NaN	0.000000	0.001553	0.001710	28.0773	0.028248	0.002031	13.9117	-48.9254	-162.294	-0.044428	0.705118	-0.334973	-0.336317	-0.057078	13.9117	-0.331896	-13906.2	4.104525E-6	NaN
229	1.000000	0.714480	7.36729e+06	-50089.1	955.818	-29757.3	0.000000	0.000000	6.715040	0.007548	NaN	0.000000	0.001553	0.001678	28.0776	0.135237	0.001924	70.2743	-73.5846	-166.745	0.020692	0.713124	-0.326956	-0.328311	0.007548	70.2743	-0.327036	-11803.6	-6.394337E-7	NaN
229	1.000000	0.722482	7.36729e+06	-50089.1	955.819	-29757.3	0.000000	0.000000	6.723043	-0.000361	NaN	0.000000	0.001542	0.001714	28.0772	0.068578	0.002060	33.2869	-72.2297	-165.576	0.006802	0.721175	-0.318953	-0.320260	-0.000361	33.2869	-0.318945	-8976.42	4.023422E-8	NaN
229	1.000000	0.730488	7.36729e+06	-50089.1	955.818	-29757.3	0.000000	0.000000	6.731047	-0.024560	NaN	0.000000	0.001569	0.001703	28.0776	0.007822	0.002108	3.710602	44.3632	-166.773	0.033546	0.729163	-0.310948	-0.312273	-0.024560	3.710602	-0.305984	-5774.95	4.252811E-6	NaN
229	1.000000	0.738463	7.36729e+06	-50089.1	955.818	-29757.3	0.000000	0.000000	6.739023	-0.002858	NaN	0.000000	0.001556	0.001717	28.0774	0.122553	0.002001	61.2423	-84.0796	-167.65	0.018062	0.737204	-0.302972	-0.304232	-0.002858	61.2423	-0.302937	-5203.83	5.492479E-7	NaN
229	1.000000	0.746525	7.36729e+06	-50089.1	955.818	-29757.3	0.000000	0.000000	6.747084	-0.024110	NaN	0.000000	0.001614	0.001721	28.0773	0.037500	0.002083	18.0056	-88.0298	-161.614	-0.001429	0.745190	-0.294911	-0.296245	-0.024110	18.0056	-0.293906	-3817.27	6.316101E-6	NaN
229	1.000000	0.754501	7.36729e+06	-50089.1	955.819	-29757.3	0.000000	0.000000	6.755062	0.022424	NaN	0.000000	0.001579	0.001704	28.0779	0.063642	0.001974	32.2447	-133.733	-165.056	-0.008824	0.753170	-0.286935	-0.288266	0.022424	32.2447	-0.287456	-3056.05	-7.337410E-6	NaN
229	1.000000	0.762492	7.36729e+06	-50089.1	955.818	-29757.3	0.000000	0.000000	6.763051	-0.027314	NaN	0.000000	0.001594	0.001677	28.0773	0.024836	0.002108	11.7842	-126.965	-168.386	-0.007097	0.761180	-0.278943	-0.280255	-0.027314	11.7842	-0.277205	-2141.71	1.275353E-5	NaN
229	1.000000	0.770481	7.36729e+06	-50089.1	955.817	-29757.3	0.000000	0.000000	6.771040	-0.008704	NaN	0.000000	0.001607	0.001659	28.0776	0.066120	0.002024	32.6722	-24.4671	-166.824	-0.080650	0.769194	-0.270955	-0.272242	-0.008704	32.6722	-0.270755	-1710.08	5.089561E-6	NaN
229	1.000000	0.778549	7.36729e+06	-50089.1	955.819	-29757.3	0.000000	0.000000	6.779107	-0.049116	NaN	0.000000	0.001608	0.001669	28.0774	0.016535	0.002080	7.950095	47.9376	-167.551	-0.051283	0.777177	-0.262886	-0.264259	-0.049116	7.950095	-0.258253	-1101.84	4.457630E-5	NaN
229	1.000000	0.786508	7.36729e+06	-50089.1	955.819	-29757.3	0.000000	0.000000	6.787068	-0.021609	NaN	0.000000	0.001572	0.001685	28.0771	0.111032	0.002036	54.5358	-78.8624	-165.932	-0.085832	0.785193	-0.254927	-0.256243	-0.021609	54.5358	-0.254630	-969.206	2.229588E-5	NaN
229	1.000000	0.794514	7.36729e+06	-50089.1	955.819	-29757.3	0.000000	0.000000	6.795073	-0.038697	NaN	0.000000	0.001588	0.001666	28.0773	0.061651	0.001939	31.7892	-68.8267	-167.158	-0.022548	0.793231	-0.246921	-0.248204	-0.038697	31.7892	-0.246008	-713.038	5.427117E-5	NaN
229	1.000000	0.802519	7.36729e+06	-50089.1	955.819	-29757.3	0.000000	0.000000	6.803078	-0.036286	NaN	0.000000	0.001581	0.001661	28.0771	0.110570	0.002062	53.6189	46.7562	-167.461	-0.015119	0.801204	-0.238916	-0.240231	-0.036286	53.6189	-0.238409	-542.848	6.684360E-5	NaN
229	1.000000	0.810542	7.36729e+06	-50089.1	955.818	-29757.3	0.000000	0.000000	6.811100	-0.045557	NaN	0.000000	0.001591	0.001674	28.0775	0.054868	0.001935	28.3482	-143.944	-168.264	-0.076897	0.809187	-0.230894	-0.232249	-0.045557	28.3482	-0.229688	-395.911	0.000115	NaN
229	1.000000	0.818526	7.36729e+06	-50089.1	955.818	-29757.3	0.000000	0.000000	6.819084	-0.044720	NaN	0.000000	0.001592	0.001689	28.076	0.022247	0.002070	10.7463	-109.672	-166.89	-0.061767	0.817214	-0.222910	-0.224221	-0.044720	10.7463	-0.219788	-275.61	0.000162	NaN
229	1.000000	0.826513	7.36729e+06	-50089.1	955.819	-29757.3	0.000000	0.000000	6.827070	-0.076395	NaN	0.000000	0.001564	0.001673	28.076	0.086168	0.001983	43.4559	-8.813212	-162.144	-0.031024	0.825233	-0.214923	-0.216203	-0.076395	43.4559	-0.213604	-219.302	0.000348	NaN
229	1.000000	0.834562	7.36729e+06	-50089.1	955.818	-29757.3	0.000000	0.000000	6.835118	-0.101469	NaN	0.000000	0.001567	0.001660	28.0765	0.062990	0.001940	32.4741	6.042961	-166.8	-0.061675	0.833248	-0.206873	-0.208188	-0.101469	32.4741	-0.204530	-156.273	0.000649	NaN
229	1.000000	0.842556	7.36729e+06	-50089.1	955.819	-29757.3	0.000000	0.000000	6.843113	-0.071976	NaN	0.000000	0.001544	0.001641	28.076	0.053458	0.002061	25.9382	113.784	-165.859	-0.013741	0.841220	-0.198879	-0.200215	-0.071976	25.9382	-0.196798	-116.666	0.000617	NaN
229	1.000000	0.850543	7.36729e+06	-50089.1	955.817	-29757.3	0.000000	0.000000	6.851103	-0.007657	NaN	0.000000	0.001583	0.001671	28.0763	0.086128	0.002014	42.7615	-54.5105	-164.874	0.039852	0.849233	-0.190892	-0.192202	-0.007657	42.7615	-0.190758	-92.6156	8.267769E-5	NaN
229	1.000000	0.858531	7.36729e+06	-50089.1	955.818	-29757.3	0.000000	0.000000	6.859090	-0.031768	NaN	0.000000	0.001566	0.001693	28.0759	0.113766	0.002018	56.3623	-54.6702	-165.916	-0.004967	0.857177	-0.182904	-0.184258	-0.031768	56.3623	-0.182482	-67.2337	0.000472	NaN
229	1.000000	0.866519	7.36729e+06	-50089.1	955.817	-29757.3	0.000000	0.000000	6.867079	-0.003766	NaN	0.000000	0.001543	0.001673	28.0759	0.072775	0.001961	37.1056	11.5591	-167.356	0.019625	0.865227	-0.174916	-0.176209	-0.003766	37.1056	-0.174840	-49.8	7.562326E-5	NaN
229	1.000000	0.874560	7.36729e+06	-50089.1	955.818	-29757.3	0.000000	0.000000	6.875118	-0.070282	NaN	0.000000	0.001564	0.001676	28.0761	0.048631	0.002082	23.3603	-12.7887	-164.862	0.070475	0.873246	-0.166875	-0.168189	-0.070282	23.3603	-0.164619	-33.083	0.002124	NaN
229	1.000000	0.882522	7.36729e+06	-50089.1	955.819	-29757.3	0.000000	0.000000	6.883082	-0.000877	NaN	0.000000	0.001579	0.001662	28.0759	0.072389	0.001979	36.5776	121.131	-168.911	-0.004396	0.881294	-0.158914	-0.160142	-0.000877	36.5776	-0.158896	-26.2023	3.345571E-5	NaN
229	1.000000	0.890545	7.36729e+06	-50089.1	955.819	-29757.3	0.000000	0.000000	6.891106	0.041613	NaN	0.000000	0.001587	0.001684	28.076	0.046722	0.001800	25.9525	-150.366	-168.327	0.014441	0.889256	-0.150891	-0.152179	0.041613	25.9525	-0.152094	-19.7732	-0.002105	NaN
229	1.000000	0.898550	7.36729e+06	-50089.1	955.818	-29757.3	0.000000	0.000000	6.899112	0.029110	NaN	0.000000	0.001575	0.001660	28.0763	0.069023	0.001922	35.9128	-114.1	-166.128	-0.061708	0.897245	-0.142885	-0.144191	0.029110	35.9128	-0.143493	-13.7476	-0.002117	NaN
229	1.000000	0.906564	7.36729e+06	-50089.1	955.818	-29757.3	0.000000	0.000000	6.907122	-0.038533	NaN	0.000000	0.001575	0.001667	28.0765	0.124942	0.001937	64.495	-88.5639	-163.458	-0.109043	0.905255	-0.134872	-0.136181	-0.038533	64.495	-0.134424	-9.274151	0.004155	NaN
229	1.000000	0.914550	7.36729e+06	-50089.1	955.819	-29757.3	0.000000	0.000000	6.915109	-0.014574	NaN	0.000000	0.001573	0.001685	28.0761	0.139750	0.002037	68.605	150.35	-163.264	-0.027966	0.913249	-0.126886	-0.128186	-0.014574	68.605	-0.126726	-6.577204	0.002216	NaN
229	1.000000	0.922548	7.36729e+06	-50089.1	955.819	-29757.3	0.000000	0.000000	6.923109	0.027142	NaN	0.000000	0.001555	0.001685	28.0762	0.054897	0.001936	28.3497	-115.636	-162.963	0.031748	0.921205	-0.118887	-0.120230	0.027142	28.3497	-0.119605	-4.743623	-0.005722	NaN
229	1.000000	0.930592	7.36729e+06	-50089.1	955.819	-29757.3	0.000000	0.000000	6.931151	-0.028854	NaN	0.000000	0.001564	0.001718	28.076	0.085685	0.002005	42.736	-61.7699	-162.327	-0.013562	0.929232	-0.110843	-0.112204	-0.028854	42.736	-0.110337	-3.054752	0.009446	NaN
229	1.000000	0.938540	7.36729e+06	-50089.1	955.818	-29757.3	0.000000	0.000000	6.939101	0.020424	NaN	0.000000	0.001579	0.001684	28.0759	0.061346	0.001924	31.8899	153.343	-166.918	0.030260	0.937237	-0.102895	-0.104198	0.020424	31.8899	-0.103376	-2.167401	-0.009423	NaN
229	1.000000	0.946582	7.36729e+06	-50089.1	955.818	-29757.3	0.000000	0.000000	6.947141	-0.028367	NaN	0.000000	0.001577	0.001658	28.0763	0.132863	0.001989	66.7891	110.061	-165.382	-0.014904	0.945276	-0.094853	-0.096159	-0.028367	66.7891	-0.094535	-1.376557	0.020607	NaN
229	1.000000	0.954562	7.36729e+06	-50089.1	955.819	-29757.3	0.000000	0.000000	6.955120	-0.043212	NaN	0.000000	0.001606	0.001638	28.0773	0.090479	0.002036	44.4384	-172.296	-163.478	0.068171	0.953260	-0.086874	-0.088175	-0.043212	44.4384	-0.086144	-0.875545	0.049355	NaN
229	1.000000	0.962565	7.36729e+06	-50089.1	955.818	-29757.3	0.000000	0.000000	6.963125	0.015617	NaN	0.000000	0.001565	0.001647	28.0774	0.075501	0.001902	39.6989	-89.0402	-164.941	-0.058589	0.961282	-0.078871	-0.080154	0.015617	39.6989	-0.079166	-0.589887	-0.026474	NaN
229	1.000000	0.970568	7.36729e+06	-50089.1	955.818	-29757.3	0.000000	0.000000	6.971127	-0.009329	NaN	0.000000	0.001561	0.001676	28.0773	0.071750	0.001919	37.3828	-146.725	-167.834	0.026455	0.969287	-0.070868	-0.072148	-0.009329	37.3828	-0.070681	-0.355698	0.026228	NaN
229	1.000000	0.978556	7.36729e+06	-50089.1	955.819	-29757.3	0.000000	0.000000	6.979116	-0.002627	NaN	0.000000	0.001586	0.001671	28.0775	0.043121	0.002115	20.3912	-70.2805	-163.531	-0.050913	0.977204	-0.062880	-0.064231	-0.002627	20.3912	-0.062783	-0.216079	0.012157	NaN
229	1.000000	0.986582	7.36729e+06	-50089.1	955.818	-29757.3	0.000000	0.000000	6.987140	-0.064379	NaN	0.000000	0.001643	0.001658	28.0774	0.012267	0.001979	6.198392	-135.166	-164.626	-0.104382	0.985306	-0.054853	-0.056129	-0.064379	6.198392	-0.047063	-0.074305	0.866424	NaN
229	1.000000	0.994584	7.36729e+06	-50089.1	955.819	-29757.3	0.000000	0.000000	6.995145	0.015973	NaN	0.000000	0.001610	0.001684	28.0773	0.100629	0.002069	48.6319	-112.014	-164.243	-0.000378	0.993274	-0.046851	-0.048162	0.015973	48.6319	-0.047098	-0.074485	-0.214439	NaN
229	1.000000	1.002579	7.36729e+06	-50089.1	955.819	-29757.3	0.000000	0.000000	7.003138	-0.024570	NaN	0.000000	0.001578	0.001689	28.0777	0.033075	0.001827	18.1068	117.829	-168.811	-0.036854	1.001305	-0.038857	-0.040131	-0.024570	18.1068	-0.037839	-0.038906	0.631527	NaN
229	1.000000	1.010576	7.36729e+06	-50089.1	955.819	-29757.3	0.000000	0.000000	7.011135	-0.040979	NaN	0.000000	0.001596	0.001669	28.0774	0.062645	0.001902	32.9402	-86.2022	-167.757	-0.050770	1.009284	-0.030859	-0.032151	-0.040979	32.9402	-0.029926	-0.022904	1.789153	NaN
229	1.000000	1.018570	7.36729e+06	-50089.1	955.819	-29757.3	0.000000	0.000000	7.019130	-0.005223	NaN	0.000000	0.001543	0.001670	28.0774	0.028622	0.001948	14.6894	-68.269	-164.457	0.003421	1.017297	-0.022865	-0.024138	-0.005223	14.6894	-0.022599	-0.014627	0.357085	NaN
229	1.000000	1.026607	7.36729e+06	-50089.1	955.819	-29757.3	0.000000	0.000000	7.027166	-0.007881	NaN	0.000000	0.001565	0.001702	28.0773	0.083741	0.002018	41.5036	-143.324	-166.001	0.024008	1.025311	-0.014829	-0.016124	-0.007881	41.5036	-0.014686	-0.009088	0.867206	NaN
229	1.000000	1.034596	7.36729e+06	-50089.1	955.818	-29757.3	0.000000	0.000000	7.035155	-0.014283	NaN	0.000000	0.001568	0.001668	28.0773	0.153897	0.001994	77.1959	165.894	-166.609	-0.013851	1.033295	-0.006840	-0.008140	-0.014283	77.1959	-0.006701	-0.004461	3.201539	NaN
229	1.000000	1.042612	7.36729e+06	-50089.1	955.819	-29757.3	0.000000	0.000000	7.043187	0.369322	NaN	0.000000	0.001583	0.001653	28.078	0.742716	0.001889	393.102	13.0365	-165.52	-0.038397	1.041298	0.001176	-0.000137	0.369322	393.102	0.000472	0.000356	1037.82	19038.7
229	1.000000	1.050487	7.36729e+06	-50089.1	955.818	-29757.3	0.000000	0.000000	7.051393	8.407064	NaN	0.000000	0.001597	0.001674	28.0775	8.124764	0.001658	4899.12	10.1765	-172.163	7.040207	1.049250	0.009052	0.007814	8.407064	4899.12	0.007765	0.006801	1236.08	54274
229	2.000000	1.053150	7.36729e+06	-50089.1	955.818	-29757.3	0.000000	0.000000	7.054111	9.752152	NaN	0.000000	0.001592	0.001656	28.0775	10.4579	0.001706	6128.68	7.335069	-170.752	9.567875	1.052814	0.011714	0.011379	9.752152	6128.68	0.010521	0.009766	998.588	56660.8
229	2.000000	1.055121	7.36729e+06	-50089.1	955.817	-29757.3	0.000000	0.000000	7.056197	12.5611	NaN	0.000000	0.001591	0.001657	28.0775	12.9862	0.001701	7633.58	9.517042	-177.889	11.7874	1.054877	0.013685	0.013442	12.5611	7633.58	0.012451	0.012035	1043.74	63574.6
229	2.000000	1.057148	7.36729e+06	-50089.1	955.818	-29757.3	0.000000	0.000000	7.058287	14.0807	NaN	0.000000	0.001585	0.001668	28.0772	14.9514	0.001745	8569.33	10.6596	-179.243	14.2977	1.056864	0.015713	0.015428	14.0807	8569.33	0.014480	0.014599	964.504	64797.8
229	2.000000	1.059116	7.36729e+06	-50089.1	955.818	-29757.3	0.000000	0.000000	7.060417	18.012	NaN	0.000000	0.001583	0.001647	28.0777	17.5886	0.001977	8898.44	11.8117	-178.765	18.5205	1.058783	0.017681	0.017348	18.012	8898.44	0.016163	0.016867	1067.86	62598.6
229	2.000000	1.061033	7.36729e+06	-50089.1	955.819	-29757.3	0.000000	0.000000	7.062518	22.4902	NaN	0.000000	0.001586	0.001665	28.0761	18.9523	0.001802	10516.1	10.1192	-179.627	21.4419	1.060755	0.019598	0.019320	22.4902	10516.1	0.017994	0.019487	1154.11	68826.2
229	2.000000	1.063040	7.36729e+06	-50089.1	955.818	-29757.3	0.000000	0.000000	7.064673	26.0836	NaN	0.000000	0.001602	0.001702	28.0767	20.4265	0.001744	11712.3	4.477041	-174.53	25.3114	1.062762	0.021605	0.021327	26.0836	11712.3	0.019934	0.022439	1162.42	71435.6
229	2.000000	1.065108	7.36729e+06	-50089.1	955.818	-29757.3	0.000000	0.000000	7.066808	27.7175	NaN	0.000000	0.001575	0.001689	28.0764	22.8612	0.001848	12368.6	5.357240	-175.46	27.7184	1.064801	0.023673	0.023366	27.7175	12368.6	0.021992	0.025770	1075.59	70395
229	2.000000	1.067051	7.36729e+06	-50089.1	955.819	-29757.3	0.000000	0.000000	7.068932	32.1373	NaN	0.000000	0.001594	0.001624	28.0763	24.5437	0.001805	13596	4.979217	-176.163	32.237	1.066721	0.025615	0.025285	32.1373	13596	0.023843	0.028944	1110.35	73014.6
229	2.000000	1.069024	7.36729e+06	-50089.1	955.819	-29757.3	0.000000	0.000000	7.071090	36.6086	NaN	0.000000	0.001597	0.001654	28.0767	26.8575	0.001747	15369.8	1.976808	-175.165	34.2482	1.068760	0.027589	0.027325	36.6086	15369.8	0.025802	0.032492	1126.71	77903.4
229	2.000000	1.071017	7.36729e+06	-50089.1	955.819	-29757.3	0.000000	0.000000	7.073354	43.2258	NaN	0.000000	0.001575	0.001682	28.0761	28.2038	0.001716	16437.9	5.403320	-178.16	42.047	1.070716	0.029581	0.029281	43.2258	16437.9	0.027609	0.035933	1202.94	79226.2
229	2.000000	1.073041	7.36729e+06	-50089.1	955.819	-29757.3	0.000000	0.000000	7.075514	46.5238	NaN	0.000000	0.001562	0.001666	28.077	31.7695	0.001938	16395	7.494975	179.254	45.8568	1.072660	0.031606	0.031225	46.5238	16395	0.029477	0.039668	1172.84	75208.4
229	2.000000	1.075057	7.36729e+06	-50089.1	955.818	-29757.3	0.000000	0.000000	7.077721	51.1684	NaN	0.000000	0.001563	0.001639	28.0762	33.3491	0.001824	18285	5.612792	178.923	50.0379	1.074786	0.033621	0.033350	51.1684	18285	0.031523	0.043959	1164.01	79679.5
229	2.000000	1.077042	7.36729e+06	-50089.1	955.819	-29757.3	0.000000	0.000000	7.079965	57.445	NaN	0.000000	0.001591	0.001680	28.0762	34.4535	0.001746	19736	2.747126	-179.348	56.8872	1.076760	0.035607	0.035325	57.445	19736	0.033424	0.048140	1193.3	82182.6
229	2.000000	1.079010	7.36729e+06	-50089.1	955.818	-29757.3	0.000000	0.000000	7.082163	63.0613	NaN	0.000000	0.001565	0.001678	28.0765	36.5244	0.001794	20364.9	2.531363	-178.903	60.9091	1.078757	0.037574	0.037321	63.0613	20364.9	0.035252	0.052334	1204.97	81332.1
229	2.000000	1.081012	7.36729e+06	-50089.1	955.818	-29757.3	0.000000	0.000000	7.084520	71.7023	NaN	0.000000	0.001586	0.001652	28.0766	36.8164	0.001561	23580.9	0.360996	-177.628	70.2627	1.080748	0.039576	0.039313	71.7023	23580.9	0.037296	0.057227	1252.95	90060.6
229	2.000000	1.083047	7.36729e+06	-50089.1	955.818	-29757.3	0.000000	0.000000	7.086827	78.3265	NaN	0.000000	0.001561	0.001658	28.0766	40.9186	0.001827	22391	8.371554	174.814	77.4794	1.082669	0.041611	0.041234	78.3265	22391	0.038988	0.061438	1274.89	82533
229	2.000000	1.084997	7.36729e+06	-50089.1	955.819	-29757.3	0.000000	0.000000	7.089075	85.5698	NaN	0.000000	0.001584	0.001650	28.0765	42.3997	0.001820	23298.8	7.023089	176.131	83.2752	1.084730	0.043561	0.043295	85.5698	23298.8	0.040807	0.066129	1293.98	82777
229	2.000000	1.087023	7.36729e+06	-50089.1	955.819	-29757.3	0.000000	0.000000	7.091281	89.9351	NaN	0.000000	0.001590	0.001628	28.0765	44.3394	0.001807	24539.5	10.2879	171.663	91.3864	1.086750	0.045588	0.045314	89.9351	24539.5	0.042839	0.071571	1256.58	83805
229	2.000000	1.089053	7.36729e+06	-50089.1	955.818	-29757.3	0.000000	0.000000	7.093703	99.4481	NaN	0.000000	0.001598	0.001653	28.0769	46.0383	0.001769	26030.3	5.369211	175.795	100.707	1.088799	0.047618	0.047364	99.4481	26030.3	0.044753	0.076887	1293.44	85768.3
229	2.000000	1.090965	7.36729e+06	-50089.1	955.818	-29757.3	0.000000	0.000000	7.096104	111.346	NaN	0.000000	0.001580	0.001653	28.0764	45.7877	0.001719	26629.9	3.621343	178.57	108.923	1.090611	0.049530	0.049175	111.346	26629.9	0.046394	0.081594	1364.63	85175
229	2.000000	1.093043	7.36729e+06	-50089.1	955.818	-29757.3	0.000000	0.000000	7.098128	110.033	NaN	0.000000	0.001560	0.001644	28.0766	50.7016	0.001784	28420.7	8.836311	171.74	112.759	1.092771	0.051608	0.051335	110.033	28420.7	0.048704	0.088449	1244.02	87309.6
229	2.000000	1.095059	7.36729e+06	-50089.1	955.818	-29757.3	0.000000	0.000000	7.100620	121.621	NaN	0.000000	0.001597	0.001650	28.0778	51.9554	0.001877	27675.3	4.206977	177.849	120.528	1.094718	0.053624	0.053282	121.621	27675.3	0.050328	0.093430	1301.74	82722.5
229	2.000000	1.096984	7.36729e+06	-50089.1	955.817	-29757.3	0.000000	0.000000	7.102875	129.624	NaN	0.000000	0.001578	0.001644	28.0778	54.0758	0.001797	30097.5	3.838268	176.599	126.688	1.096705	0.055549	0.055270	129.624	30097.5	0.052319	0.099715	1299.95	87081
229	2.000000	1.099054	7.36729e+06	-50089.1	955.817	-29757.3	0.000000	0.000000	7.105260	137.283	NaN	0.000000	0.001589	0.001635	28.0777	55.9008	0.001739	32146.7	4.920563	175.283	139.947	1.098749	0.057619	0.057314	137.283	32146.7	0.054416	0.106550	1288.44	89977.3
229	2.000000	1.100959	7.36729e+06	-50089.1	955.818	-29757.3	0.000000	0.000000	7.107715	150.676	NaN	0.000000	0.001591	0.001657	28.0776	57.0507	0.001838	31044.2	4.767812	175.993	147.856	1.100697	0.059524	0.059262	150.676	31044.2	0.055884	0.111463	1351.8	84955
229	2.000000	1.102980	7.36729e+06	-50089.1	955.819	-29757.3	0.000000	0.000000	7.109923	155.22	NaN	0.000000	0.001554	0.001688	28.0775	59.9159	0.001786	33547.3	6.632116	173.525	153.257	1.102665	0.061545	0.061229	155.22	33547.3	0.058075	0.118996	1304.42	88851.7
229	2.000000	1.104978	7.36729e+06	-50089.1	955.819	-29757.3	0.000000	0.000000	7.112136	160.441	NaN	0.000000	0.001560	0.001703	28.0775	61.3918	0.001782	34446.7	1.923305	177.342	158.283	1.104749	0.063543	0.063313	160.441	34446.7	0.060050	0.125987	1273.47	88666.4
229	2.000000	1.107028	7.36729e+06	-50089.1	955.819	-29757.3	0.000000	0.000000	7.114614	170.845	NaN	0.000000	0.001599	0.001714	28.0775	63.0334	0.001854	33990.4	2.074794	177.671	172.493	1.106783	0.065593	0.065348	170.845	33990.4	0.061823	0.132427	1290.1	85337.5
229	2.000000	1.109008	7.36729e+06	-50089.1	955.818	-29757.3	0.000000	0.000000	7.117146	184.299	NaN	0.000000	0.001569	0.001674	28.0776	65.7497	0.001793	36661.7	3.035922	175.706	185.63	1.108800	0.067572	0.067365	184.299	36661.7	0.063802	0.139794	1318.36	89586.3
229	2.000000	1.110967	7.36729e+06	-50089.1	955.818	-29757.3	0.000000	0.000000	7.119882	203.177	NaN	0.000000	0.001597	0.001659	28.0775	66.3686	0.001744	38047	6.385454	173.182	201.177	1.110629	0.069532	0.069194	203.177	38047	0.065527	0.146369	1388.12	90859.4
229	2.000000	1.112913	7.36729e+06	-50089.1	955.818	-29757.3	0.000000	0.000000	7.122086	209.457	NaN	0.000000	0.001595	0.001669	28.0775	69.4705	0.001898	36600	5.403835	173.6	205.282	1.112648	0.071477	0.071213	209.457	36600	0.067185	0.152826	1370.56	85537.2
229	2.000000	1.114988	7.36729e+06	-50089.1	955.819	-29757.3	0.000000	0.000000	7.124679	222.051	NaN	0.000000	0.001599	0.001717	28.0777	69.3478	0.001633	42460.2	4.417031	174.498	221.17	1.114642	0.073553	0.073207	222.051	42460.2	0.069631	0.162589	1365.72	96207.6
229	2.000000	1.116942	7.36729e+06	-50089.1	955.818	-29757.3	0.000000	0.000000	7.126976	230.378	NaN	0.000000	0.001593	0.001673	28.0779	70.9218	0.001738	40813.4	2.920544	175.092	227.883	1.116624	0.075507	0.075188	230.378	40813.4	0.071273	0.169306	1360.72	90623.3
229	2.000000	1.118980	7.36729e+06	-50089.1	955.819	-29757.3	0.000000	0.000000	7.129156	233.86	NaN	0.000000	0.001564	0.001687	28.0776	74.5365	0.001936	38496.5	4.836692	173.846	232.714	1.118742	0.077544	0.077307	233.86	38496.5	0.072988	0.176455	1325.32	83729.3
229	2.000000	1.120953	7.36729e+06	-50089.1	955.819	-29757.3	0.000000	0.000000	7.132048	256.194	NaN	0.000000	0.001597	0.001673	28.0775	74.8548	0.001746	42882.7	4.018258	173.748	255.149	1.120602	0.079518	0.079166	256.194	42882.7	0.075037	0.185179	1383.5	91045.8
229	2.000000	1.122975	7.36729e+06	-50089.1	955.819	-29757.3	0.000000	0.000000	7.134160	258.384	NaN	0.000000	0.001589	0.001668	28.0779	77.3547	0.001834	42179.2	3.631824	174.327	256.897	1.122719	0.081539	0.081284	258.384	42179.2	0.076945	0.193481	1335.45	87609.9
229	2.000000	1.125011	7.36729e+06	-50089.1	955.819	-29757.3	0.000000	0.000000	7.137003	278.018	NaN	0.000000	0.001555	0.001683	28.0774	79.1462	0.001838	43050.4	4.864603	173.871	281.216	1.124625	0.083576	0.083190	278.018	43050.4	0.078732	0.201412	1380.34	87641.1
229	2.000000	1.126975	7.36729e+06	-50089.1	955.82	-29757.3	0.000000	0.000000	7.139442	289.542	NaN	0.000000	0.001608	0.001666	28.0775	81.0856	0.001833	44244.5	7.214990	170.964	288.392	1.126585	0.085540	0.085149	289.542	44244.5	0.080632	0.210006	1378.74	88209.9
229	2.000000	1.129020	7.36729e+06	-50089.1	955.818	-29757.3	0.000000	0.000000	7.142172	306.219	NaN	0.000000	0.001569	0.001668	28.0761	83.7278	0.001784	46930.3	7.485918	169.806	311.027	1.128612	0.087585	0.087177	306.219	46930.3	0.082691	0.219509	1395.01	91516.5
229	2.000000	1.130880	7.36729e+06	-50089.1	955.82	-29757.3	0.000000	0.000000	7.144686	322.132	NaN	0.000000	0.001582	0.001667	28.0765	83.0395	0.001752	47395.8	3.972013	173.146	317.825	1.130626	0.089445	0.089190	322.132	47395.8	0.084347	0.227297	1417.23	90827.3
229	2.000000	1.132855	7.36729e+06	-50089.1	955.82	-29757.3	0.000000	0.000000	7.147335	338.526	NaN	0.000000	0.001575	0.001630	28.0764	85.9063	0.001795	47864.5	-0.462708	177.466	333.109	1.132632	0.091420	0.091196	338.526	47864.5	0.086115	0.235750	1435.95	90066
229	2.000000	1.134951	7.36729e+06	-50089.1	955.82	-29757.3	0.000000	0.000000	7.150091	354.581	NaN	0.000000	0.001617	0.001647	28.076	89.3253	0.001763	50675.7	7.366230	169.476	351.305	1.134624	0.093515	0.093189	354.581	50675.7	0.088267	0.246234	1440.02	93303.6
229	2.000000	1.136881	7.36729e+06	-50089.1	955.819	-29757.3	0.000000	0.000000	7.152578	368.126	NaN	0.000000	0.001575	0.001648	28.0761	90.024	0.001791	50278.6	4.911498	172.169	364.271	1.136490	0.095445	0.095055	368.126	50278.6	0.089954	0.254599	1445.9	91039.1
229	2.000000	1.138921	7.36729e+06	-50089.1	955.819	-29757.3	0.000000	0.000000	7.155310	384.953	NaN	0.000000	0.001557	0.001678	28.0762	93.2435	0.001795	51946.7	2.643762	173.628	381.846	1.138705	0.097485	0.097270	384.953	51946.7	0.091927	0.264553	1455.11	92273.2
229	2.000000	1.140833	7.36729e+06	-50089.1	955.82	-29757.3	0.000000	0.000000	7.157691	396.346	NaN	0.000000	0.001574	0.001672	28.0765	93.1979	0.001764	52821.2	1.532028	174.798	388.962	1.140523	0.099398	0.099087	396.346	52821.2	0.093770	0.274008	1446.48	92193.3
229	2.000000	1.142925	7.36729e+06	-50089.1	955.819	-29757.3	0.000000	0.000000	7.160494	413.642	NaN	0.000000	0.001586	0.001669	28.0764	97.5306	0.001866	52275.3	8.342771	168.592	412.188	1.142573	0.101489	0.101137	413.642	52275.3	0.095555	0.283312	1460.02	89730
229	2.000000	1.144994	7.36729e+06	-50089.1	955.819	-29757.3	0.000000	0.000000	7.163384	433.617	NaN	0.000000	0.001583	0.001695	28.0763	97.5925	0.001769	55182.3	1.800387	174.989	436.132	1.144567	0.103558	0.103131	433.617	55182.3	0.097665	0.294500	1472.39	92903.2
229	2.000000	1.146955	7.36729e+06	-50089.1	955.82	-29757.3	0.000000	0.000000	7.166244	455.466	NaN	0.000000	0.001606	0.001681	28.0767	100.222	0.001810	55384.6	9.821955	166.343	455.721	1.146592	0.105519	0.105157	455.466	55384.6	0.099352	0.303590	1500.27	91837.2
229	2.000000	1.148976	7.36729e+06	-50089.1	955.819	-29757.3	0.000000	0.000000	7.168714	466.387	NaN	0.000000	0.001612	0.001681	28.0764	102.802	0.001782	57676.5	4.836124	170.829	467.25	1.148763	0.107540	0.107328	466.387	57676.5	0.101476	0.315221	1479.56	93856.7
229	2.000000	1.149885	7.36729e+06	-50089.1	955.819	-29757.3	0.000000	0.000000	7.170331	483.596	NaN	0.000000	0.001605	0.001702	28.0762	102.505	0.001813	56541.4	5.699705	170.8	482.006	1.149475	0.108450	0.108040	483.596	56541.4	0.102035	0.318319	1519.22	91560.6