File: remote_trans/data/nanoindenter/0828-1/data/Data_2025-08-06,11h17m57s/2025-07-22_16-23-58_1_119.txt
2025-07-22, 16:23:58, 1
Index	Phase	Displacement	Time	Pos X	Pos Y	Pos Z	Rot A	Rot B	Piezo Z	Force A	Force B	Gripper	Voltage A	Voltage B	Temperature	Amplitude force	Amplitude pos	Stiffness	Phase shift	Phase excitation	Force A raw	Displacement raw	HMax	HMax raw	Real Force	Real Stiffness	Contact Depth	Area	Hardness	Reduced Mod.
[#]	[#]	[um]	[s]	[um]	[um]	[um]	[m°]	[m°]	[um]	[uN]	[uN]	[V]	[V]	[V]	[°C]	[uN]	[um]	[N/m]	[°]	[°]	[uN]	[um]	[um]	[um]	[uN]	[N/m]	[um]	[um^2]	[MPa]	[MPa]
119	1.000000	0.002754	7.3662e+06	-44589.1	955.818	-29775.8	0.000000	0.000000	6.002760	0.087794	NaN	0.000000	0.001680	0.001684	28.0908	0.146323	0.001010	144.869	-74.5579	-166.017	0.017178	0.001529	-1.090356	-1.091581	0.087794	144.869	-1.090811	-3.773117E+14	-2.326828E-16	NaN
119	1.000000	0.012849	7.3662e+06	-44589.1	955.819	-29775.8	0.000000	0.000000	6.012849	-0.044164	NaN	0.000000	0.001706	0.001705	28.1295	0.135997	0.001204	112.999	43.2043	14.6775	0.028296	0.011385	-1.080262	-1.081726	-0.044164	112.999	-1.079969	-2.698388E+14	1.636686E-16	NaN
119	1.000000	0.022765	7.3662e+06	-44589.1	955.818	-29775.8	0.000000	0.000000	6.022769	0.037229	NaN	0.000000	0.001664	0.001668	28.1063	0.058474	0.001700	34.3957	-103.979	-162.908	0.046439	0.021445	-1.070346	-1.071665	0.037229	34.3957	-1.071157	-2.054653E+14	-1.811943E-16	NaN
119	1.000000	0.032737	7.3662e+06	-44589.1	955.818	-29775.8	0.000000	0.000000	6.032738	-0.051650	NaN	0.000000	0.001656	0.001676	28.0802	0.042654	0.002002	21.3051	-176.164	14.5862	-0.027902	0.031399	-1.060373	-1.061712	-0.051650	21.3051	-1.058555	-1.391246E+14	3.712529E-16	NaN
119	1.000000	0.042750	7.3662e+06	-44589.1	955.819	-29775.8	0.000000	0.000000	6.042751	-0.040409	NaN	0.000000	0.001659	0.001672	28.0891	0.053279	0.001872	28.4558	82.4575	-164.581	0.018798	0.041455	-1.050361	-1.051656	-0.040409	28.4558	-1.049296	-1.044597E+14	3.868362E-16	NaN
119	1.000000	0.052762	7.3662e+06	-44589.1	955.818	-29775.8	0.000000	0.000000	6.052763	-0.040976	NaN	0.000000	0.001670	0.001723	28.1282	0.028944	0.001951	14.838	-68.1412	15.0289	-0.036582	0.051356	-1.040349	-1.041754	-0.040976	14.838	-1.038278	-7.426958E+13	5.517160E-16	NaN
119	1.000000	0.062758	7.3662e+06	-44589.1	955.817	-29775.8	0.000000	0.000000	6.062759	-0.044636	NaN	0.000000	0.001671	0.001684	28.1061	0.008005	0.002001	3.999948	62.331	-167.649	-0.084616	0.061502	-1.030353	-1.031609	-0.044636	3.999948	-1.021983	-4.483727E+13	9.955218E-16	NaN
119	1.000000	0.072720	7.3662e+06	-44589.1	955.818	-29775.8	0.000000	0.000000	6.072721	-0.028114	NaN	0.000000	0.001700	0.001648	28.0807	0.061836	0.001944	31.8131	95.3427	17.6592	-0.030793	0.071401	-1.020391	-1.021710	-0.028114	31.8131	-1.019729	-4.181188E+13	6.723976E-16	NaN
119	1.000000	0.082775	7.3662e+06	-44589.1	955.819	-29775.8	0.000000	0.000000	6.082778	-0.004605	NaN	0.000000	0.001714	0.001691	28.0899	0.087749	0.002044	42.9246	7.572153	-161.99	-0.012462	0.081450	-1.010335	-1.011661	-0.004605	42.9246	-1.010255	-3.117557E+13	1.477263E-16	NaN
119	1.000000	0.092783	7.3662e+06	-44589.1	955.817	-29775.8	0.000000	0.000000	6.092784	-0.032460	NaN	0.000000	0.001588	0.001674	28.1303	0.091713	0.002041	44.942	-12.3281	16.4277	-0.030121	0.091457	-1.000327	-1.001654	-0.032460	44.942	-0.999786	-2.253643E+13	1.440316E-15	NaN
119	1.000000	0.102767	7.3662e+06	-44589.1	955.818	-29775.8	0.000000	0.000000	6.102770	0.008268	NaN	0.000000	0.001590	0.001707	28.1081	0.060775	0.001961	30.9879	-140.712	-164.499	-0.037986	0.101456	-0.990344	-0.991655	0.008268	30.9879	-0.990544	-1.692143E+13	-4.885936E-16	NaN
119	1.000000	0.112759	7.3662e+06	-44589.1	955.818	-29775.8	0.000000	0.000000	6.112762	0.018204	NaN	0.000000	0.001575	0.001675	28.0821	0.157285	0.001954	80.5142	-123.333	12.3999	0.040384	0.111439	-0.980352	-0.981672	0.018204	80.5142	-0.980521	-1.240031E+13	-1.468052E-15	NaN
119	1.000000	0.122778	7.3662e+06	-44589.1	955.819	-29775.8	0.000000	0.000000	6.122775	-0.122190	NaN	0.000000	0.001595	0.001703	28.0912	0.104444	0.002028	51.4999	34.1986	-168.86	-0.066066	0.121486	-0.970333	-0.971625	-0.122190	51.4999	-0.968553	-8.553976E+12	1.428463E-14	NaN
119	1.000000	0.132761	7.3662e+06	-44589.1	955.817	-29775.8	0.000000	0.000000	6.132761	-0.065174	NaN	0.000000	0.001637	0.001692	28.1288	0.079913	0.002021	39.5397	-168.881	15.2117	0.018505	0.131468	-0.960350	-0.961643	-0.065174	39.5397	-0.959114	-6.381428E+12	1.021306E-14	NaN
119	1.000000	0.142795	7.3662e+06	-44589.1	955.818	-29775.8	0.000000	0.000000	6.142795	-0.052015	NaN	0.000000	0.001617	0.001712	28.1066	0.018745	0.002060	9.097637	-175.674	-167.167	-0.025716	0.141469	-0.950316	-0.951642	-0.052015	9.097637	-0.946028	-4.250659E+12	1.223702E-14	NaN
119	1.000000	0.152785	7.3662e+06	-44589.1	955.818	-29775.8	0.000000	0.000000	6.152785	-0.046038	NaN	0.000000	0.001578	0.001667	28.0815	0.008256	0.002102	3.927655	133.939	12.3694	0.016851	0.151454	-0.940326	-0.941657	-0.046038	3.927655	-0.931535	-2.709662E+12	1.699027E-14	NaN
119	1.000000	0.162776	7.3662e+06	-44589.1	955.817	-29775.8	0.000000	0.000000	6.162779	0.029601	NaN	0.000000	0.001590	0.001712	28.0897	0.139112	0.001899	73.2503	100.697	-165.274	-0.031898	0.161472	-0.930335	-0.931639	0.029601	73.2503	-0.930638	-2.635173E+12	-1.123290E-14	NaN
119	1.000000	0.172794	7.3662e+06	-44589.1	955.817	-29775.8	0.000000	0.000000	6.172792	-0.117294	NaN	0.000000	0.001609	0.001706	28.1305	0.025922	0.001947	13.3111	-168.552	14.8591	-0.082987	0.171417	-0.920317	-0.921694	-0.117294	13.3111	-0.913708	-1.556835E+12	7.534144E-14	NaN
119	1.000000	0.182799	7.3662e+06	-44589.1	955.818	-29775.8	0.000000	0.000000	6.182800	-0.042886	NaN	0.000000	0.001586	0.001698	28.1089	0.023109	0.001889	12.2307	69.4705	-167.309	-0.036736	0.181463	-0.910312	-0.911648	-0.042886	12.2307	-0.907682	-1.290769E+12	3.322480E-14	NaN
119	1.000000	0.192810	7.3662e+06	-44589.1	955.818	-29775.8	0.000000	0.000000	6.192810	-0.045504	NaN	0.000000	0.001601	0.001694	28.0824	0.143334	0.001930	74.2534	-81.9694	15.9482	-0.032203	0.191406	-0.900301	-0.901704	-0.045504	74.2534	-0.899841	-1.011404E+12	4.499063E-14	NaN
119	1.000000	0.202819	7.3662e+06	-44589.1	955.817	-29775.8	0.000000	0.000000	6.202819	-0.059158	NaN	0.000000	0.001580	0.001725	28.091	0.043789	0.002165	20.2244	125.259	-165.273	-0.034394	0.201494	-0.890291	-0.891617	-0.059158	20.2244	-0.888098	-7.017761E+11	8.429823E-14	NaN
119	1.000000	0.212790	7.3662e+06	-44589.1	955.818	-29775.8	0.000000	0.000000	6.212793	0.012152	NaN	0.000000	0.001605	0.001690	28.1275	0.045732	0.002031	22.5224	-89.6704	17.9381	0.042958	0.211463	-0.880321	-0.881648	0.012152	22.5224	-0.880725	-5.578516E+11	-2.178373E-14	NaN
119	1.000000	0.222804	7.3662e+06	-44589.1	955.818	-29775.8	0.000000	0.000000	6.222804	-0.041605	NaN	0.000000	0.001588	0.001679	28.1056	0.085210	0.001997	42.6699	155.893	-164.866	-0.066679	0.221512	-0.870307	-0.871599	-0.041605	42.6699	-0.869576	-3.941905E+11	1.055457E-13	NaN
119	1.000000	0.232835	7.3662e+06	-44589.1	955.819	-29775.8	0.000000	0.000000	6.232840	0.045132	NaN	0.000000	0.001614	0.001713	28.0798	0.086802	0.002049	42.3673	-176.93	15.0447	-0.028010	0.231474	-0.860276	-0.861637	0.045132	42.3673	-0.861074	-3.024568E+11	-1.492165E-13	NaN
119	1.000000	0.242817	7.3662e+06	-44589.1	955.818	-29775.8	0.000000	0.000000	6.242817	-0.070442	NaN	0.000000	0.001587	0.001667	28.0882	0.129119	0.001893	68.1926	-54.2493	-161.591	-0.040542	0.241513	-0.850293	-0.851598	-0.070442	68.1926	-0.849519	-2.109697E+11	3.338975E-13	NaN
119	1.000000	0.252850	7.3662e+06	-44589.1	955.818	-29775.8	0.000000	0.000000	6.252853	0.023072	NaN	0.000000	0.001594	0.001692	28.1285	0.095011	0.001893	50.182	168.891	15.3737	0.018050	0.251462	-0.840261	-0.841649	0.023072	50.182	-0.840606	-1.597718E+11	-1.444035E-13	NaN
119	1.000000	0.262810	7.3662e+06	-44589.1	955.818	-29775.8	0.000000	0.000000	6.262806	-0.145395	NaN	0.000000	0.001595	0.001705	28.1072	0.068103	0.002097	32.4818	-30.3618	-163.668	-0.091194	0.261523	-0.830301	-0.831588	-0.145395	32.4818	-0.826944	-1.043176E+11	1.393777E-12	NaN
119	1.000000	0.272832	7.3662e+06	-44589.1	955.817	-29775.8	0.000000	0.000000	6.272835	0.004004	NaN	0.000000	0.001586	0.001695	28.0804	0.073536	0.002078	35.3877	-170.032	12.5856	0.007780	0.271504	-0.820279	-0.821607	0.004004	35.3877	-0.820364	-8.494596E+10	-4.713562E-14	NaN
119	1.000000	0.282844	7.3662e+06	-44589.1	955.818	-29775.8	0.000000	0.000000	6.282845	-0.040225	NaN	0.000000	0.001586	0.001704	28.0895	0.050372	0.001994	25.2647	134.73	-164.686	-0.016816	0.281532	-0.810267	-0.811579	-0.040225	25.2647	-0.809073	-5.970271E+10	6.737558E-13	NaN
119	1.000000	0.292831	7.3662e+06	-44589.1	955.818	-29775.8	0.000000	0.000000	6.292831	-0.069591	NaN	0.000000	0.001550	0.001681	28.1277	0.121111	0.001951	62.083	-133.713	17.5919	-0.105157	0.291512	-0.800279	-0.801599	-0.069591	62.083	-0.799439	-4.418184E+10	1.575111E-12	NaN
119	1.000000	0.302878	7.3662e+06	-44589.1	955.818	-29775.8	0.000000	0.000000	6.302879	-0.034505	NaN	0.000000	0.001574	0.001687	28.1066	0.026194	0.002087	12.5514	36.1266	-163.746	-0.060412	0.301539	-0.790233	-0.791572	-0.034505	12.5514	-0.788171	-3.106306E+10	1.110816E-12	NaN
119	1.000000	0.312850	7.3662e+06	-44589.1	955.818	-29775.8	0.000000	0.000000	6.312851	-0.028898	NaN	0.000000	0.001591	0.001659	28.0795	0.043090	0.002030	21.2259	-65.0477	15.5285	0.005373	0.311516	-0.780261	-0.781595	-0.028898	21.2259	-0.779240	-2.349119E+10	1.230163E-12	NaN
119	1.000000	0.322878	7.3662e+06	-44589.1	955.818	-29775.8	0.000000	0.000000	6.322878	-0.060598	NaN	0.000000	0.001592	0.001701	28.0879	0.115007	0.001989	57.8225	89.7362	-164.669	-0.032176	0.321551	-0.770233	-0.771560	-0.060598	57.8225	-0.769447	-1.728951E+10	3.504905E-12	NaN
119	1.000000	0.332884	7.3662e+06	-44589.1	955.818	-29775.8	0.000000	0.000000	6.332886	-0.017163	NaN	0.000000	0.001568	0.001697	28.1289	0.090211	0.001970	45.803	155.139	15.4661	0.003934	0.331476	-0.760227	-0.761635	-0.017163	45.803	-0.759946	-1.284001E+10	1.336714E-12	NaN
119	1.000000	0.342860	7.3662e+06	-44589.1	955.818	-29775.8	0.000000	0.000000	6.342861	-0.034154	NaN	0.000000	0.001582	0.001709	28.109	0.044874	0.002049	21.9034	155.529	-165.181	0.023223	0.341583	-0.750251	-0.751528	-0.034154	21.9034	-0.749081	-9.135122E+9	3.738791E-12	NaN
119	1.000000	0.352877	7.3662e+06	-44589.1	955.818	-29775.8	0.000000	0.000000	6.352878	-0.034132	NaN	0.000000	0.001619	0.001720	28.0812	0.131189	0.002059	63.7138	81.2168	17.8772	0.059621	0.351554	-0.740234	-0.741557	-0.034132	63.7138	-0.739832	-6.835521E+9	4.993270E-12	NaN
119	1.000000	0.362886	7.3662e+06	-44589.1	955.819	-29775.8	0.000000	0.000000	6.362886	-0.047544	NaN	0.000000	0.001603	0.001711	28.0893	0.061144	0.001962	31.1629	-151.483	-167.298	-0.070271	0.361558	-0.730225	-0.731553	-0.047544	31.1629	-0.729081	-4.878403E+9	9.745837E-12	NaN
119	1.000000	0.372888	7.3662e+06	-44589.1	955.817	-29775.8	0.000000	0.000000	6.372890	-0.010416	NaN	0.000000	0.001581	0.001712	28.1284	0.115182	0.001905	60.4678	-157.091	16.9249	-0.022479	0.371497	-0.720223	-0.721614	-0.010416	60.4678	-0.720094	-3.679215E+9	2.830917E-12	NaN
119	1.000000	0.382918	7.3662e+06	-44589.1	955.818	-29775.8	0.000000	0.000000	6.382919	-0.036312	NaN	0.000000	0.001608	0.001731	28.1085	0.094170	0.002038	46.196	-73.9607	-162.976	-0.018154	0.381560	-0.710193	-0.711551	-0.036312	46.196	-0.709603	-2.646252E+9	1.372192E-11	NaN
119	1.000000	0.392892	7.3662e+06	-44589.1	955.818	-29775.8	0.000000	0.000000	6.392890	-0.115927	NaN	0.000000	0.001575	0.001737	28.0804	0.031240	0.002044	15.2866	142.406	14.5515	-0.112422	0.391537	-0.700218	-0.701574	-0.115927	15.2866	-0.694531	-1.647505E+9	7.036501E-11	NaN
119	1.000000	0.402915	7.3662e+06	-44589.1	955.818	-29775.8	0.000000	0.000000	6.402917	-0.014067	NaN	0.000000	0.001635	0.001682	28.088	0.117189	0.002024	57.9039	110.372	-161.792	0.028415	0.401545	-0.690196	-0.691566	-0.014067	57.9039	-0.690014	-1.429247E+9	9.842221E-12	NaN
119	1.000000	0.412932	7.3662e+06	-44589.1	955.817	-29775.8	0.000000	0.000000	6.412934	0.008410	NaN	0.000000	0.001609	0.001713	28.1297	0.060479	0.001929	31.3504	-159.82	15.699	0.079614	0.411577	-0.680179	-0.681534	0.008410	31.3504	-0.680380	-1.055375E+9	-7.968688E-12	NaN
119	1.000000	0.422926	7.3662e+06	-44589.1	955.818	-29775.8	0.000000	0.000000	6.422930	0.031021	NaN	0.000000	0.001580	0.001718	28.1095	0.095469	0.002032	46.9807	29.6999	-166.778	0.062401	0.421668	-0.670185	-0.671443	0.031021	46.9807	-0.670680	-7.774890E+8	-3.989874E-11	NaN
119	1.000000	0.432917	7.3662e+06	-44589.1	955.818	-29775.8	0.000000	0.000000	6.432916	-0.069636	NaN	0.000000	0.001592	0.001666	28.0816	0.057246	0.001915	29.8927	31.7263	14.4016	-0.065522	0.431556	-0.660194	-0.661555	-0.069636	29.8927	-0.658447	-5.286828E+8	1.317161E-10	NaN
119	1.000000	0.442927	7.3662e+06	-44589.1	955.818	-29775.8	0.000000	0.000000	6.442929	-0.019670	NaN	0.000000	0.001589	0.001685	28.0893	0.049015	0.002046	23.9554	159.209	-166.81	-0.105505	0.441596	-0.650184	-0.651515	-0.019670	23.9554	-0.649568	-3.994954E+8	4.923766E-11	NaN
119	1.000000	0.452913	7.3662e+06	-44589.1	955.818	-29775.8	0.000000	0.000000	6.452916	0.008474	NaN	0.000000	0.001523	0.001688	28.1283	0.057352	0.002038	28.1387	-50.264	14.4663	-0.028620	0.451596	-0.640198	-0.641515	0.008474	28.1387	-0.640423	-2.992952E+8	-2.831179E-11	NaN
119	1.000000	0.462922	7.3662e+06	-44589.1	955.818	-29775.8	0.000000	0.000000	6.462922	-0.047444	NaN	0.000000	0.001599	0.001694	28.1085	0.022497	0.002006	11.2165	-93.0388	-165.762	0.031313	0.461637	-0.630189	-0.631474	-0.047444	11.2165	-0.627016	-1.959054E+8	2.421782E-10	NaN
119	1.000000	0.472958	7.3662e+06	-44589.1	955.818	-29775.8	0.000000	0.000000	6.472959	-0.030829	NaN	0.000000	0.001577	0.001697	28.0802	0.053373	0.001995	26.7514	162.254	16.7477	0.027247	0.471562	-0.620153	-0.621549	-0.030829	26.7514	-0.619288	-1.534088E+8	2.009609E-10	NaN
119	1.000000	0.482947	7.3662e+06	-44589.1	955.818	-29775.8	0.000000	0.000000	6.482950	0.011845	NaN	0.000000	0.001573	0.001681	28.087	0.106166	0.001997	53.1524	-87.9212	-163.411	0.070630	0.481623	-0.610163	-0.611488	0.011845	53.1524	-0.610331	-1.155215E+8	-1.025313E-10	NaN
119	1.000000	0.492916	7.3662e+06	-44589.1	955.818	-29775.8	0.000000	0.000000	6.492920	0.051812	NaN	0.000000	0.001591	0.001697	28.128	0.042691	0.002018	21.1508	24.6817	16.8419	0.094627	0.491622	-0.600195	-0.601488	0.051812	21.1508	-0.602032	-8.880689E+7	-5.834280E-10	NaN
119	1.000000	0.502952	7.3662e+06	-44589.1	955.817	-29775.8	0.000000	0.000000	6.502954	-0.004355	NaN	0.000000	0.001589	0.001711	28.1087	0.033393	0.001999	16.7055	15.56	-166.035	0.022000	0.501634	-0.590159	-0.591477	-0.004355	16.7055	-0.589964	-6.055737E+7	7.190810E-11	NaN
119	1.000000	0.512929	7.3662e+06	-44589.1	955.818	-29775.8	0.000000	0.000000	6.512931	0.000249	NaN	0.000000	0.001571	0.001700	28.0807	0.144367	0.001915	75.3905	-16.0832	16.0705	0.030172	0.511602	-0.580182	-0.581509	0.000249	75.3905	-0.580185	-4.438907E+7	-5.609487E-12	NaN
119	1.000000	0.522954	7.3662e+06	-44589.1	955.818	-29775.8	0.000000	0.000000	6.522956	-0.010278	NaN	0.000000	0.001566	0.001730	28.0889	0.075755	0.001894	39.9879	8.919016	-163.74	-0.017657	0.521662	-0.570156	-0.571449	-0.010278	39.9879	-0.569964	-3.207221E+7	3.204670E-10	NaN
119	1.000000	0.532948	7.3662e+06	-44589.1	955.818	-29775.8	0.000000	0.000000	6.532949	-0.035292	NaN	0.000000	0.001590	0.001757	28.1265	0.056031	0.001899	29.5085	177.598	16.5396	-0.057209	0.531564	-0.560163	-0.561546	-0.035292	29.5085	-0.559266	-2.281485E+7	1.546902E-9	NaN
119	1.000000	0.542937	7.3662e+06	-44589.1	955.817	-29775.8	0.000000	0.000000	6.542939	-0.007987	NaN	0.000000	0.001564	0.001729	28.1084	0.086960	0.001987	43.7656	169.66	-164.244	-0.020393	0.541633	-0.550174	-0.551478	-0.007987	43.7656	-0.550037	-1.700083E+7	4.698238E-10	NaN
119	1.000000	0.552967	7.3662e+06	-44589.1	955.819	-29775.8	0.000000	0.000000	6.552968	-0.041079	NaN	0.000000	0.001557	0.001715	28.0793	0.056729	0.002050	27.6707	-43.3792	14.549	-0.040098	0.551614	-0.540143	-0.541497	-0.041079	27.6707	-0.539030	-1.196474E+7	3.433364E-9	NaN
119	1.000000	0.562960	7.3662e+06	-44589.1	955.818	-29775.8	0.000000	0.000000	6.562962	-0.019525	NaN	0.000000	0.001542	0.001715	28.0863	0.049666	0.001853	26.803	-108.454	-163.641	-0.080101	0.561685	-0.530151	-0.531426	-0.019525	26.803	-0.529604	-8.85281e+06	2.205544E-9	NaN
119	1.000000	0.572983	7.3662e+06	-44589.1	955.819	-29775.8	0.000000	0.000000	6.572982	-0.081804	NaN	0.000000	0.001574	0.001678	28.1278	0.064307	0.002057	31.2625	-18.3973	15.664	0.026681	0.571631	-0.520127	-0.521480	-0.081804	31.2625	-0.518165	-6.13865e+06	1.332613E-8	NaN
119	1.000000	0.583015	7.3662e+06	-44589.1	955.818	-29775.8	0.000000	0.000000	6.583018	0.000223	NaN	0.000000	0.001569	0.001691	28.1091	0.049742	0.002007	24.7871	119.676	-163.494	0.001157	0.581675	-0.510096	-0.511436	0.000223	24.7871	-0.510102	-4.74068e+06	-4.707568E-11	NaN
119	1.000000	0.592978	7.3662e+06	-44589.1	955.817	-29775.8	0.000000	0.000000	6.592978	-0.062350	NaN	0.000000	0.001541	0.001733	28.081	0.079517	0.001778	44.7203	-81.6969	15.8366	-0.075468	0.591620	-0.500133	-0.501491	-0.062350	44.7203	-0.499088	-3.3288e+06	1.873042E-8	NaN
119	1.000000	0.602932	7.3662e+06	-44589.1	955.818	-29775.8	0.000000	0.000000	6.602934	-0.013898	NaN	0.000000	0.001583	0.001693	28.0882	0.016615	0.001930	8.606889	-110.779	-162.523	-0.054210	0.601660	-0.490179	-0.491451	-0.013898	8.606889	-0.488968	-2.40419e+06	5.780688E-9	NaN
119	1.000000	0.612965	7.3662e+06	-44589.1	955.818	-29775.8	0.000000	0.000000	6.612967	-0.012870	NaN	0.000000	0.001586	0.001735	28.1275	0.041783	0.001942	21.5181	-93.0793	13.9813	0.006957	0.611642	-0.480146	-0.481469	-0.012870	21.5181	-0.479697	-1.78356e+06	7.215953E-9	NaN
119	1.000000	0.622996	7.3662e+06	-44589.1	955.817	-29775.8	0.000000	0.000000	6.622997	-0.044954	NaN	0.000000	0.001596	0.001720	28.1102	0.076332	0.001988	38.4011	148.776	-164.016	0.056735	0.621666	-0.470115	-0.471445	-0.044954	38.4011	-0.469237	-1.27263e+06	3.532348E-8	NaN
119	1.000000	0.632976	7.3662e+06	-44589.1	955.818	-29775.8	0.000000	0.000000	6.632977	-0.036185	NaN	0.000000	0.001580	0.001678	28.0807	0.097031	0.001994	48.6555	47.8967	19.5963	0.033456	0.631576	-0.460135	-0.461535	-0.036185	48.6555	-0.459577	-931265	3.885553E-8	NaN
119	1.000000	0.643004	7.3662e+06	-44589.1	955.818	-29775.8	0.000000	0.000000	6.643006	-0.005452	NaN	0.000000	0.001613	0.001723	28.0876	0.044671	0.002025	22.0551	65.1676	-165.724	-0.026478	0.641715	-0.450107	-0.451396	-0.005452	22.0551	-0.449921	-681134	8.004833E-9	NaN
119	1.000000	0.653017	7.3662e+06	-44589.1	955.819	-29775.8	0.000000	0.000000	6.653018	-0.033096	NaN	0.000000	0.001608	0.001725	28.1289	0.077791	0.001998	38.9433	70.8028	11.1504	-0.104877	0.651672	-0.440094	-0.441439	-0.033096	38.9433	-0.439457	-484947	6.824707E-8	NaN
119	1.000000	0.662992	7.3662e+06	-44589.1	955.818	-29775.8	0.000000	0.000000	6.662997	0.071074	NaN	0.000000	0.001666	0.001696	28.1112	0.099809	0.002040	48.9267	132.18	-166.217	0.054464	0.661681	-0.430119	-0.431430	0.071074	48.9267	-0.431208	-370811	-1.916704E-7	NaN
119	1.000000	0.673029	7.3662e+06	-44589.1	955.818	-29775.8	0.000000	0.000000	6.673030	-0.019483	NaN	0.000000	0.001660	0.001680	28.0807	0.109559	0.002048	53.4903	-175.607	17.0464	-0.014492	0.671677	-0.420082	-0.421434	-0.019483	53.4903	-0.419809	-255686	7.620003E-8	NaN
119	1.000000	0.683005	7.3662e+06	-44589.1	955.818	-29775.8	0.000000	0.000000	6.683006	-0.028872	NaN	0.000000	0.001586	0.001728	28.0894	0.077482	0.001989	38.9506	172.947	-165.732	-0.022122	0.681714	-0.410106	-0.411397	-0.028872	38.9506	-0.409550	-182810	1.579323E-7	NaN
119	1.000000	0.693021	7.3662e+06	-44589.1	955.818	-29775.8	0.000000	0.000000	6.693022	-0.011098	NaN	0.000000	0.001597	0.001737	28.1273	0.008899	0.002112	4.214396	103.532	14.773	-0.056435	0.691624	-0.400090	-0.401487	-0.011098	4.214396	-0.398115	-125634	8.833951E-8	NaN
119	1.000000	0.703022	7.3662e+06	-44589.1	955.818	-29775.8	0.000000	0.000000	6.703022	-0.065627	NaN	0.000000	0.001640	0.001717	28.11	0.103801	0.001875	55.3631	133.856	-163.033	-0.077315	0.701662	-0.390089	-0.391449	-0.065627	55.3631	-0.389199	-93694.6	7.004313E-7	NaN
119	1.000000	0.713040	7.3662e+06	-44589.1	955.818	-29775.8	0.000000	0.000000	6.713042	0.005598	NaN	0.000000	0.001602	0.001726	28.0813	0.050441	0.002160	23.3489	70.3449	17.1432	0.018012	0.711700	-0.380071	-0.381411	0.005598	23.3489	-0.380251	-69741.6	-8.026551E-8	NaN
119	1.000000	0.723048	7.3662e+06	-44589.1	955.819	-29775.8	0.000000	0.000000	6.723050	0.010039	NaN	0.000000	0.001563	0.001704	28.0875	0.088216	0.001893	46.6033	-139.931	-165.408	0.048031	0.721699	-0.370063	-0.371412	0.010039	46.6033	-0.370225	-50045.5	-2.006057E-7	NaN
119	1.000000	0.733034	7.3662e+06	-44589.1	955.818	-29775.8	0.000000	0.000000	6.733036	-0.015423	NaN	0.000000	0.001585	0.001712	28.1284	0.079048	0.002078	38.0433	47.4266	11.4928	-0.077811	0.731604	-0.360077	-0.361506	-0.015423	38.0433	-0.359773	-35364.1	4.361215E-7	NaN
119	1.000000	0.743034	7.3662e+06	-44589.1	955.818	-29775.8	0.000000	0.000000	6.743036	-0.008279	NaN	0.000000	0.001569	0.001678	28.1113	0.013407	0.002014	6.656015	172.542	-164.146	-0.013007	0.741740	-0.350077	-0.351371	-0.008279	6.656015	-0.349144	-24807.2	3.337403E-7	NaN
119	1.000000	0.753025	7.3662e+06	-44589.1	955.819	-29775.8	0.000000	0.000000	6.753023	-0.094089	NaN	0.000000	0.001583	0.001711	28.0811	0.073269	0.002088	35.0827	53.2526	13.1938	-0.041634	0.751702	-0.340086	-0.341409	-0.094089	35.0827	-0.338075	-17118.9	5.496213E-6	NaN
119	1.000000	0.763053	7.3662e+06	-44589.1	955.818	-29775.8	0.000000	0.000000	6.763051	-0.094918	NaN	0.000000	0.001574	0.001680	28.0874	0.070891	0.002088	33.9485	-123.652	-164.195	-0.062983	0.761738	-0.330058	-0.331373	-0.094918	33.9485	-0.327961	-12178.1	7.794192E-6	NaN
119	1.000000	0.773086	7.3662e+06	-44589.1	955.819	-29775.8	0.000000	0.000000	6.773089	0.028119	NaN	0.000000	0.001590	0.001724	28.1256	0.060035	0.001986	30.2355	136.896	15.9501	0.037331	0.771733	-0.320025	-0.321378	0.028119	30.2355	-0.320722	-9533.9	-2.949404E-6	NaN
119	1.000000	0.783084	7.3662e+06	-44589.1	955.819	-29775.8	0.000000	0.000000	6.783085	-0.033151	NaN	0.000000	0.001649	0.001688	28.1089	0.084735	0.002038	41.5827	90.5118	-165.839	0.021809	0.781766	-0.310027	-0.311345	-0.033151	41.5827	-0.309429	-6495.3	5.103867E-6	NaN
119	1.000000	0.793048	7.3662e+06	-44589.1	955.818	-29775.8	0.000000	0.000000	6.793051	0.020894	NaN	0.000000	0.001639	0.001682	28.0802	0.052851	0.001926	27.4401	45.3889	15.2884	-0.006211	0.791684	-0.300063	-0.301427	0.020894	27.4401	-0.300634	-4809.15	-4.344682E-6	NaN
119	1.000000	0.803038	7.3662e+06	-44589.1	955.818	-29775.8	0.000000	0.000000	6.803039	-0.050952	NaN	0.000000	0.001682	0.001670	28.0858	0.107583	0.001955	55.0381	-171.988	-167.587	-0.018054	0.801773	-0.290072	-0.291337	-0.050952	55.0381	-0.289378	-3265.75	1.560201E-5	NaN
119	1.000000	0.813067	7.3662e+06	-44589.1	955.818	-29775.8	0.000000	0.000000	6.813071	0.040092	NaN	0.000000	0.001652	0.001704	28.1265	0.002156	0.001912	1.127696	-95.7438	16.3051	0.009709	0.811688	-0.280044	-0.281423	0.040092	1.127696	-0.306708	-5919.58	-6.772808E-6	NaN
119	1.000000	0.823080	7.3662e+06	-44589.1	955.818	-29775.8	0.000000	0.000000	6.823083	-0.006697	NaN	0.000000	0.001642	0.001690	28.11	0.080327	0.002030	39.5642	-72.2054	-163.792	0.042864	0.821750	-0.270030	-0.271361	-0.006697	39.5642	-0.269904	-1659.88	4.034323E-6	NaN
119	1.000000	0.833079	7.3662e+06	-44589.1	955.818	-29775.8	0.000000	0.000000	6.833081	-0.006196	NaN	0.000000	0.001667	0.001730	28.0816	0.113958	0.002024	56.2987	-40.0912	14.0632	-0.036746	0.831735	-0.260032	-0.261376	-0.006196	56.2987	-0.259950	-1169.89	5.296170E-6	NaN
119	1.000000	0.843058	7.3662e+06	-44589.1	955.818	-29775.8	0.000000	0.000000	6.843064	0.067393	NaN	0.000000	0.001608	0.001749	28.0868	0.020678	0.002024	10.2177	139.598	-164.529	0.047279	0.841735	-0.250053	-0.251376	0.067393	10.2177	-0.254999	-981.986	-6.862933E-5	NaN
119	1.000000	0.853101	7.3662e+06	-44589.1	955.818	-29775.8	0.000000	0.000000	6.853102	-0.042432	NaN	0.000000	0.001653	0.001751	28.1252	0.118374	0.001977	59.8739	-81.4184	15.7918	-0.080076	0.851733	-0.240009	-0.241378	-0.042432	59.8739	-0.239478	-564.151	7.521399E-5	NaN
119	1.000000	0.863073	7.3662e+06	-44589.1	955.818	-29775.8	0.000000	0.000000	6.863076	0.011916	NaN	0.000000	0.001650	0.001724	28.1087	0.102434	0.001964	52.1672	86.4466	-166.068	-0.018519	0.861782	-0.230037	-0.231328	0.011916	52.1672	-0.230209	-403.471	-2.953475E-5	NaN
119	1.000000	0.873084	7.3662e+06	-44589.1	955.818	-29775.8	0.000000	0.000000	6.873087	0.011284	NaN	0.000000	0.001673	0.001696	28.0791	0.060790	0.001948	31.2092	-47.6226	19.9363	-0.054699	0.871744	-0.220026	-0.221367	0.011284	31.2092	-0.220298	-280.822	-4.018248E-5	NaN
119	1.000000	0.883129	7.3662e+06	-44589.1	955.818	-29775.8	0.000000	0.000000	6.883133	0.044702	NaN	0.000000	0.001689	0.001725	28.0857	0.052515	0.002031	25.856	20.5412	-160.295	0.014608	0.881760	-0.209982	-0.211351	0.044702	25.856	-0.211278	-201.143	-0.000222	NaN
119	1.000000	0.893119	7.3662e+06	-44589.1	955.818	-29775.8	0.000000	0.000000	6.893119	-0.062911	NaN	0.000000	0.001673	0.001742	28.1275	0.079659	0.001953	40.779	-161.379	11.4003	-0.027460	0.891764	-0.199992	-0.201347	-0.062911	40.779	-0.198835	-126.047	0.000499	NaN
119	1.000000	0.903135	7.3662e+06	-44589.1	955.818	-29775.8	0.000000	0.000000	6.903138	0.001378	NaN	0.000000	0.001713	0.001716	28.1119	0.083102	0.001891	43.9457	65.4505	-163.787	0.065388	0.901835	-0.189976	-0.191276	0.001378	43.9457	-0.189999	-89.9529	-1.532369E-5	NaN
119	1.000000	0.913119	7.3662e+06	-44589.1	955.818	-29775.8	0.000000	0.000000	6.913121	-0.003719	NaN	0.000000	0.001702	0.001687	28.0815	0.085333	0.002099	40.6461	90.0531	11.6969	-0.019236	0.911778	-0.179992	-0.181333	-0.003719	40.6461	-0.179924	-60.8368	6.113525E-5	NaN
119	1.000000	0.923106	7.3662e+06	-44589.1	955.818	-29775.8	0.000000	0.000000	6.923109	0.027062	NaN	0.000000	0.001699	0.001657	28.0881	0.072961	0.002099	34.7534	46.1139	-164.866	-0.055299	0.921811	-0.170005	-0.171300	0.027062	34.7534	-0.170589	-42.057	-0.000643	NaN
119	1.000000	0.933134	7.3662e+06	-44589.1	955.819	-29775.8	0.000000	0.000000	6.933137	0.022527	NaN	0.000000	0.001712	0.001721	28.1263	0.023316	0.002017	11.5608	29.8006	13.243	0.011307	0.931688	-0.159977	-0.161423	0.022527	11.5608	-0.161438	-29.0739	-0.000775	NaN
119	1.000000	0.943121	7.36621e+06	-44589.1	955.818	-29775.8	0.000000	0.000000	6.943120	-0.092198	NaN	0.000000	0.001659	0.001733	28.1116	0.046014	0.002025	22.7262	-27.334	-166.004	-0.041885	0.941777	-0.149990	-0.151334	-0.092198	22.7262	-0.146947	-15.9252	0.005789	NaN
119	1.000000	0.953103	7.36621e+06	-44589.1	955.818	-29775.8	0.000000	0.000000	6.953106	0.005312	NaN	0.000000	0.001652	0.001704	28.081	0.063832	0.001973	32.3512	-109.066	18.1836	-0.008369	0.951766	-0.140008	-0.141345	0.005312	32.3512	-0.140131	-11.8967	-0.000447	NaN
119	1.000000	0.963129	7.36621e+06	-44589.1	955.819	-29775.8	0.000000	0.000000	6.963130	-0.031519	NaN	0.000000	0.001667	0.001686	28.0869	0.058491	0.002059	28.4082	58.7122	-162.997	-0.012534	0.961815	-0.129982	-0.131296	-0.031519	28.4082	-0.129150	-7.336338	0.004296	NaN
119	1.000000	0.973114	7.36621e+06	-44589.1	955.818	-29775.8	0.000000	0.000000	6.973115	-0.044540	NaN	0.000000	0.001652	0.001705	28.1279	0.029751	0.001978	15.0376	-107.477	14.6367	-0.050362	0.971807	-0.119997	-0.121304	-0.044540	15.0376	-0.117775	-4.354830	0.010228	NaN
119	1.000000	0.983127	7.36621e+06	-44589.1	955.818	-29775.8	0.000000	0.000000	6.983127	-0.057234	NaN	0.000000	0.001689	0.001705	28.1118	0.034183	0.002042	16.7414	32.8988	-166.695	-0.009473	0.981826	-0.109984	-0.111285	-0.057234	16.7414	-0.107420	-2.649379	0.021603	NaN
119	1.000000	0.993130	7.36621e+06	-44589.1	955.819	-29775.8	0.000000	0.000000	6.993134	0.016614	NaN	0.000000	0.001665	0.001728	28.0817	0.059101	0.001988	29.7277	-70.3546	13.1307	0.002512	0.991775	-0.099980	-0.101336	0.016614	29.7277	-0.100400	-1.864752	-0.008909	NaN
119	1.000000	1.003135	7.36621e+06	-44589.1	955.819	-29775.8	0.000000	0.000000	7.003135	-0.071058	NaN	0.000000	0.001659	0.001741	28.0873	0.147772	0.001983	74.5241	-126.539	-167.157	-0.119343	1.001793	-0.089975	-0.091317	-0.071058	74.5241	-0.089260	-1.038536	0.068421	NaN
119	1.000000	1.013126	7.36621e+06	-44589.1	955.818	-29775.8	0.000000	0.000000	7.013128	-0.015329	NaN	0.000000	0.001698	0.001724	28.1264	0.101748	0.002110	48.23	130.21	14.9638	0.031247	1.011809	-0.079984	-0.081302	-0.015329	48.23	-0.079746	-0.610000	0.025129	NaN
119	1.000000	1.023144	7.36621e+06	-44589.1	955.817	-29775.8	0.000000	0.000000	7.023147	0.010862	NaN	0.000000	0.001653	0.001736	28.1105	0.062289	0.001879	33.1544	-111.666	-163.913	0.049080	1.021804	-0.069967	-0.071306	0.010862	33.1544	-0.070212	-0.345604	-0.031428	NaN
119	1.000000	1.033124	7.36621e+06	-44589.1	955.818	-29775.8	0.000000	0.000000	7.033127	0.009539	NaN	0.000000	0.001671	0.001702	28.0789	0.113455	0.001859	61.0335	161.594	14.2276	0.036864	1.031827	-0.059986	-0.061284	0.009539	61.0335	-0.060104	-0.181330	-0.052607	NaN
119	1.000000	1.043185	7.36621e+06	-44589.1	955.818	-29775.8	0.000000	0.000000	7.043183	-0.106822	NaN	0.000000	0.001619	0.001671	28.0856	0.062227	0.002067	30.1106	-72.3423	-162.958	0.020438	1.041870	-0.049926	-0.051240	-0.106822	30.1106	-0.047265	-0.075365	1.417389	NaN
119	1.000000	1.053170	7.36621e+06	-44589.1	955.818	-29775.8	0.000000	0.000000	7.053171	-0.025891	NaN	0.000000	0.001600	0.001741	28.126	0.060122	0.002042	29.4427	38.4634	17.1828	-0.030834	1.051794	-0.039941	-0.041317	-0.025891	29.4427	-0.039282	-0.043010	0.601968	NaN
119	1.000000	1.063198	7.36621e+06	-44589.1	955.818	-29775.8	0.000000	0.000000	7.063197	-0.099544	NaN	0.000000	0.001565	0.001708	28.1118	0.027801	0.002036	13.6579	-24.7154	-162.194	-0.132946	1.061835	-0.029913	-0.031276	-0.099544	13.6579	-0.024446	-0.016319	6.099713	NaN
119	1.000000	1.073172	7.36621e+06	-44589.1	955.818	-29775.8	0.000000	0.000000	7.073174	-0.025844	NaN	0.000000	0.001562	0.001696	28.0817	0.018074	0.002020	8.949631	175.94	14.603	-0.006168	1.071878	-0.019939	-0.021233	-0.025844	8.949631	-0.017773	-0.011012	2.346861	NaN
119	1.000000	1.083162	7.36621e+06	-44589.1	955.817	-29775.8	0.000000	0.000000	7.083165	-0.004090	NaN	0.000000	0.001590	0.001697	28.087	0.060490	0.001981	30.5291	115.11	-163.859	-0.040761	1.081904	-0.009949	-0.011207	-0.004090	30.5291	-0.009848	-0.006300	0.649232	NaN
119	1.000000	1.093169	7.36621e+06	-44589.1	955.818	-29775.8	0.000000	0.000000	7.093176	0.117856	NaN	0.000000	0.001555	0.001725	28.1246	0.254696	0.002054	123.983	7.466190	15.7014	0.016622	1.091831	5.783097E-5	-0.001280	0.117856	123.983	-0.000655	-0.000483	-243.782	NaN
119	2.000000	1.102607	7.36621e+06	-44589.1	955.819	-29775.8	0.000000	0.000000	7.103004	9.591472	NaN	0.000000	0.001602	0.001719	28.1101	8.632181	0.001698	5084.18	9.076157	-172.592	8.972309	1.101777	0.009496	0.008666	9.591472	5084.18	0.008082	0.007126	1345.92	55025.1
119	2.000000	1.105191	7.36621e+06	-44589.1	955.818	-29775.8	0.000000	0.000000	7.105728	12.9989	NaN	0.000000	0.001578	0.001727	28.08	10.8308	0.001718	6304.9	3.783780	10.0741	11.7368	1.104848	0.012080	0.011737	12.9989	6304.9	0.010534	0.009781	1329.04	58246.3
119	2.000000	1.107644	7.36621e+06	-44589.1	955.819	-29775.8	0.000000	0.000000	7.108285	15.5298	NaN	0.000000	0.001561	0.001766	28.0847	13.9495	0.001806	7722.22	2.066503	-170.534	14.5664	1.107418	0.014533	0.014307	15.5298	7722.22	0.013025	0.012741	1218.85	62503.9
119	2.000000	1.110191	7.36621e+06	-44589.1	955.818	-29775.8	0.000000	0.000000	7.110965	18.784	NaN	0.000000	0.001560	0.001734	28.1266	16.2483	0.001787	9094.86	7.743195	3.097534	18.2131	1.109868	0.017080	0.016758	18.784	9094.86	0.015531	0.016000	1174.02	65692.2
119	2.000000	1.112661	7.36621e+06	-44589.1	955.818	-29775.8	0.000000	0.000000	7.113673	24.5562	NaN	0.000000	0.001574	0.001726	28.1124	18.7675	0.001740	10788.5	6.137450	-175.967	24.4703	1.112315	0.019551	0.019204	24.5562	10788.5	0.017843	0.019266	1274.58	71012.8
119	2.000000	1.115154	7.36621e+06	-44589.1	955.819	-29775.8	0.000000	0.000000	7.116489	32.4042	NaN	0.000000	0.001588	0.001740	28.0807	21.2784	0.001833	11605.6	7.642725	2.681444	31.9147	1.114764	0.022043	0.021653	32.4042	11605.6	0.019949	0.022463	1442.58	70747.2
119	2.000000	1.117661	7.36621e+06	-44589.1	955.819	-29775.8	0.000000	0.000000	7.119276	39.2317	NaN	0.000000	0.001569	0.001734	28.0873	23.6982	0.001705	13900.6	3.267727	-176.266	38.289	1.117310	0.024551	0.024199	39.2317	13900.6	0.022434	0.026512	1479.77	77998.5
119	2.000000	1.120135	7.36621e+06	-44589.1	955.819	-29775.8	0.000000	0.000000	7.121933	43.6847	NaN	0.000000	0.001592	0.001723	28.1257	26.1457	0.001721	15187.9	7.844586	-1.387518	42.9857	1.119878	0.027024	0.026767	43.6847	15187.9	0.024867	0.030773	1419.57	79101.5
119	2.000000	1.122653	7.36621e+06	-44589.1	955.818	-29775.8	0.000000	0.000000	7.124690	49.51	NaN	0.000000	0.001655	0.001719	28.1126	28.7459	0.001813	15856.7	7.868114	178.326	49.8932	1.122298	0.029542	0.029187	49.51	15856.7	0.027200	0.035140	1408.93	77283
119	2.000000	1.125127	7.36621e+06	-44589.1	955.818	-29775.8	0.000000	0.000000	7.127562	59.1798	NaN	0.000000	0.001639	0.001751	28.0815	31.0994	0.001802	17257.4	4.444910	1.044600	57.6243	1.124771	0.032016	0.031660	59.1798	17257.4	0.029444	0.039600	1494.45	79232.6
119	2.000000	1.127608	7.36621e+06	-44589.1	955.817	-29775.8	0.000000	0.000000	7.130384	67.4681	NaN	0.000000	0.001657	0.001704	28.0866	33.6216	0.001669	20139.5	1.963955	-178.267	65.8153	1.127343	0.034497	0.034232	67.4681	20139.5	0.031984	0.044957	1500.71	86780.1
119	2.000000	1.130128	7.36621e+06	-44589.1	955.817	-29775.8	0.000000	0.000000	7.133230	75.3952	NaN	0.000000	0.001616	0.001722	28.1267	36.1921	0.001870	19351.9	8.271127	-2.036022	73.6776	1.129805	0.037017	0.036695	75.3952	19351.9	0.034095	0.049661	1518.21	79339.6
119	2.000000	1.132630	7.36621e+06	-44589.1	955.818	-29775.8	0.000000	0.000000	7.136060	83.4008	NaN	0.000000	0.001651	0.001703	28.1142	38.7445	0.001821	21278.2	7.872897	176.028	85.2838	1.132313	0.039519	0.039202	83.4008	21278.2	0.036579	0.055487	1503.07	82530.1
119	2.000000	1.135060	7.36621e+06	-44589.1	955.819	-29775.8	0.000000	0.000000	7.139134	99.0563	NaN	0.000000	0.001626	0.001733	28.0826	40.0004	0.001732	23097.9	1.321642	2.153785	95.8051	1.134669	0.041949	0.041558	99.0563	23097.9	0.038732	0.060794	1629.39	85588.9
119	2.000000	1.137546	7.36621e+06	-44589.1	955.819	-29775.8	0.000000	0.000000	7.141780	102.937	NaN	0.000000	0.001621	0.001710	28.0868	43.8468	0.001813	24181.6	6.643975	175.975	100.092	1.137278	0.044435	0.044167	102.937	24181.6	0.041243	0.067279	1529.99	85176
119	2.000000	1.140033	7.36621e+06	-44589.1	955.819	-29775.8	0.000000	0.000000	7.144855	117.259	NaN	0.000000	0.001633	0.001703	28.1253	45.1765	0.001800	25101	3.510238	-1.256222	112.149	1.139744	0.046922	0.046633	117.259	25101	0.043418	0.073160	1602.77	84786.7
119	2.000000	1.142547	7.36621e+06	-44589.1	955.819	-29775.8	0.000000	0.000000	7.147724	125.892	NaN	0.000000	0.001620	0.001689	28.1131	47.7255	0.001759	27128.7	5.584595	175.853	124.296	1.142258	0.049436	0.049147	125.892	27128.7	0.045956	0.080323	1567.32	87454.3
119	2.000000	1.145056	7.36621e+06	-44589.1	955.819	-29775.8	0.000000	0.000000	7.150850	140.908	NaN	0.000000	0.001630	0.001716	28.0806	50.1123	0.001884	26601.8	6.141931	-3.539299	138.231	1.144670	0.051945	0.051559	140.908	26601.8	0.047972	0.086249	1633.73	82757.5
119	2.000000	1.147522	7.36621e+06	-44589.1	955.819	-29775.8	0.000000	0.000000	7.153847	153.812	NaN	0.000000	0.001655	0.001674	28.0871	52.8255	0.001854	28494.6	8.356706	173.201	150.931	1.147207	0.054411	0.054096	153.812	28494.6	0.050363	0.093538	1644.37	85122
119	2.000000	1.150079	7.36621e+06	-44589.1	955.819	-29775.8	0.000000	0.000000	7.157077	170.198	NaN	0.000000	0.001582	0.001717	28.1263	54.1688	0.001773	30547.7	7.013269	-5.010731	168.753	1.149599	0.056968	0.056488	170.198	30547.7	0.052789	0.101228	1681.33	87720.3
119	2.000000	1.152533	7.36621e+06	-44589.1	955.819	-29775.8	0.000000	0.000000	7.159934	179.994	NaN	0.000000	0.001576	0.001716	28.1131	56.7025	0.001745	32487.2	7.972237	172.61	178.542	1.152189	0.059422	0.059078	179.994	32487.2	0.055267	0.109385	1645.5	89744.2
119	2.000000	1.155045	7.36621e+06	-44589.1	955.819	-29775.8	0.000000	0.000000	7.163155	197.235	NaN	0.000000	0.001583	0.001683	28.0812	58.2796	0.001747	33358	5.122129	-4.555098	194.792	1.154588	0.061934	0.061477	197.235	33358	0.057500	0.116996	1685.83	89102
119	2.000000	1.157542	7.36621e+06	-44589.1	955.819	-29775.8	0.000000	0.000000	7.166231	211.33	NaN	0.000000	0.001568	0.001762	28.0859	61.4227	0.001707	35993.3	3.280709	176.7	209.115	1.157282	0.064431	0.064171	211.33	35993.3	0.060027	0.125906	1678.47	92677
119	2.000000	1.160131	7.36621e+06	-44589.1	955.819	-29775.8	0.000000	0.000000	7.169352	224.278	NaN	0.000000	0.001543	0.001769	28.1232	63.5933	0.001706	37271.1	6.477831	-6.656803	223.075	1.159711	0.067020	0.066601	224.278	37271.1	0.062507	0.134952	1661.92	92695
119	2.000000	1.162527	7.36621e+06	-44589.1	955.819	-29775.8	0.000000	0.000000	7.172354	239.023	NaN	0.000000	0.001587	0.001737	28.1123	67.3097	0.001906	35316.9	6.548970	173.277	237.828	1.162161	0.069416	0.069050	239.023	35316.9	0.064340	0.141829	1685.29	85678.7
119	2.000000	1.165053	7.36621e+06	-44589.1	955.818	-29775.8	0.000000	0.000000	7.175499	254.081	NaN	0.000000	0.001590	0.001725	28.0797	68.18	0.001814	37583.9	1.122686	-1.121935	251.673	1.164599	0.071942	0.071489	254.081	37583.9	0.066872	0.151595	1676.05	88192.5
119	2.000000	1.167547	7.36621e+06	-44589.1	955.818	-29775.8	0.000000	0.000000	7.178804	273.803	NaN	0.000000	0.001574	0.001729	28.0841	71.4217	0.001709	41799.1	6.545142	171.788	274.509	1.167246	0.074436	0.074135	273.803	41799.1	0.069523	0.162152	1688.55	94837.1
119	2.000000	1.170052	7.36621e+06	-44589.1	955.819	-29775.8	0.000000	0.000000	7.182100	293.037	NaN	0.000000	0.001572	0.001739	28.1241	72.963	0.001749	41705.6	6.440201	-7.783615	288.617	1.169679	0.076942	0.076568	293.037	41705.6	0.071672	0.170955	1714.12	92156.5
119	2.000000	1.172568	7.36621e+06	-44589.1	955.819	-29775.8	0.000000	0.000000	7.185181	306.781	NaN	0.000000	0.001661	0.001716	28.1132	75.8661	0.001841	41202.4	6.889252	171.314	306.403	1.172275	0.079457	0.079164	306.781	41202.4	0.073873	0.180198	1702.47	88679.2
119	2.000000	1.174978	7.36621e+06	-44589.1	955.819	-29775.8	0.000000	0.000000	7.188352	325.309	NaN	0.000000	0.001644	0.001742	28.0814	76.7352	0.001738	44148.4	2.258135	-4.266924	320.518	1.174636	0.081867	0.081525	325.309	44148.4	0.076340	0.190832	1704.69	92334.2
119	2.000000	1.177579	7.36621e+06	-44589.1	955.819	-29775.8	0.000000	0.000000	7.191642	342.085	NaN	0.000000	0.001615	0.001724	28.0857	81.5222	0.001776	45899.4	7.262477	170.282	342.78	1.177247	0.084468	0.084136	342.085	45899.4	0.078878	0.202066	1692.94	93289.7
119	2.000000	1.179971	7.36621e+06	-44589.1	955.818	-29775.8	0.000000	0.000000	7.194914	363.466	NaN	0.000000	0.001629	0.001689	28.1236	81.726	0.001785	45786.2	1.718475	-4.000509	355.336	1.179607	0.086860	0.086496	363.466	45786.2	0.080906	0.211261	1720.45	91011.8
119	2.000000	1.182475	7.36621e+06	-44589.1	955.818	-29775.8	0.000000	0.000000	7.198050	378.854	NaN	0.000000	0.001613	0.001740	28.1124	84.0052	0.001824	46062.8	2.188981	175.158	373.923	1.182192	0.089364	0.089081	378.854	46062.8	0.083195	0.221868	1707.56	89346.2
119	2.000000	1.185033	7.36621e+06	-44589.1	955.819	-29775.8	0.000000	0.000000	7.201515	400.922	NaN	0.000000	0.001594	0.001716	28.0809	87.7199	0.001778	49344.1	5.088081	-7.629787	397.612	1.184622	0.091922	0.091511	400.922	49344.1	0.085828	0.234367	1710.66	93123.6
119	2.000000	1.187567	7.36621e+06	-44589.1	955.819	-29775.8	0.000000	0.000000	7.204790	418.935	NaN	0.000000	0.001605	0.001697	28.0852	90.1279	0.001875	48073.5	2.814093	174.67	420.035	1.187291	0.094456	0.094180	418.935	48073.5	0.087920	0.244529	1713.23	88820.5
119	2.000000	1.189977	7.36621e+06	-44589.1	955.819	-29775.8	0.000000	0.000000	7.208294	445.547	NaN	0.000000	0.001602	0.001718	28.1252	91.268	0.001810	50431.6	5.668809	-7.274205	439.354	1.189568	0.096866	0.096457	445.547	50431.6	0.090240	0.256031	1740.2	91060.4
119	2.000000	1.192461	7.36621e+06	-44589.1	955.819	-29775.8	0.000000	0.000000	7.211784	470.041	NaN	0.000000	0.001572	0.001734	28.1147	92.765	0.001678	55267.8	3.619463	172.903	464.263	1.192232	0.099350	0.099121	470.041	55267.8	0.092971	0.269888	1741.61	97197.2
119	2.000000	1.194991	7.36621e+06	-44589.1	955.818	-29775.8	0.000000	0.000000	7.215198	491.538	NaN	0.000000	0.001642	0.001729	28.082	96.0703	0.001717	55936.9	6.388143	-10.1217	486.417	1.194698	0.101880	0.101588	491.538	55936.9	0.095289	0.281918	1743.55	96252.1
119	2.000000	1.197452	7.36621e+06	-44589.1	955.819	-29775.8	0.000000	0.000000	7.218426	510.182	NaN	0.000000	0.001617	0.001713	28.0863	98.4531	0.001681	58559.2	2.412944	174.304	504.818	1.197168	0.104341	0.104057	510.182	58559.2	0.097807	0.295262	1727.89	98461.1
119	2.000000	1.199941	7.36621e+06	-44589.1	955.82	-29775.8	0.000000	0.000000	7.221646	527.986	NaN	0.000000	0.001633	0.001685	28.1238	100.888	0.001735	58159.1	4.087486	-7.733613	520.622	1.199785	0.106830	0.106675	527.986	58159.1	0.100021	0.307234	1718.51	95864.1
119	2.000000	1.201046	7.36621e+06	-44589.1	955.82	-29775.8	0.000000	0.000000	7.223363	542.856	NaN	0.000000	0.001609	0.001717	28.0822	103.697	0.001773	58500.8	2.847329	-6.609713	540.984	1.200578	0.107936	0.107467	542.856	58500.8	0.100976	0.312466	1737.33	95616.6