File: remote_trans/data/nanoindenter/0828-1/data/Data_2025-08-06,11h17m57s/2025-07-22_16-23-58_1_631.txt
2025-07-22, 16:23:58, 1
Index	Phase	Displacement	Time	Pos X	Pos Y	Pos Z	Rot A	Rot B	Piezo Z	Force A	Force B	Gripper	Voltage A	Voltage B	Temperature	Amplitude force	Amplitude pos	Stiffness	Phase shift	Phase excitation	Force A raw	Displacement raw	HMax	HMax raw	Real Force	Real Stiffness	Contact Depth	Area	Hardness	Reduced Mod.
[#]	[#]	[um]	[s]	[um]	[um]	[um]	[m°]	[m°]	[um]	[uN]	[uN]	[V]	[V]	[V]	[°C]	[uN]	[um]	[N/m]	[°]	[°]	[uN]	[um]	[um]	[um]	[uN]	[N/m]	[um]	[um^2]	[MPa]	[MPa]
631	1.000000	0.002579	7.37122e+06	-45539.1	1005.82	-29772.1	0.000000	0.000000	6.002795	0.051098	NaN	0.000000	0.001545	0.001768	28.0823	0.045791	0.000940	48.7393	117.117	-162.937	0.118500	0.001319	-1.035506	-1.036766	0.051098	48.7393	-1.036292	-6.983987E+13	-7.316436E-16	NaN
631	1.000000	0.010535	7.37122e+06	-45539.1	1005.82	-29772.1	0.000000	0.000000	6.010748	-0.042639	NaN	0.000000	0.001553	0.001772	28.0818	0.030539	0.000902	33.8635	33.0255	-168.144	-0.010884	0.009242	-1.027549	-1.028842	-0.042639	33.8635	-1.026605	-5.173815E+13	8.241341E-16	NaN
631	1.000000	0.018548	7.37122e+06	-45539.1	1005.82	-29772.1	0.000000	0.000000	6.018762	0.011873	NaN	0.000000	0.001528	0.001743	28.0816	0.095835	0.001788	53.6034	-79.2892	-168.248	-0.129454	0.017196	-1.019537	-1.020888	0.011873	53.6034	-1.019703	-4.177886E+13	-2.841906E-16	NaN
631	1.000000	0.026546	7.37122e+06	-45539.1	1005.82	-29772.1	0.000000	0.000000	6.026762	0.027177	NaN	0.000000	0.001524	0.001741	28.0822	0.057059	0.001836	31.0777	128.548	-169.537	-0.038796	0.025257	-1.011538	-1.012828	0.027177	31.0777	-1.012194	-3.310621E+13	-8.208883E-16	NaN
631	1.000000	0.034550	7.37122e+06	-45539.1	1005.82	-29772.1	0.000000	0.000000	6.034762	-0.055668	NaN	0.000000	0.001558	0.001753	28.0821	0.113075	0.002027	55.7928	-105.491	-166.086	-0.057092	0.033208	-1.003535	-1.004877	-0.055668	55.7928	-1.002786	-2.473327E+13	2.250714E-15	NaN
631	1.000000	0.042528	7.37122e+06	-45539.1	1005.82	-29772.1	0.000000	0.000000	6.042743	0.018842	NaN	0.000000	0.001624	0.001772	28.0827	0.081649	0.001979	41.2537	-89.5514	-167.538	-0.073885	0.041211	-0.995556	-0.996873	0.018842	41.2537	-0.995899	-1.997782E+13	-9.431478E-16	NaN
631	1.000000	0.050502	7.37122e+06	-45539.1	1005.82	-29772.1	0.000000	0.000000	6.050717	0.016576	NaN	0.000000	0.001650	0.001738	28.082	0.079511	0.001890	42.0634	-174.085	-165.429	0.003385	0.049250	-0.987582	-0.988835	0.016576	42.0634	-0.987878	-1.557852E+13	-1.064046E-15	NaN
631	1.000000	0.058528	7.37122e+06	-45539.1	1005.82	-29772.1	0.000000	0.000000	6.058744	0.047160	NaN	0.000000	0.001638	0.001777	28.0818	0.073925	0.001949	37.9378	118.956	-166.988	0.027830	0.057262	-0.979557	-0.980823	0.047160	37.9378	-0.980489	-1.238788E+13	-3.806939E-15	NaN
631	1.000000	0.066550	7.37122e+06	-45539.1	1005.82	-29772.1	0.000000	0.000000	6.066768	0.096974	NaN	0.000000	0.001628	0.001760	28.0819	0.050176	0.002058	24.384	-98.3097	-165.502	0.112794	0.065226	-0.971534	-0.972858	0.096974	24.384	-0.974517	-1.029289E+13	-9.421490E-15	NaN
631	1.000000	0.074546	7.37122e+06	-45539.1	1005.82	-29772.1	0.000000	0.000000	6.074763	0.053174	NaN	0.000000	0.001663	0.001763	28.0818	0.066305	0.002011	32.9754	106.913	-166.428	0.038534	0.073209	-0.963538	-0.964875	0.053174	32.9754	-0.964748	-7.601045E+12	-6.995595E-15	NaN
631	1.000000	0.082565	7.37122e+06	-45539.1	1005.82	-29772.1	0.000000	0.000000	6.082777	-0.067647	NaN	0.000000	0.001661	0.001732	28.0821	0.054946	0.002150	25.559	-75.7917	-165.027	-0.116997	0.081258	-0.955519	-0.956827	-0.067647	25.559	-0.953534	-5.366463E+12	1.260545E-14	NaN
631	1.000000	0.090546	7.37122e+06	-45539.1	1005.82	-29772.1	0.000000	0.000000	6.090759	-0.044078	NaN	0.000000	0.001639	0.001707	28.0832	0.037088	0.001947	19.05	39.0746	-166.513	-0.048427	0.089262	-0.947538	-0.948822	-0.044078	19.05	-0.945803	-4.221009E+12	1.044258E-14	NaN
631	1.000000	0.098538	7.37122e+06	-45539.1	1005.82	-29772.1	0.000000	0.000000	6.098751	-0.043665	NaN	0.000000	0.001643	0.001709	28.0834	0.014660	0.002036	7.200793	-20.3129	-161.797	-0.076439	0.097219	-0.939546	-0.940865	-0.043665	7.200793	-0.934998	-3.017532E+12	1.447038E-14	NaN
631	1.000000	0.106530	7.37122e+06	-45539.1	1005.82	-29772.1	0.000000	0.000000	6.106742	-0.064843	NaN	0.000000	0.001649	0.001687	28.0834	0.024135	0.002071	11.6554	-112.616	-166.443	-0.088688	0.105257	-0.931554	-0.932827	-0.064843	11.6554	-0.927382	-2.381540E+12	2.722732E-14	NaN
631	1.000000	0.114571	7.37122e+06	-45539.1	1005.82	-29772.1	0.000000	0.000000	6.114785	0.008392	NaN	0.000000	0.001621	0.001713	28.0834	0.083567	0.002030	41.1675	166.297	-168.366	0.034705	0.113181	-0.923514	-0.924904	0.008392	41.1675	-0.923667	-2.121824E+12	-3.955199E-15	NaN
631	1.000000	0.122539	7.37122e+06	-45539.1	1005.82	-29772.1	0.000000	0.000000	6.122752	-0.045949	NaN	0.000000	0.001586	0.001705	28.0834	0.049847	0.002128	23.4233	29.3485	-166.271	0.038756	0.121243	-0.915545	-0.916841	-0.045949	23.4233	-0.914074	-1.574645E+12	2.918027E-14	NaN
631	1.000000	0.130546	7.37122e+06	-45539.1	1005.82	-29772.1	0.000000	0.000000	6.130761	0.026881	NaN	0.000000	0.001597	0.001759	28.0831	0.137271	0.002138	64.1999	-12.3976	-166.948	0.041831	0.129280	-0.907539	-0.908804	0.026881	64.1999	-0.907853	-1.297661E+12	-2.071497E-14	NaN
631	1.000000	0.138550	7.37122e+06	-45539.1	1005.82	-29772.1	0.000000	0.000000	6.138761	-0.066314	NaN	0.000000	0.001629	0.001758	28.0833	0.018512	0.002111	8.769779	-27.7634	-166.951	-0.015318	0.137252	-0.899535	-0.900832	-0.066314	8.769779	-0.893864	-8.397309E+11	7.897059E-14	NaN
631	1.000000	0.146557	7.37122e+06	-45539.1	1005.82	-29772.1	0.000000	0.000000	6.146770	-0.042843	NaN	0.000000	0.001611	0.001712	28.0832	0.064314	0.001837	35.0103	-18.1033	-163.972	-0.004551	0.145264	-0.891527	-0.892820	-0.042843	35.0103	-0.890609	-7.588426E+11	5.645827E-14	NaN
631	1.000000	0.154577	7.37122e+06	-45539.1	1005.82	-29772.1	0.000000	0.000000	6.154789	-0.051461	NaN	0.000000	0.001624	0.001722	28.083	0.071253	0.001944	36.6573	64.1849	-166.066	-0.009203	0.153281	-0.883507	-0.884803	-0.051461	36.6573	-0.882454	-5.887068E+11	8.741313E-14	NaN
631	1.000000	0.162578	7.37122e+06	-45539.1	1005.82	-29772.1	0.000000	0.000000	6.162793	0.001695	NaN	0.000000	0.001629	0.001704	28.0829	0.142308	0.001967	72.3464	-32.3114	-162.111	0.031224	0.161267	-0.875506	-0.876817	0.001695	72.3464	-0.875524	-4.744230E+11	-3.573443E-15	NaN
631	1.000000	0.170572	7.37122e+06	-45539.1	1005.82	-29772.1	0.000000	0.000000	6.170786	-0.016190	NaN	0.000000	0.001626	0.001717	28.0827	0.041972	0.001978	21.2199	26.462	-169.021	-0.093971	0.169311	-0.867513	-0.868773	-0.016190	21.2199	-0.866940	-3.631164E+11	4.458549E-14	NaN
631	1.000000	0.178602	7.37122e+06	-45539.1	1005.82	-29772.1	0.000000	0.000000	6.178817	0.001472	NaN	0.000000	0.001646	0.001705	28.0832	0.086095	0.002026	42.4863	6.754738	-167.57	-0.036515	0.177280	-0.859482	-0.860805	0.001472	42.4863	-0.859508	-2.880471E+11	-5.108560E-15	NaN
631	1.000000	0.186584	7.37122e+06	-45539.1	1005.82	-29772.1	0.000000	0.000000	6.186795	-0.089859	NaN	0.000000	0.001634	0.001732	28.0831	0.045689	0.002098	21.7725	-42.0971	-166.549	-0.030892	0.185324	-0.851501	-0.852760	-0.089859	21.7725	-0.848405	-2.037703E+11	4.409799E-13	NaN
631	1.000000	0.194563	7.37122e+06	-45539.1	1005.82	-29772.1	0.000000	0.000000	6.194775	-0.055112	NaN	0.000000	0.001605	0.001694	28.0831	0.059226	0.002053	28.8416	-36.9373	-163.21	-0.003897	0.193286	-0.843522	-0.844799	-0.055112	28.8416	-0.842089	-1.673359E+11	3.293514E-13	NaN
631	1.000000	0.202590	7.37122e+06	-45539.1	1005.82	-29772.1	0.000000	0.000000	6.202805	0.028475	NaN	0.000000	0.001634	0.001708	28.0832	0.025146	0.001953	12.876	86.1281	-163.419	-0.034652	0.201303	-0.835495	-0.836781	0.028475	12.876	-0.837153	-1.434580E+11	-1.984926E-13	NaN
631	1.000000	0.210611	7.37122e+06	-45539.1	1005.82	-29772.1	0.000000	0.000000	6.210824	-0.044369	NaN	0.000000	0.001618	0.001699	28.0829	0.081544	0.001902	42.8649	-119.467	-169.665	-0.033883	0.209253	-0.827473	-0.828831	-0.044369	42.8649	-0.826697	-1.035174E+11	4.286132E-13	NaN
631	1.000000	0.218583	7.37122e+06	-45539.1	1005.82	-29772.1	0.000000	0.000000	6.218795	-0.054494	NaN	0.000000	0.001642	0.001662	28.0831	0.065341	0.002014	32.4366	-149.894	-165.251	-0.073693	0.217325	-0.819502	-0.820760	-0.054494	32.4366	-0.818242	-7.950047E+10	6.854585E-13	NaN
631	1.000000	0.226610	7.37122e+06	-45539.1	1005.82	-29772.1	0.000000	0.000000	6.226823	-0.037212	NaN	0.000000	0.001646	0.001682	28.0817	0.040259	0.001995	20.1803	125.765	-165.093	-0.096146	0.225260	-0.811474	-0.812824	-0.037212	20.1803	-0.810091	-6.163220E+10	6.037749E-13	NaN
631	1.000000	0.234624	7.37122e+06	-45539.1	1005.82	-29772.1	0.000000	0.000000	6.234838	-0.011666	NaN	0.000000	0.001622	0.001663	28.0819	0.051702	0.001984	26.0651	-86.271	-167.286	-0.006779	0.233253	-0.803461	-0.804832	-0.011666	26.0651	-0.803125	-4.957684E+10	2.353083E-13	NaN
631	1.000000	0.242630	7.37122e+06	-45539.1	1005.82	-29772.1	0.000000	0.000000	6.242842	-0.059786	NaN	0.000000	0.001651	0.001715	28.0816	0.021435	0.001996	10.7395	-65.4266	-172.471	-0.000525	0.241327	-0.795455	-0.796758	-0.059786	10.7395	-0.791279	-3.423410E+10	1.746380E-12	NaN
631	1.000000	0.250643	7.37122e+06	-45539.1	1005.82	-29772.1	0.000000	0.000000	6.250857	-0.013906	NaN	0.000000	0.001650	0.001680	28.0819	0.138785	0.001988	69.8077	112.227	-165.387	-0.042238	0.249294	-0.787441	-0.788790	-0.013906	69.8077	-0.787292	-3.022017E+10	4.601632E-13	NaN
631	1.000000	0.258620	7.37122e+06	-45539.1	1005.82	-29772.1	0.000000	0.000000	6.258836	0.031795	NaN	0.000000	0.001651	0.001708	28.0817	0.040847	0.002057	19.8555	177.366	-164.771	-0.057544	0.257345	-0.779464	-0.780740	0.031795	19.8555	-0.780665	-2.456229E+10	-1.294451E-12	NaN
631	1.000000	0.266625	7.37122e+06	-45539.1	1005.82	-29772.1	0.000000	0.000000	6.266838	-0.018282	NaN	0.000000	0.001648	0.001695	28.0815	0.014576	0.002007	7.262918	24.0065	-165.52	-0.011694	0.265279	-0.771460	-0.772805	-0.018282	7.262918	-0.769572	-1.735735E+10	1.053287E-12	NaN
631	1.000000	0.274629	7.37122e+06	-45539.1	1005.82	-29772.1	0.000000	0.000000	6.274841	-0.057483	NaN	0.000000	0.001615	0.001707	28.0817	0.110512	0.001864	59.2898	34.2833	-164.41	-0.061159	0.273302	-0.763456	-0.764783	-0.057483	59.2898	-0.762729	-1.400946E+10	4.103184E-12	NaN
631	1.000000	0.282630	7.37122e+06	-45539.1	1005.82	-29772.1	0.000000	0.000000	6.282844	-0.006390	NaN	0.000000	0.001635	0.001700	28.0819	0.014242	0.001910	7.456672	33.4979	-164.372	-0.076271	0.281334	-0.755454	-0.756750	-0.006390	7.456672	-0.754811	-1.093215E+10	5.845363E-13	NaN
631	1.000000	0.290620	7.37122e+06	-45539.1	1005.82	-29772.1	0.000000	0.000000	6.290834	-0.005602	NaN	0.000000	0.001647	0.001704	28.0819	0.090181	0.002017	44.6999	61.12	-165.427	0.028829	0.289368	-0.747465	-0.748716	-0.005602	44.6999	-0.747371	-8.658207E+9	6.470554E-13	NaN
631	1.000000	0.298627	7.37122e+06	-45539.1	1005.82	-29772.1	0.000000	0.000000	6.298839	-0.060612	NaN	0.000000	0.001654	0.001718	28.0818	0.025142	0.001801	13.9625	115.036	-162.41	-0.005776	0.297281	-0.739458	-0.740803	-0.060612	13.9625	-0.736202	-6.099851E+9	9.936588E-12	NaN
631	1.000000	0.306658	7.37122e+06	-45539.1	1005.82	-29772.1	0.000000	0.000000	6.306870	-0.047488	NaN	0.000000	0.001597	0.001715	28.0816	0.057017	0.002085	27.3477	7.099168	-164.465	-0.041028	0.305318	-0.731427	-0.732766	-0.047488	27.3477	-0.730124	-5.040822E+9	9.420639E-12	NaN
631	1.000000	0.314641	7.37122e+06	-45539.1	1005.82	-29772.1	0.000000	0.000000	6.314853	-0.059669	NaN	0.000000	0.001618	0.001672	28.0815	0.054357	0.002014	26.9829	147.797	-164.853	-0.047914	0.313292	-0.723443	-0.724792	-0.059669	26.9829	-0.721785	-3.879835E+9	1.537925E-11	NaN
631	1.000000	0.322630	7.37122e+06	-45539.1	1005.82	-29772.1	0.000000	0.000000	6.322844	-0.024948	NaN	0.000000	0.001592	0.001706	28.0817	0.023316	0.002092	11.1457	-161.329	-163.777	0.003211	0.321325	-0.715454	-0.716759	-0.024948	11.1457	-0.713775	-3.016923E+9	8.269195E-12	NaN
631	1.000000	0.330665	7.37122e+06	-45539.1	1005.82	-29772.1	0.000000	0.000000	6.330878	-0.043902	NaN	0.000000	0.001571	0.001707	28.0819	0.093650	0.002070	45.2324	4.225664	-165.891	-0.044292	0.329354	-0.707419	-0.708730	-0.043902	45.2324	-0.706691	-2.414843E+9	1.818026E-11	NaN
631	1.000000	0.338629	7.37122e+06	-45539.1	1005.82	-29772.1	0.000000	0.000000	6.338845	0.061746	NaN	0.000000	0.001569	0.001721	28.0814	0.076152	0.002091	36.424	-145.315	-164.714	0.112199	0.337323	-0.699456	-0.700761	0.061746	36.424	-0.700727	-2.002000E+9	-3.084233E-11	NaN
631	1.000000	0.346622	7.37123e+06	-45539.1	1005.82	-29772.1	0.000000	0.000000	6.346834	-0.076429	NaN	0.000000	0.001545	0.001742	28.0817	0.111501	0.001882	59.2316	118.201	-168.428	-0.066467	0.345341	-0.691462	-0.692743	-0.076429	59.2316	-0.690494	-1.451019E+9	5.267270E-11	NaN
631	1.000000	0.354705	7.37123e+06	-45539.1	1005.82	-29772.1	0.000000	0.000000	6.354917	-0.052284	NaN	0.000000	0.001592	0.001743	28.0814	0.089868	0.001989	45.1787	85.5716	-165.179	-0.055525	0.353321	-0.683380	-0.684764	-0.052284	45.1787	-0.682512	-1.128636E+9	4.632474E-11	NaN
631	1.000000	0.362640	7.37123e+06	-45539.1	1005.82	-29772.1	0.000000	0.000000	6.362856	0.040259	NaN	0.000000	0.001593	0.001711	28.0829	0.067851	0.001934	35.0811	-61.4164	-164.148	-0.096345	0.361320	-0.675444	-0.676764	0.040259	35.0811	-0.676305	-9.282462E+8	-4.337125E-11	NaN
631	1.000000	0.370654	7.37123e+06	-45539.1	1005.82	-29772.1	0.000000	0.000000	6.370868	-0.008722	NaN	0.000000	0.001577	0.001710	28.0828	0.081318	0.001892	42.9894	-166.166	-166.841	-0.074677	0.369346	-0.667430	-0.668738	-0.008722	42.9894	-0.667278	-6.984398E+8	1.248769E-11	NaN
631	1.000000	0.378678	7.37123e+06	-45539.1	1005.82	-29772.1	0.000000	0.000000	6.378890	-0.065913	NaN	0.000000	0.001579	0.001701	28.0828	0.043870	0.001874	23.4134	-175.015	-164.431	-0.047621	0.377322	-0.659406	-0.660763	-0.065913	23.4134	-0.657295	-5.098122E+8	1.292886E-10	NaN
631	1.000000	0.386672	7.37123e+06	-45539.1	1005.82	-29772.1	0.000000	0.000000	6.386889	0.066217	NaN	0.000000	0.001589	0.001712	28.0831	0.090123	0.001847	48.7905	159.735	-164.755	-0.004869	0.385363	-0.651413	-0.652721	0.066217	48.7905	-0.652431	-4.372748E+8	-1.514321E-10	NaN
631	1.000000	0.394694	7.37123e+06	-45539.1	1005.82	-29772.1	0.000000	0.000000	6.394910	0.030410	NaN	0.000000	0.001631	0.001693	28.083	0.056097	0.002045	27.4287	176.702	-165.713	0.003357	0.393319	-0.643390	-0.644765	0.030410	27.4287	-0.644222	-3.374441E+8	-9.011916E-11	NaN
631	1.000000	0.402683	7.37123e+06	-45539.1	1005.82	-29772.1	0.000000	0.000000	6.402896	-0.025475	NaN	0.000000	0.001587	0.001709	28.083	0.070481	0.001992	35.3765	-152.088	-165.258	-0.070684	0.401338	-0.635402	-0.636747	-0.025475	35.3765	-0.634861	-2.510557E+8	1.014703E-10	NaN
631	1.000000	0.410663	7.37123e+06	-45539.1	1005.82	-29772.1	0.000000	0.000000	6.410878	0.012310	NaN	0.000000	0.001606	0.001752	28.0827	0.022868	0.002086	10.9637	71.6867	-166.571	-0.016220	0.409332	-0.627421	-0.628752	0.012310	10.9637	-0.628263	-2.037835E+8	-6.040603E-11	NaN
631	1.000000	0.418711	7.37123e+06	-45539.1	1005.82	-29772.1	0.000000	0.000000	6.418926	0.031707	NaN	0.000000	0.001645	0.001754	28.0827	0.061232	0.002109	29.0304	-71.6146	-165.88	0.047233	0.417372	-0.619374	-0.620712	0.031707	29.0304	-0.620193	-1.578644E+8	-2.008506E-10	NaN
631	1.000000	0.426697	7.37123e+06	-45539.1	1005.82	-29772.1	0.000000	0.000000	6.426911	-0.008756	NaN	0.000000	0.001595	0.001756	28.0829	0.022107	0.001962	11.2685	116.821	-164.601	0.079138	0.425378	-0.611388	-0.612706	-0.008756	11.2685	-0.610805	-1.172705E+8	7.466880E-11	NaN
631	1.000000	0.434714	7.37123e+06	-45539.1	1005.82	-29772.1	0.000000	0.000000	6.434931	0.046504	NaN	0.000000	0.001603	0.001731	28.0827	0.069029	0.002003	34.4657	19.4331	-165.078	-0.030041	0.433345	-0.603370	-0.604739	0.046504	34.4657	-0.604382	-9.567503E+7	-4.860603E-10	NaN
631	1.000000	0.442708	7.37123e+06	-45539.1	1005.82	-29772.1	0.000000	0.000000	6.442919	-0.084890	NaN	0.000000	0.001591	0.001721	28.0829	0.156260	0.001996	78.2988	155.912	-167.288	-0.018646	0.441399	-0.595376	-0.596686	-0.084890	78.2988	-0.594563	-7.007512E+7	1.211414E-9	NaN
631	1.000000	0.450689	7.37123e+06	-45539.1	1005.82	-29772.1	0.000000	0.000000	6.450902	-0.023623	NaN	0.000000	0.001632	0.001745	28.0831	0.065400	0.001892	34.5737	104.372	-163.015	0.037630	0.449368	-0.587396	-0.588717	-0.023623	34.5737	-0.586883	-5.491453E+7	4.301686E-10	NaN
631	1.000000	0.458707	7.37123e+06	-45539.1	1005.82	-29772.1	0.000000	0.000000	6.458918	-0.075578	NaN	0.000000	0.001593	0.001748	28.0829	0.069305	0.001910	36.293	151.629	-162.003	-0.024262	0.457361	-0.579377	-0.580723	-0.075578	36.293	-0.577816	-4.116931E+7	1.835794E-9	NaN
631	1.000000	0.466709	7.37123e+06	-45539.1	1005.82	-29772.1	0.000000	0.000000	6.466924	0.016419	NaN	0.000000	0.001563	0.001702	28.0829	0.055069	0.002074	26.5559	-44.7126	-168.274	0.022757	0.465423	-0.571376	-0.572661	0.016419	26.5559	-0.571840	-3.404447E+7	-4.822786E-10	NaN
631	1.000000	0.474696	7.37123e+06	-45539.1	1005.82	-29772.1	0.000000	0.000000	6.474911	0.018167	NaN	0.000000	0.001577	0.001721	28.0826	0.079231	0.001975	40.121	-67.1401	-163.546	0.007442	0.473369	-0.563389	-0.564715	0.018167	40.121	-0.563728	-2.629905E+7	-6.907833E-10	NaN
631	1.000000	0.482727	7.37123e+06	-45539.1	1005.82	-29772.1	0.000000	0.000000	6.482940	-0.023387	NaN	0.000000	0.001562	0.001720	28.0829	0.047003	0.002226	21.1199	-28.5636	-163.129	-0.024486	0.481424	-0.555357	-0.556661	-0.023387	21.1199	-0.554527	-1.961727E+7	1.192149E-9	NaN
631	1.000000	0.490716	7.37123e+06	-45539.1	1005.82	-29772.1	0.000000	0.000000	6.490930	-0.004646	NaN	0.000000	0.001578	0.001716	28.0826	0.028365	0.002050	13.8333	-173.596	-170.248	0.032229	0.489412	-0.547369	-0.548673	-0.004646	13.8333	-0.547117	-1.548874E+7	2.999445E-10	NaN
631	1.000000	0.498724	7.37123e+06	-45539.1	1005.82	-29772.1	0.000000	0.000000	6.498939	0.008171	NaN	0.000000	0.001579	0.001743	28.0814	0.054013	0.001928	28.0093	177.374	-165.604	0.081762	0.497408	-0.539360	-0.540676	0.008171	28.0093	-0.539579	-1.217634E+7	-6.710507E-10	NaN
631	1.000000	0.506720	7.37123e+06	-45539.1	1005.82	-29772.1	0.000000	0.000000	6.506931	-0.087580	NaN	0.000000	0.001594	0.001754	28.0817	0.065616	0.002009	32.661	109.426	-162.201	-0.013688	0.505429	-0.531364	-0.532655	-0.087580	32.661	-0.529353	-8.78189e+06	9.972814E-9	NaN
631	1.000000	0.514711	7.37123e+06	-45539.1	1005.82	-29772.1	0.000000	0.000000	6.514927	0.037274	NaN	0.000000	0.001602	0.001706	28.0821	0.091153	0.002100	43.3989	-124.5	-168.651	0.028744	0.513450	-0.523373	-0.524635	0.037274	43.3989	-0.524018	-7.40382e+06	-5.034445E-9	NaN
631	1.000000	0.522740	7.37123e+06	-45539.1	1005.82	-29772.1	0.000000	0.000000	6.522956	0.036150	NaN	0.000000	0.001613	0.001716	28.0816	0.080517	0.002079	38.7207	-169.94	-170.195	0.018084	0.521442	-0.515345	-0.516642	0.036150	38.7207	-0.516045	-5.73552e+06	-6.302779E-9	NaN
631	1.000000	0.530709	7.37123e+06	-45539.1	1005.82	-29772.1	0.000000	0.000000	6.530925	0.049713	NaN	0.000000	0.001669	0.001714	28.0817	0.071452	0.002019	35.394	154.638	-163.415	-0.043336	0.529464	-0.507375	-0.508621	0.049713	35.394	-0.508429	-4.49293e+06	-1.106475E-8	NaN
631	1.000000	0.538745	7.37123e+06	-45539.1	1005.82	-29772.1	0.000000	0.000000	6.538960	0.009059	NaN	0.000000	0.001663	0.001735	28.0818	0.057852	0.001928	30.0008	173.283	-166.293	0.019775	0.537377	-0.499339	-0.500707	0.009059	30.0008	-0.499566	-3.38035e+06	-2.679833E-9	NaN
631	1.000000	0.546755	7.37123e+06	-45539.1	1005.82	-29772.1	0.000000	0.000000	6.546970	0.021778	NaN	0.000000	0.001637	0.001745	28.0817	0.081554	0.002131	38.2653	-152.464	-165.804	0.012121	0.545412	-0.491330	-0.492672	0.021778	38.2653	-0.491757	-2.62988e+06	-8.281089E-9	NaN
631	1.000000	0.554755	7.37123e+06	-45539.1	1005.82	-29772.1	0.000000	0.000000	6.554970	-0.003282	NaN	0.000000	0.001654	0.001734	28.0815	0.041282	0.002069	19.956	84.4901	-165.055	0.032346	0.553431	-0.483329	-0.484654	-0.003282	19.956	-0.483206	-1.99706e+06	1.643245E-9	NaN
631	1.000000	0.562728	7.37123e+06	-45539.1	1005.82	-29772.1	0.000000	0.000000	6.562940	-0.067992	NaN	0.000000	0.001642	0.001729	28.0815	0.083582	0.002021	41.3539	-143.038	-164.78	-0.072622	0.561456	-0.475356	-0.476628	-0.067992	41.3539	-0.474123	-1.4901e+06	4.562891E-8	NaN
631	1.000000	0.570723	7.37123e+06	-45539.1	1005.82	-29772.1	0.000000	0.000000	6.570938	0.007429	NaN	0.000000	0.001648	0.001753	28.0817	0.024836	0.002024	12.2711	-78.8066	-168.694	0.040631	0.569492	-0.467362	-0.468593	0.007429	12.2711	-0.467816	-1.21552e+06	-6.111781E-9	NaN
631	1.000000	0.578757	7.37123e+06	-45539.1	1005.82	-29772.1	0.000000	0.000000	6.578969	-0.036830	NaN	0.000000	0.001688	0.001726	28.0817	0.057794	0.001874	30.8476	-75.1432	-164.865	-0.061844	0.577408	-0.459328	-0.460676	-0.036830	30.8476	-0.458432	-897398	4.104120E-8	NaN
631	1.000000	0.586793	7.37123e+06	-45539.1	1005.82	-29772.1	0.000000	0.000000	6.587007	-0.017169	NaN	0.000000	0.001626	0.001732	28.0815	0.072095	0.002070	34.822	-80.2013	-165.803	0.045041	0.585460	-0.451291	-0.452625	-0.017169	34.822	-0.450921	-703588	2.440232E-8	NaN
631	1.000000	0.594778	7.37123e+06	-45539.1	1005.82	-29772.1	0.000000	0.000000	6.594992	-0.001431	NaN	0.000000	0.001578	0.001687	28.0818	0.114218	0.001955	58.4315	160.065	-164.734	-0.031095	0.593459	-0.443306	-0.444625	-0.001431	58.4315	-0.443288	-549226	2.606150E-9	NaN
631	1.000000	0.602750	7.37123e+06	-45539.1	1005.82	-29772.1	0.000000	0.000000	6.602963	-0.020564	NaN	0.000000	0.001602	0.001719	28.082	0.093261	0.002024	46.0677	139.71	-167.332	0.017995	0.601442	-0.435335	-0.436643	-0.020564	46.0677	-0.435000	-419522	4.901880E-8	NaN
631	1.000000	0.610780	7.37123e+06	-45539.1	1005.82	-29772.1	0.000000	0.000000	6.610996	0.039592	NaN	0.000000	0.001615	0.001709	28.0818	0.041857	0.002117	19.7737	103.242	-166.857	-0.051644	0.609435	-0.427305	-0.428649	0.039592	19.7737	-0.428806	-342904	-1.154600E-7	NaN
631	1.000000	0.618770	7.37123e+06	-45539.1	1005.82	-29772.1	0.000000	0.000000	6.618984	-0.009257	NaN	0.000000	0.001592	0.001704	28.0815	0.092899	0.002070	44.8791	146.569	-169.057	0.023549	0.617529	-0.419314	-0.420556	-0.009257	44.8791	-0.419160	-250319	3.697971E-8	NaN
631	1.000000	0.626816	7.37123e+06	-45539.1	1005.82	-29772.1	0.000000	0.000000	6.627030	0.001677	NaN	0.000000	0.001600	0.001710	28.0815	0.087533	0.001965	44.536	-80.8994	-163.44	0.022275	0.625447	-0.411269	-0.412637	0.001677	44.536	-0.411297	-193570	-8.664954E-9	NaN
631	1.000000	0.634779	7.37123e+06	-45539.1	1005.82	-29772.1	0.000000	0.000000	6.634992	-0.035932	NaN	0.000000	0.001630	0.001715	28.0833	0.102347	0.001860	55.0381	-179.379	-164.418	-0.040564	0.633456	-0.403306	-0.404629	-0.035932	55.0381	-0.402816	-146602	2.450965E-7	NaN
631	1.000000	0.642768	7.37123e+06	-45539.1	1005.82	-29772.1	0.000000	0.000000	6.642981	-0.016586	NaN	0.000000	0.001629	0.001708	28.083	0.003197	0.002079	1.537523	44.5709	-165.024	0.038703	0.641460	-0.395317	-0.396625	-0.016586	1.537523	-0.387226	-87795.3	1.889172E-7	NaN
631	1.000000	0.650766	7.37123e+06	-45539.1	1005.82	-29772.1	0.000000	0.000000	6.650978	-0.062252	NaN	0.000000	0.001615	0.001707	28.0829	0.056705	0.001839	30.8358	0.334357	-163.362	-0.090464	0.649442	-0.387319	-0.388642	-0.062252	30.8358	-0.385805	-83774.5	7.430881E-7	NaN
631	1.000000	0.658802	7.37123e+06	-45539.1	1005.82	-29772.1	0.000000	0.000000	6.659015	-0.014037	NaN	0.000000	0.001602	0.001719	28.0827	0.124844	0.002029	61.5375	125.425	-167.314	-0.042836	0.657478	-0.379283	-0.380606	-0.014037	61.5375	-0.379112	-67164.8	2.089942E-7	NaN
631	1.000000	0.666824	7.37123e+06	-45539.1	1005.82	-29772.1	0.000000	0.000000	6.667040	0.036765	NaN	0.000000	0.001632	0.001741	28.0829	0.073759	0.001983	37.1891	89.2891	-163.872	-0.000520	0.665456	-0.371260	-0.372628	0.036765	37.1891	-0.372002	-53081.9	-6.926183E-7	NaN
631	1.000000	0.674781	7.37123e+06	-45539.1	1005.82	-29772.1	0.000000	0.000000	6.674997	0.022795	NaN	0.000000	0.001607	0.001730	28.0831	0.053876	0.001921	28.0393	-35.5903	-167.874	-0.005234	0.673472	-0.363303	-0.364612	0.022795	28.0393	-0.363913	-40584.9	-5.616684E-7	NaN
631	1.000000	0.682810	7.37123e+06	-45539.1	1005.82	-29772.1	0.000000	0.000000	6.683023	-0.021621	NaN	0.000000	0.001609	0.001726	28.0829	0.041959	0.001926	21.789	40.0285	-163.351	0.034333	0.681466	-0.355275	-0.356619	-0.021621	21.789	-0.354531	-29696	7.280811E-7	NaN
631	1.000000	0.690788	7.37123e+06	-45539.1	1005.82	-29772.1	0.000000	0.000000	6.691001	-0.049888	NaN	0.000000	0.001596	0.001714	28.083	0.032916	0.001929	17.0646	169.841	-164.669	-0.135203	0.689465	-0.347296	-0.348620	-0.049888	17.0646	-0.345104	-21670.2	2.302132E-6	NaN
631	1.000000	0.698832	7.37123e+06	-45539.1	1005.82	-29772.1	0.000000	0.000000	6.699046	-0.025138	NaN	0.000000	0.001626	0.001753	28.0829	0.064878	0.001850	35.0659	168.51	-165.516	0.011720	0.697493	-0.339252	-0.340591	-0.025138	35.0659	-0.338714	-17490.7	1.437193E-6	NaN
631	1.000000	0.706787	7.37123e+06	-45539.1	1005.82	-29772.1	0.000000	0.000000	6.707001	-0.009060	NaN	0.000000	0.001646	0.001735	28.0828	0.160169	0.002003	79.9644	40.8655	-164.534	0.021927	0.705520	-0.331298	-0.332564	-0.009060	79.9644	-0.331213	-13589.5	6.667094E-7	NaN
631	1.000000	0.714816	7.37123e+06	-45539.1	1005.82	-29772.1	0.000000	0.000000	6.715030	-0.004685	NaN	0.000000	0.001616	0.001710	28.083	0.024108	0.002186	11.0271	108.162	-165.67	0.032054	0.713536	-0.323269	-0.324548	-0.004685	11.0271	-0.322950	-10280.9	4.557078E-7	NaN
631	1.000000	0.722802	7.37123e+06	-45539.1	1005.82	-29772.1	0.000000	0.000000	6.723016	-0.008504	NaN	0.000000	0.001592	0.001683	28.0829	0.117893	0.001979	59.561	158.678	-165.294	0.057761	0.721520	-0.315282	-0.316565	-0.008504	59.561	-0.315175	-7898.29	1.076628E-6	NaN
631	1.000000	0.730821	7.37123e+06	-45539.1	1005.82	-29772.1	0.000000	0.000000	6.731035	0.010027	NaN	0.000000	0.001622	0.001723	28.0832	0.038651	0.001994	19.388	128.529	-165.234	-0.034700	0.729543	-0.307264	-0.308542	0.010027	19.388	-0.307652	-6113.37	-1.640207E-6	NaN
631	1.000000	0.738819	7.37123e+06	-45539.1	1005.82	-29772.1	0.000000	0.000000	6.739029	-0.091008	NaN	0.000000	0.001636	0.001716	28.0832	0.083641	0.001872	44.6833	-117.531	-163.045	-0.107440	0.737504	-0.299266	-0.300581	-0.091008	44.6833	-0.297738	-4354.55	2.089956E-5	NaN
631	1.000000	0.746826	7.37123e+06	-45539.1	1005.82	-29772.1	0.000000	0.000000	6.747035	-0.117844	NaN	0.000000	0.001622	0.001779	28.083	0.059865	0.002022	29.6037	-123.205	-168.214	-0.072747	0.745523	-0.291259	-0.292561	-0.117844	29.6037	-0.288273	-3143.53	3.748766E-5	NaN
631	1.000000	0.754839	7.37123e+06	-45539.1	1005.82	-29772.1	0.000000	0.000000	6.755050	-0.071941	NaN	0.000000	0.001629	0.001724	28.0828	0.069960	0.001985	35.2377	81.4353	-167.467	-0.036657	0.753542	-0.283246	-0.284543	-0.071941	35.2377	-0.281715	-2505.09	2.871795E-5	NaN
631	1.000000	0.762856	7.37123e+06	-45539.1	1005.82	-29772.1	0.000000	0.000000	6.763070	-0.006461	NaN	0.000000	0.001620	0.001716	28.083	0.092478	0.001899	48.6921	-50.7134	-165.625	0.069096	0.761507	-0.275229	-0.276578	-0.006461	48.6921	-0.275129	-1992.29	3.243035E-6	NaN
631	1.000000	0.770827	7.37123e+06	-45539.1	1005.82	-29772.1	0.000000	0.000000	6.771039	-0.059510	NaN	0.000000	0.001637	0.001707	28.0821	0.106615	0.001921	55.5131	154.954	-164.436	-0.058539	0.769494	-0.267258	-0.268590	-0.059510	55.5131	-0.266454	-1470.83	4.045997E-5	NaN
631	1.000000	0.778845	7.37123e+06	-45539.1	1005.82	-29772.1	0.000000	0.000000	6.779056	-0.081749	NaN	0.000000	0.001609	0.001717	28.0818	0.039855	0.001965	20.2779	103.126	-164.751	-0.072509	0.777551	-0.259240	-0.260534	-0.081749	20.2779	-0.256216	-1025.25	7.973579E-5	NaN
631	1.000000	0.786860	7.37123e+06	-45539.1	1005.82	-29772.1	0.000000	0.000000	6.787073	-0.032748	NaN	0.000000	0.001667	0.001697	28.082	0.032271	0.002117	15.242	39.7049	-165.922	-0.051838	0.785537	-0.251225	-0.252547	-0.032748	15.242	-0.249613	-810.935	4.038251E-5	NaN
631	1.000000	0.794819	7.37123e+06	-45539.1	1005.82	-29772.1	0.000000	0.000000	6.795032	-0.028133	NaN	0.000000	0.001620	0.001691	28.0819	0.157289	0.001974	79.6735	-88.8087	-165.955	-0.034577	0.793528	-0.243265	-0.244556	-0.028133	79.6735	-0.243001	-640.25	4.394005E-5	NaN
631	1.000000	0.802868	7.37123e+06	-45539.1	1005.82	-29772.1	0.000000	0.000000	6.803082	-0.019909	NaN	0.000000	0.001619	0.001681	28.0822	0.133052	0.002025	65.6904	83.3879	-166.766	-0.011121	0.801540	-0.235216	-0.236544	-0.019909	65.6904	-0.234989	-479.819	4.149337E-5	NaN
631	1.000000	0.810833	7.37123e+06	-45539.1	1005.82	-29772.1	0.000000	0.000000	6.811047	0.000506	NaN	0.000000	0.001648	0.001735	28.0818	0.079243	0.002077	38.1533	41.2696	-162.404	-0.006756	0.809525	-0.227251	-0.228559	0.000506	38.1533	-0.227261	-362.413	-1.395239E-6	NaN
631	1.000000	0.818812	7.37123e+06	-45539.1	1005.82	-29772.1	0.000000	0.000000	6.819024	-0.045583	NaN	0.000000	0.001620	0.001693	28.0818	0.089071	0.001901	46.8665	162.742	-166.788	0.010417	0.817531	-0.219273	-0.220553	-0.045583	46.8665	-0.218543	-263.252	0.000173	NaN
631	1.000000	0.826860	7.37123e+06	-45539.1	1005.82	-29772.1	0.000000	0.000000	6.827074	-0.016414	NaN	0.000000	0.001623	0.001691	28.0819	0.031789	0.002005	15.8551	-48.6937	-163.547	-0.060962	0.825570	-0.211224	-0.212514	-0.016414	15.8551	-0.210448	-195.016	8.416837E-5	NaN
631	1.000000	0.834841	7.37123e+06	-45539.1	1005.82	-29772.1	0.000000	0.000000	6.835055	-0.010992	NaN	0.000000	0.001643	0.001716	28.082	0.039366	0.001988	19.8066	63.7573	-166.504	0.018202	0.833516	-0.203244	-0.204568	-0.010992	19.8066	-0.202828	-146.578	7.499016E-5	NaN
631	1.000000	0.842882	7.37123e+06	-45539.1	1005.82	-29772.1	0.000000	0.000000	6.843095	-0.032732	NaN	0.000000	0.001632	0.001699	28.0817	0.017376	0.002084	8.339316	-75.1946	-168.604	-0.011383	0.841516	-0.195203	-0.196568	-0.032732	8.339316	-0.192259	-98.1048	0.000334	NaN
631	1.000000	0.850867	7.37123e+06	-45539.1	1005.82	-29772.1	0.000000	0.000000	6.851081	-0.020691	NaN	0.000000	0.001611	0.001689	28.0816	0.111303	0.002056	54.1439	-68.9193	-164.218	0.000990	0.849599	-0.187217	-0.188486	-0.020691	54.1439	-0.186931	-79.9125	0.000259	NaN
631	1.000000	0.858877	7.37123e+06	-45539.1	1005.82	-29772.1	0.000000	0.000000	6.859093	0.032489	NaN	0.000000	0.001657	0.001691	28.0818	0.078604	0.001926	40.8062	-63.2201	-165.303	-0.009921	0.857522	-0.179208	-0.180562	0.032489	40.8062	-0.179805	-60.5543	-0.000537	NaN
631	1.000000	0.866900	7.37123e+06	-45539.1	1005.82	-29772.1	0.000000	0.000000	6.867115	0.011388	NaN	0.000000	0.001633	0.001727	28.0817	0.047689	0.001992	23.9393	-67.1919	-166.549	0.015715	0.865546	-0.171184	-0.172538	0.011388	23.9393	-0.171541	-43.6844	-0.000261	NaN
631	1.000000	0.874923	7.37123e+06	-45539.1	1005.82	-29772.1	0.000000	0.000000	6.875136	-0.031693	NaN	0.000000	0.001637	0.001694	28.0818	0.128872	0.001928	66.8296	-44.0552	-168.418	-0.051805	0.873556	-0.163162	-0.164529	-0.031693	66.8296	-0.162806	-30.7385	0.001031	NaN
631	1.000000	0.882874	7.37123e+06	-45539.1	1005.82	-29772.1	0.000000	0.000000	6.883087	-0.033578	NaN	0.000000	0.001623	0.001657	28.0818	0.067994	0.001955	34.7745	-114.643	-163.991	-0.005114	0.881603	-0.155211	-0.156481	-0.033578	34.7745	-0.154486	-21.844	0.001537	NaN
631	1.000000	0.890866	7.37123e+06	-45539.1	1005.82	-29772.1	0.000000	0.000000	6.891079	-0.030580	NaN	0.000000	0.001592	0.001639	28.082	0.048339	0.002013	24.019	-124	-163.96	-0.023570	0.889589	-0.147219	-0.148495	-0.030580	24.019	-0.146264	-15.4706	0.001977	NaN
631	1.000000	0.898911	7.37123e+06	-45539.1	1005.82	-29772.1	0.000000	0.000000	6.899126	0.010368	NaN	0.000000	0.001595	0.001689	28.0818	0.053094	0.001914	27.7344	-72.2304	-166.83	0.031859	0.897562	-0.139174	-0.140522	0.010368	27.7344	-0.139454	-11.5532	-0.000897	NaN
631	1.000000	0.906896	7.37123e+06	-45539.1	1005.82	-29772.1	0.000000	0.000000	6.907110	-0.005376	NaN	0.000000	0.001605	0.001692	28.0829	0.077277	0.002063	37.4604	59.4442	-167.992	-0.055090	0.905624	-0.131188	-0.132461	-0.005376	37.4604	-0.131081	-7.997628	0.000672	NaN
631	1.000000	0.914889	7.37123e+06	-45539.1	1005.82	-29772.1	0.000000	0.000000	6.915101	-0.055923	NaN	0.000000	0.001629	0.001654	28.083	0.017689	0.002014	8.783654	-69.1569	-165.083	-0.141503	0.913582	-0.123196	-0.124502	-0.055923	8.783654	-0.118421	-4.488511	0.012459	NaN
631	1.000000	0.922878	7.37123e+06	-45539.1	1005.82	-29772.1	0.000000	0.000000	6.923093	0.012175	NaN	0.000000	0.001587	0.001670	28.0833	0.108692	0.002023	53.725	151.629	-165.136	-0.073184	0.921626	-0.115206	-0.116458	0.012175	53.725	-0.115376	-3.889181	-0.003131	NaN
631	1.000000	0.930876	7.37123e+06	-45539.1	1005.82	-29772.1	0.000000	0.000000	6.931088	-0.055855	NaN	0.000000	0.001574	0.001674	28.0832	0.076055	0.002035	37.3771	134.469	-168.448	-0.023481	0.929578	-0.107208	-0.108506	-0.055855	37.3771	-0.106088	-2.480879	0.022514	NaN
631	1.000000	0.938899	7.37123e+06	-45539.1	1005.82	-29772.1	0.000000	0.000000	6.939113	-0.009925	NaN	0.000000	0.001602	0.001732	28.083	0.108309	0.002158	50.1958	50.675	-164.389	0.010125	0.937587	-0.099185	-0.100498	-0.009925	50.1958	-0.099037	-1.739263	0.005706	NaN
631	1.000000	0.946915	7.37123e+06	-45539.1	1005.82	-29772.1	0.000000	0.000000	6.947128	-0.027172	NaN	0.000000	0.001674	0.001715	28.0829	0.049968	0.001866	26.7761	-164.119	-166.822	-0.030992	0.945644	-0.091169	-0.092440	-0.027172	26.7761	-0.090408	-1.105048	0.024589	NaN
631	1.000000	0.954931	7.37123e+06	-45539.1	1005.82	-29772.1	0.000000	0.000000	6.955143	-0.060406	NaN	0.000000	0.001691	0.001738	28.083	0.004378	0.002015	2.173222	40.0626	-166.824	0.037640	0.953637	-0.083153	-0.084447	-0.060406	2.173222	-0.062307	-0.209492	0.288346	NaN
631	1.000000	0.962917	7.37123e+06	-45539.1	1005.82	-29772.1	0.000000	0.000000	6.963132	0.038345	NaN	0.000000	0.001620	0.001707	28.0831	0.080643	0.001874	43.024	-92.6666	-168.5	0.042398	0.961576	-0.075168	-0.076509	0.038345	43.024	-0.075836	-0.485395	-0.078997	NaN
631	1.000000	0.970934	7.37123e+06	-45539.1	1005.82	-29772.1	0.000000	0.000000	6.971147	-0.032862	NaN	0.000000	0.001603	0.001673	28.0832	0.061388	0.001963	31.2802	131.223	-164.547	0.012577	0.969577	-0.067150	-0.068508	-0.032862	31.2802	-0.066362	-0.271759	0.120922	NaN
631	1.000000	0.978900	7.37123e+06	-45539.1	1005.82	-29772.1	0.000000	0.000000	6.979112	-0.046694	NaN	0.000000	0.001583	0.001697	28.0831	0.057465	0.002033	28.2723	-76.35	-166.721	-0.067181	0.977586	-0.059185	-0.060499	-0.046694	28.2723	-0.057946	-0.157109	0.297205	NaN
631	1.000000	0.986927	7.37123e+06	-45539.1	1005.82	-29772.1	0.000000	0.000000	6.987139	-0.048333	NaN	0.000000	0.001602	0.001676	28.0828	0.093811	0.001999	46.94	151.585	-163.261	-0.069594	0.985653	-0.051157	-0.052432	-0.048333	46.94	-0.050385	-0.093729	0.515664	NaN
631	1.000000	0.994917	7.37123e+06	-45539.1	1005.82	-29772.1	0.000000	0.000000	6.995128	-0.084911	NaN	0.000000	0.001568	0.001664	28.083	0.077220	0.001998	38.6399	-58.5284	-164.184	0.010297	0.993613	-0.043167	-0.044471	-0.084911	38.6399	-0.041519	-0.050302	1.688012	NaN
631	1.000000	1.002940	7.37123e+06	-45539.1	1005.82	-29772.1	0.000000	0.000000	7.003154	0.013987	NaN	0.000000	0.001563	0.001705	28.0831	0.084677	0.001926	43.9569	-59.4684	-167.517	-0.007475	1.001672	-0.035145	-0.036412	0.013987	43.9569	-0.035384	-0.032870	-0.425528	NaN
631	1.000000	1.010957	7.37123e+06	-45539.1	1005.82	-29772.1	0.000000	0.000000	7.011171	-0.010134	NaN	0.000000	0.001582	0.001737	28.0829	0.040306	0.002008	20.0684	154.796	-166.963	-0.019077	1.009632	-0.027128	-0.028452	-0.010134	20.0684	-0.026749	-0.018763	0.540102	NaN
631	1.000000	1.018945	7.37123e+06	-45539.1	1005.82	-29772.1	0.000000	0.000000	7.019158	-0.017128	NaN	0.000000	0.001633	0.001710	28.0832	0.071342	0.001876	38.0371	-119.816	-165.273	-0.023278	1.017634	-0.019140	-0.020451	-0.017128	38.0371	-0.018802	-0.011707	1.463081	NaN
631	1.000000	1.026958	7.37123e+06	-45539.1	1005.82	-29772.1	0.000000	0.000000	7.027173	0.003609	NaN	0.000000	0.001625	0.001709	28.083	0.171258	0.002083	82.2285	-132.147	-166.016	0.026888	1.025596	-0.011126	-0.012488	0.003609	82.2285	-0.011159	-0.007049	-0.511932	NaN
631	1.000000	1.034908	7.37123e+06	-45539.1	1005.82	-29772.1	0.000000	0.000000	7.035126	0.085043	NaN	0.000000	0.001631	0.001702	28.0831	0.218697	0.001975	110.708	27.0883	-163.698	-0.051952	1.033618	-0.003176	-0.004467	0.085043	110.708	-0.003752	-0.002618	-32.487	NaN
631	1.000000	1.042918	7.37123e+06	-45539.1	1005.82	-29772.1	0.000000	0.000000	7.043365	5.657780	NaN	0.000000	0.001634	0.001681	28.0817	5.929349	0.001815	3266.22	11.7656	-171.191	4.083909	1.041579	0.004833	0.003494	5.657780	3266.22	0.003534	0.002834	1996.15	56052.2
631	2.000000	1.046641	7.37123e+06	-45539.1	1005.82	-29772.1	0.000000	0.000000	7.047246	9.522950	NaN	0.000000	0.001628	0.001686	28.0815	9.092343	0.001687	5391.09	5.881237	-170.937	9.057170	1.046377	0.008556	0.008292	9.522950	5391.09	0.007231	0.006264	1520.38	62235.8
631	2.000000	1.048594	7.37123e+06	-45539.1	1005.82	-29772.1	0.000000	0.000000	7.049335	12.834	NaN	0.000000	0.001627	0.001707	28.0817	11.5999	0.001646	7049.02	6.800216	-173.798	12.881	1.048276	0.010509	0.010192	12.834	7049.02	0.009144	0.008245	1556.56	70925.7
631	2.000000	1.050658	7.37123e+06	-45539.1	1005.82	-29772.1	0.000000	0.000000	7.051592	17.5261	NaN	0.000000	0.001666	0.001701	28.0816	13.9624	0.001935	7215.45	9.909763	-174.075	17.974	1.050216	0.012573	0.012132	17.5261	7215.45	0.010752	0.010029	1747.6	65828.6
631	2.000000	1.052580	7.37123e+06	-45539.1	1005.82	-29772.1	0.000000	0.000000	7.053697	21.9706	NaN	0.000000	0.001632	0.001707	28.0818	16.6982	0.001993	8379.39	7.080577	-175.679	20.957	1.052241	0.014495	0.014156	21.9706	8379.39	0.012529	0.012130	1811.28	69511.8
631	2.000000	1.054547	7.37123e+06	-45539.1	1005.82	-29772.1	0.000000	0.000000	7.055850	26.4902	NaN	0.000000	0.001616	0.001709	28.0813	18.3232	0.001827	10029.2	5.273056	-175.5	24.5556	1.054315	0.016462	0.016230	26.4902	10029.2	0.014481	0.014600	1814.39	75833.8
631	2.000000	1.056586	7.37123e+06	-45539.1	1005.82	-29772.1	0.000000	0.000000	7.058093	31.4483	NaN	0.000000	0.001647	0.001714	28.0817	19.7066	0.001761	11188.4	3.437406	-174.552	31.2915	1.056233	0.018502	0.018148	31.4483	11188.4	0.016394	0.017189	1829.54	77967.3
631	2.000000	1.058530	7.37123e+06	-45539.1	1005.82	-29772.1	0.000000	0.000000	7.060228	36.0775	NaN	0.000000	0.001606	0.001702	28.0815	22.0152	0.001889	11652.2	6.769266	-176.686	34.6874	1.058283	0.020446	0.020198	36.0775	11652.2	0.018124	0.019679	1833.3	75889.2
631	2.000000	1.060597	7.37123e+06	-45539.1	1005.82	-29772.1	0.000000	0.000000	7.062563	42.6104	NaN	0.000000	0.001603	0.001671	28.0823	24.2489	0.001783	13601.6	7.799652	-178.908	43.1445	1.060255	0.022513	0.022171	42.6104	13601.6	0.020163	0.022799	1868.96	82301
631	2.000000	1.062525	7.37123e+06	-45539.1	1005.82	-29772.1	0.000000	0.000000	7.064873	51.9225	NaN	0.000000	0.001583	0.001692	28.0817	25.9244	0.001777	14589.7	6.041699	-179.069	50.2931	1.062218	0.024440	0.024134	51.9225	14589.7	0.021771	0.025402	2044.04	83634.6
631	2.000000	1.064540	7.37123e+06	-45539.1	1005.82	-29772.1	0.000000	0.000000	7.066995	54.4849	NaN	0.000000	0.001628	0.001672	28.0815	28.2019	0.001818	15516.4	2.318763	-176.15	52.8627	1.064262	0.026456	0.026177	54.4849	15516.4	0.023822	0.028908	1884.76	83378.5
631	2.000000	1.066509	7.37123e+06	-45539.1	1005.82	-29772.1	0.000000	0.000000	7.069353	63.9809	NaN	0.000000	0.001615	0.001677	28.0817	29.2483	0.001593	18364.4	5.344580	179.419	62.3195	1.066226	0.028424	0.028141	63.9809	18364.4	0.025811	0.032508	1968.14	93058
631	2.000000	1.068541	7.37123e+06	-45539.1	1005.82	-29772.1	0.000000	0.000000	7.071595	69.0596	NaN	0.000000	0.001594	0.001710	28.0815	32.8453	0.001907	17226.3	5.834206	179.219	68.5466	1.068265	0.030457	0.030180	69.0596	17226.3	0.027450	0.035625	1938.54	83385.5
631	2.000000	1.070557	7.37123e+06	-45539.1	1005.82	-29772.1	0.000000	0.000000	7.073910	76.3492	NaN	0.000000	0.001576	0.001681	28.0819	34.0931	0.001640	20790.7	7.158399	176.879	75.3375	1.070199	0.032473	0.032115	76.3492	20790.7	0.029718	0.040162	1901.02	94783.6
631	2.000000	1.072517	7.37123e+06	-45539.1	1005.82	-29772.1	0.000000	0.000000	7.076316	87.1946	NaN	0.000000	0.001596	0.001715	28.0818	34.9528	0.001699	20567.9	1.896205	-178.614	86.0681	1.072205	0.034433	0.034121	87.1946	20567.9	0.031253	0.043381	2009.97	90222.2
631	2.000000	1.074562	7.37123e+06	-45539.1	1005.82	-29772.1	0.000000	0.000000	7.078669	94.7013	NaN	0.000000	0.001620	0.001736	28.082	38.2666	0.001764	21695.4	4.065399	-179.369	95.9853	1.074182	0.036477	0.036098	94.7013	21695.4	0.033204	0.047646	1987.61	90808.9
631	2.000000	1.076476	7.37123e+06	-45539.1	1005.82	-29772.1	0.000000	0.000000	7.081009	105.044	NaN	0.000000	0.001567	0.001687	28.0821	39.0435	0.001764	22131	3.571214	179.126	103.598	1.076232	0.038392	0.038147	105.044	22131	0.034832	0.051355	2045.44	89224
631	2.000000	1.078456	7.37123e+06	-45539.1	1005.82	-29772.1	0.000000	0.000000	7.083262	111.698	NaN	0.000000	0.001584	0.001678	28.0828	42.1773	0.001603	26319.1	5.261409	176.734	108.34	1.078126	0.040372	0.040042	111.698	26319.1	0.037189	0.056965	1960.81	100749
631	2.000000	1.080510	7.37123e+06	-45539.1	1005.82	-29772.1	0.000000	0.000000	7.085798	123.411	NaN	0.000000	0.001591	0.001711	28.0831	45.4779	0.001870	24317.4	5.969794	177.125	121.521	1.080117	0.042426	0.042033	123.411	24317.4	0.038620	0.060509	2039.54	90319
631	2.000000	1.082510	7.37123e+06	-45539.1	1005.82	-29772.1	0.000000	0.000000	7.088033	129.145	NaN	0.000000	0.001622	0.001707	28.0829	47.6736	0.001908	24983.4	10.2651	172.481	128.358	1.082059	0.044425	0.043974	129.145	24983.4	0.040548	0.065453	1973.09	89219.5
631	2.000000	1.084544	7.37123e+06	-45539.1	1005.82	-29772.1	0.000000	0.000000	7.090471	138.976	NaN	0.000000	0.001604	0.001726	28.0836	49.1477	0.001917	25642.6	6.969139	176.076	139.795	1.084157	0.046460	0.046073	138.976	25642.6	0.042395	0.070364	1975.11	88320.3
631	2.000000	1.086503	7.37123e+06	-45539.1	1005.82	-29772.1	0.000000	0.000000	7.092751	146.785	NaN	0.000000	0.001577	0.001682	28.0833	49.9324	0.001689	29570.7	5.132334	175.384	145.223	1.086236	0.048419	0.048151	146.785	29570.7	0.044696	0.076726	1913.11	97535.9
631	2.000000	1.088506	7.37123e+06	-45539.1	1005.82	-29772.1	0.000000	0.000000	7.095250	158.862	NaN	0.000000	0.001623	0.001732	28.0831	53.3351	0.001804	29556.8	6.516939	175.9	158.314	1.088087	0.050421	0.050002	158.862	29556.8	0.046390	0.081582	1947.27	94543.8
631	2.000000	1.090492	7.37123e+06	-45539.1	1005.82	-29772.1	0.000000	0.000000	7.097869	174.261	NaN	0.000000	0.001602	0.001726	28.0832	54.8224	0.001811	30269	5.754632	176.126	171.364	1.090037	0.052407	0.051953	174.261	30269	0.048089	0.086599	2012.27	93975.5
631	2.000000	1.092471	7.37123e+06	-45539.1	1005.82	-29772.1	0.000000	0.000000	7.100176	182.226	NaN	0.000000	0.001562	0.001701	28.083	56.6079	0.001912	29605	4.775073	177.164	180.885	1.092116	0.054387	0.054032	182.226	29605	0.049770	0.091704	1987.11	89319
631	2.000000	1.094517	7.37123e+06	-45539.1	1005.82	-29772.1	0.000000	0.000000	7.102811	196.555	NaN	0.000000	0.001591	0.001715	28.0834	59.2464	0.001862	31813.7	5.771989	174.897	196.749	1.094168	0.056433	0.056083	196.555	31813.7	0.051799	0.098054	2004.56	92822.8
631	2.000000	1.096503	7.37123e+06	-45539.1	1005.82	-29772.1	0.000000	0.000000	7.105428	211.9	NaN	0.000000	0.001579	0.001724	28.0834	60.0277	0.001765	34002.8	8.789696	170.689	211.432	1.096104	0.058419	0.058020	211.9	34002.8	0.053745	0.104339	2030.88	96175.6
631	2.000000	1.098450	7.37123e+06	-45539.1	1005.82	-29772.1	0.000000	0.000000	7.107722	220.345	NaN	0.000000	0.001624	0.001695	28.0829	62.6396	0.001811	34593.8	4.983178	175.46	218.524	1.098162	0.060365	0.060078	220.345	34593.8	0.055588	0.110465	1994.72	95095.5
631	2.000000	1.100491	7.37123e+06	-45539.1	1005.82	-29772.1	0.000000	0.000000	7.110403	235.909	NaN	0.000000	0.001573	0.001757	28.083	63.3648	0.001745	36307.4	2.983933	177.468	236.028	1.100065	0.062407	0.061981	235.909	36307.4	0.057534	0.117113	2014.37	96931.7
631	2.000000	1.102392	7.37123e+06	-45539.1	1005.82	-29772.1	0.000000	0.000000	7.112519	241.152	NaN	0.000000	0.001610	0.001715	28.0829	66.078	0.001744	37889	6.150178	172.542	234.945	1.102226	0.064307	0.064141	241.152	37889	0.059534	0.124141	1942.57	98249.2
631	2.000000	1.104501	7.37123e+06	-45539.1	1005.82	-29772.1	0.000000	0.000000	7.115343	258.517	NaN	0.000000	0.001588	0.001715	28.0833	68.8256	0.001782	38631.9	3.569442	174.425	257.134	1.104205	0.066417	0.066120	258.517	38631.9	0.061398	0.130870	1975.38	97566.3
631	2.000000	1.106470	7.37123e+06	-45539.1	1005.82	-29772.1	0.000000	0.000000	7.117826	271.042	NaN	0.000000	0.001564	0.001727	28.0832	70.1961	0.001704	41188.7	3.980053	173.391	270.017	1.106238	0.068385	0.068154	271.042	41188.7	0.063450	0.138469	1957.42	101129
631	2.000000	1.108580	7.37123e+06	-45539.1	1005.82	-29772.1	0.000000	0.000000	7.120644	288.251	NaN	0.000000	0.001587	0.001724	28.0831	73.7146	0.001824	40403.8	6.577383	171.997	294.514	1.108151	0.070496	0.070067	288.251	40403.8	0.065145	0.144902	1989.28	96974.5
631	2.000000	1.110522	7.37123e+06	-45539.1	1005.82	-29772.1	0.000000	0.000000	7.123379	307.559	NaN	0.000000	0.001609	0.001698	28.0833	75.8186	0.001766	42935.4	7.099632	171.564	308.337	1.110092	0.072437	0.072008	307.559	42935.4	0.067065	0.152353	2018.73	100499
631	2.000000	1.112423	7.37123e+06	-45539.1	1005.82	-29772.1	0.000000	0.000000	7.126059	326.519	NaN	0.000000	0.001586	0.001698	28.0822	76.1758	0.001761	43245.9	5.502487	173.672	323.672	1.112005	0.074338	0.073920	326.519	43245.9	0.068675	0.158741	2056.93	99168.4
631	2.000000	1.114402	7.37123e+06	-45539.1	1005.82	-29772.2	0.000000	0.000000	7.128581	339.718	NaN	0.000000	0.001611	0.001717	28.0821	79.1913	0.001717	46133.8	1.317789	176.015	335.158	1.114180	0.076318	0.076096	339.718	46133.8	0.070795	0.167336	2030.16	103038
631	2.000000	1.116386	7.37123e+06	-45539.1	1005.82	-29772.1	0.000000	0.000000	7.131067	351.938	NaN	0.000000	0.001619	0.001713	28.0818	80.1635	0.001763	45481.1	4.289945	172.913	347.413	1.116143	0.078301	0.078058	351.938	45481.1	0.072498	0.174397	2018.03	99502.7
631	2.000000	1.118446	7.37123e+06	-45539.1	1005.82	-29772.1	0.000000	0.000000	7.133964	372.272	NaN	0.000000	0.001621	0.001745	28.0819	84.0084	0.001736	48392.6	2.442306	174.85	371.139	1.118105	0.080362	0.080021	372.272	48392.6	0.074592	0.183268	2031.3	103278
631	2.000000	1.120468	7.37123e+06	-45539.1	1005.82	-29772.2	0.000000	0.000000	7.136527	385.46	NaN	0.000000	0.001605	0.001713	28.0822	86.1088	0.001751	49184	5.985944	172.141	383.48	1.120097	0.082383	0.082012	385.46	49184	0.076505	0.191553	2012.28	102672
631	2.000000	1.122433	7.37123e+06	-45539.1	1005.82	-29772.2	0.000000	0.000000	7.139177	402.105	NaN	0.000000	0.001608	0.001743	28.0817	88.6807	0.001829	48492	6.517716	171.221	401.331	1.122091	0.084349	0.084006	402.105	48492	0.078130	0.198721	2023.46	99385
631	2.000000	1.124349	7.37123e+06	-45539.1	1005.82	-29772.2	0.000000	0.000000	7.141538	412.937	NaN	0.000000	0.001593	0.001711	28.0817	90.303	0.001780	50743.1	1.402851	175.186	406.841	1.124203	0.086264	0.086119	412.937	50743.1	0.080161	0.207860	1986.62	101687
631	2.000000	1.126464	7.37123e+06	-45539.1	1005.82	-29772.2	0.000000	0.000000	7.144505	433.675	NaN	0.000000	0.001586	0.001744	28.0816	92.2544	0.001840	50126.2	4.483135	171.945	433.082	1.126136	0.088379	0.088051	433.675	50126.2	0.081891	0.215792	2009.69	98587.1
631	2.000000	1.128572	7.37123e+06	-45539.1	1005.82	-29772.2	0.000000	0.000000	7.146969	442.326	NaN	0.000000	0.001624	0.001738	28.0817	95.6568	0.001848	51763.8	6.683232	170.372	450.884	1.128163	0.090487	0.090079	442.326	51763.8	0.084079	0.226026	1956.97	99476.4
631	2.000000	1.130574	7.37123e+06	-45539.1	1005.82	-29772.2	0.000000	0.000000	7.149696	459.961	NaN	0.000000	0.001630	0.001700	28.082	97.1976	0.001887	51501.6	5.018084	171.993	466.287	1.130178	0.092489	0.092094	459.961	51501.6	0.085791	0.234189	1964.06	97232.4
631	2.000000	1.132413	7.37123e+06	-45539.1	1005.82	-29772.2	0.000000	0.000000	7.152757	489.7	NaN	0.000000	0.001629	0.001694	28.0817	97.5327	0.001807	53963.9	8.097362	169.099	486.342	1.131909	0.094328	0.093824	489.7	53963.9	0.087522	0.242580	2018.71	100103
631	2.000000	1.134361	7.37123e+06	-45539.1	1005.82	-29772.2	0.000000	0.000000	7.155094	499.159	NaN	0.000000	0.001589	0.001719	28.082	99.8586	0.001830	54574.9	5.435294	170.68	494.6	1.134176	0.096276	0.096091	499.159	54574.9	0.089417	0.251920	1981.42	99342.6
631	2.000000	1.136380	7.37123e+06	-45539.1	1005.82	-29772.2	0.000000	0.000000	7.158005	520.84	NaN	0.000000	0.001595	0.001660	28.0816	100.603	0.001690	59515.5	7.575657	168.218	517.107	1.136082	0.098295	0.097997	520.84	59515.5	0.091732	0.263558	1976.19	105917
631	2.000000	1.138259	7.37123e+06	-45539.1	1005.82	-29772.2	0.000000	0.000000	7.160784	542.732	NaN	0.000000	0.001612	0.001702	28.0818	101.687	0.001765	57605.9	0.843687	175.38	533.107	1.137961	0.100175	0.099877	542.732	57605.9	0.093109	0.270595	2005.7	101177
631	2.000000	1.140445	7.37123e+06	-45539.1	1005.82	-29772.2	0.000000	0.000000	7.163548	556.794	NaN	0.000000	0.001631	0.001712	28.0826	106.683	0.001878	56793.9	9.330070	167.205	556.45	1.140047	0.102361	0.101963	556.794	56793.9	0.095008	0.280446	1985.39	97983
631	2.000000	1.142335	7.37123e+06	-45539.1	1005.82	-29772.2	0.000000	0.000000	7.166229	576.037	NaN	0.000000	0.001599	0.001709	28.0816	106.465	0.001735	61357.5	2.424609	173.16	569.845	1.142051	0.104251	0.103967	576.037	61357.5	0.097210	0.292070	1972.26	103728
631	2.000000	1.143981	7.37123e+06	-45539.1	1005.82	-29772.2	0.000000	0.000000	7.168360	587.86	NaN	0.000000	0.001575	0.001703	28.082	109.411	0.001775	61651.7	2.030623	-6.419090	585.17	1.143647	0.105896	0.105563	587.86	61651.7	0.098745	0.300306	1957.54	102787