File: remote_trans/data/nanoindenter/0828-1/data/Data_2025-08-06,11h17m57s/2025-07-22_16-23-58_1_143.txt
2025-07-22, 16:23:58, 1
Index	Phase	Displacement	Time	Pos X	Pos Y	Pos Z	Rot A	Rot B	Piezo Z	Force A	Force B	Gripper	Voltage A	Voltage B	Temperature	Amplitude force	Amplitude pos	Stiffness	Phase shift	Phase excitation	Force A raw	Displacement raw	HMax	HMax raw	Real Force	Real Stiffness	Contact Depth	Area	Hardness	Reduced Mod.
[#]	[#]	[um]	[s]	[um]	[um]	[um]	[m°]	[m°]	[um]	[uN]	[uN]	[V]	[V]	[V]	[°C]	[uN]	[um]	[N/m]	[°]	[°]	[uN]	[um]	[um]	[um]	[uN]	[N/m]	[um]	[um^2]	[MPa]	[MPa]
143	1.000000	0.002157	7.36643e+06	-45789.1	955.818	-29771.7	0.000000	0.000000	6.002793	-0.053029	NaN	0.000000	0.001503	0.001655	28.0885	0.050369	0.001033	48.7676	-157.086	-160.843	-0.052766	0.000896	-1.136258	-1.137519	-0.053029	48.7676	-1.135442	-1.498353E+15	3.539123E-17	NaN
143	1.000000	0.012250	7.36643e+06	-45789.1	955.818	-29771.7	0.000000	0.000000	6.012884	-0.115312	NaN	0.000000	0.001554	0.001693	28.0808	0.052711	0.001314	40.1197	104.745	16.1105	-0.044113	0.010800	-1.126165	-1.127615	-0.115312	40.1197	-1.124009	-1.052585E+15	1.095515E-16	NaN
143	1.000000	0.022172	7.36643e+06	-45789.1	955.818	-29771.7	0.000000	0.000000	6.022806	-0.109370	NaN	0.000000	0.001641	0.001675	28.1109	0.037654	0.001686	22.3301	-101.224	-167.358	-0.089886	0.020801	-1.116243	-1.117614	-0.109370	22.3301	-1.112570	-7.392149E+14	1.479544E-16	NaN
143	1.000000	0.032119	7.36643e+06	-45789.1	955.818	-29771.7	0.000000	0.000000	6.032757	-0.004799	NaN	0.000000	0.001594	0.001703	28.1291	0.084312	0.001956	43.1112	-65.301	16.9654	0.000184	0.030729	-1.106296	-1.107686	-0.004799	43.1112	-1.106212	-6.073648E+14	7.901669E-18	NaN
143	1.000000	0.042145	7.36643e+06	-45789.1	955.818	-29771.7	0.000000	0.000000	6.042781	-0.048234	NaN	0.000000	0.001594	0.001687	28.089	0.064634	0.001915	33.7587	149.64	-159.079	0.007787	0.040818	-1.096270	-1.097597	-0.048234	33.7587	-1.095199	-4.321270E+14	1.116190E-16	NaN
143	1.000000	0.052119	7.36643e+06	-45789.1	955.818	-29771.7	0.000000	0.000000	6.052760	0.078810	NaN	0.000000	0.001583	0.001666	28.0827	0.106158	0.001879	56.5036	-140.933	16.7632	0.034367	0.050730	-1.086296	-1.087685	0.078810	56.5036	-1.087342	-3.389424E+14	-2.325188E-16	NaN
143	1.000000	0.062113	7.36643e+06	-45789.1	955.818	-29771.7	0.000000	0.000000	6.062751	-0.001947	NaN	0.000000	0.001594	0.001700	28.11	0.070324	0.001794	39.1946	109.232	-160.733	-0.001479	0.060780	-1.076302	-1.077635	-0.001947	39.1946	-1.076265	-2.406312E+14	8.090562E-18	NaN
143	1.000000	0.072125	7.36643e+06	-45789.1	955.818	-29771.7	0.000000	0.000000	6.072760	-0.079578	NaN	0.000000	0.001599	0.001689	28.129	0.059477	0.001956	30.4138	24.999	18.4789	-0.036339	0.070800	-1.066289	-1.067615	-0.079578	30.4138	-1.064327	-1.663292E+14	4.784354E-16	NaN
143	1.000000	0.082105	7.36643e+06	-45789.1	955.819	-29771.7	0.000000	0.000000	6.082741	-0.056665	NaN	0.000000	0.001625	0.001684	28.0892	0.088481	0.002033	43.5127	44.1457	-166.137	-0.120973	0.080817	-1.056310	-1.057598	-0.056665	43.5127	-1.055333	-1.259208E+14	4.500045E-16	NaN
143	1.000000	0.092154	7.36643e+06	-45789.1	955.818	-29771.7	0.000000	0.000000	6.092795	0.066095	NaN	0.000000	0.001628	0.001659	28.0821	0.050692	0.001996	25.3965	160.887	14.5654	-0.018520	0.090741	-1.046261	-1.047674	0.066095	25.3965	-1.048213	-1.010158E+14	-6.543082E-16	NaN
143	1.000000	0.102159	7.36643e+06	-45789.1	955.818	-29771.7	0.000000	0.000000	6.102798	0.043474	NaN	0.000000	0.001631	0.001681	28.111	0.110520	0.001966	56.2211	97.8584	-166.178	-0.070424	0.100808	-1.036256	-1.037607	0.043474	56.2211	-1.036836	-7.102717E+13	-6.120701E-16	NaN
143	1.000000	0.112140	7.36643e+06	-45789.1	955.818	-29771.7	0.000000	0.000000	6.112778	0.000637	NaN	0.000000	0.001589	0.001669	28.1305	0.107929	0.001892	57.0338	-30.5055	15.3487	0.040699	0.110736	-1.026275	-1.027679	0.000637	57.0338	-1.026283	-5.122502E+13	-1.242592E-17	NaN
143	1.000000	0.122154	7.36643e+06	-45789.1	955.819	-29771.7	0.000000	0.000000	6.122792	0.002206	NaN	0.000000	0.001592	0.001690	28.0897	0.118268	0.002183	54.1649	-17.5782	-162.511	-0.120029	0.120820	-1.016261	-1.017595	0.002206	54.1649	-1.016292	-3.758878E+13	-5.868691E-17	NaN
143	1.000000	0.132153	7.36643e+06	-45789.1	955.819	-29771.7	0.000000	0.000000	6.132795	0.079296	NaN	0.000000	0.001591	0.001686	28.0827	0.027048	0.002035	13.289	-118.63	16.1144	0.060615	0.130739	-1.006262	-1.007676	0.079296	13.289	-1.010737	-3.164472E+13	-2.505811E-15	NaN
143	1.000000	0.142163	7.36643e+06	-45789.1	955.819	-29771.7	0.000000	0.000000	6.142798	-0.085051	NaN	0.000000	0.001600	0.001693	28.1095	0.127368	0.002243	56.7888	-171.628	-165.428	-0.106293	0.140834	-0.996252	-0.997581	-0.085051	56.7888	-0.995129	-1.950639E+13	4.360170E-15	NaN
143	1.000000	0.152151	7.36643e+06	-45789.1	955.819	-29771.7	0.000000	0.000000	6.152789	-0.009473	NaN	0.000000	0.001613	0.001698	28.1281	0.090094	0.001886	47.7613	36.2939	16.6054	0.001444	0.150808	-0.986264	-0.987607	-0.009473	47.7613	-0.986115	-1.474992E+13	6.422513E-16	NaN
143	1.000000	0.162152	7.36643e+06	-45789.1	955.818	-29771.7	0.000000	0.000000	6.162789	-0.011242	NaN	0.000000	0.001588	0.001655	28.0893	0.048697	0.002057	23.6772	-61.6657	-162.296	-0.064422	0.160878	-0.976263	-0.977537	-0.011242	23.6772	-0.975907	-1.074643E+13	1.046114E-15	NaN
143	1.000000	0.172160	7.36643e+06	-45789.1	955.818	-29771.7	0.000000	0.000000	6.172799	0.025184	NaN	0.000000	0.001599	0.001668	28.0819	0.085833	0.002162	39.6933	170.703	15.269	0.057628	0.170802	-0.966255	-0.967613	0.025184	39.6933	-0.966731	-8.083529E+12	-3.115450E-15	NaN
143	1.000000	0.182171	7.36643e+06	-45789.1	955.819	-29771.7	0.000000	0.000000	6.182810	0.000988	NaN	0.000000	0.001622	0.001651	28.1105	0.044528	0.002094	21.2686	-14.8837	-165.509	-0.032540	0.180859	-0.956243	-0.957556	0.000988	21.2686	-0.956278	-5.843740E+12	-1.690923E-16	NaN
143	1.000000	0.192160	7.36643e+06	-45789.1	955.818	-29771.7	0.000000	0.000000	6.192794	-0.099979	NaN	0.000000	0.001604	0.001675	28.1287	0.040568	0.002047	19.8166	-29.7205	18.0067	-0.050924	0.190818	-0.946255	-0.947597	-0.099979	19.8166	-0.942471	-3.806093E+12	2.626827E-14	NaN
143	1.000000	0.202158	7.36643e+06	-45789.1	955.819	-29771.7	0.000000	0.000000	6.202798	0.043414	NaN	0.000000	0.001575	0.001688	28.0887	0.025636	0.002064	12.4185	21.3743	-168.236	0.013699	0.200870	-0.936257	-0.937544	0.043414	12.4185	-0.938879	-3.404192E+12	-1.275323E-14	NaN
143	1.000000	0.212198	7.36643e+06	-45789.1	955.818	-29771.7	0.000000	0.000000	6.212839	0.077716	NaN	0.000000	0.001620	0.001691	28.0813	0.122989	0.002032	60.5311	160.475	15.9771	0.021289	0.210805	-0.926217	-0.927610	0.077716	60.5311	-0.927180	-2.366671E+12	-3.283770E-14	NaN
143	1.000000	0.222154	7.36644e+06	-45789.1	955.819	-29771.7	0.000000	0.000000	6.222792	0.006144	NaN	0.000000	0.001668	0.001679	28.1086	0.055870	0.001954	28.5977	-118.183	-166.041	-0.072386	0.220894	-0.916261	-0.917521	0.006144	28.5977	-0.916422	-1.693940E+12	-3.627217E-15	NaN
143	1.000000	0.232199	7.36644e+06	-45789.1	955.818	-29771.7	0.000000	0.000000	6.232837	-0.019340	NaN	0.000000	0.001659	0.001683	28.1274	0.140580	0.001979	71.0406	126.726	14.0931	-0.034294	0.230833	-0.906215	-0.907582	-0.019340	71.0406	-0.906011	-1.225415E+12	1.578247E-14	NaN
143	1.000000	0.242222	7.36644e+06	-45789.1	955.818	-29771.7	0.000000	0.000000	6.242860	0.003284	NaN	0.000000	0.001680	0.001708	28.0881	0.031535	0.002030	15.5376	130.451	-165.401	-0.031636	0.240897	-0.896193	-0.897518	0.003284	15.5376	-0.896351	-9.073197E+11	-3.619274E-15	NaN
143	1.000000	0.252180	7.36644e+06	-45789.1	955.818	-29771.7	0.000000	0.000000	6.252815	-0.071977	NaN	0.000000	0.001716	0.001688	28.081	0.067471	0.002110	31.9768	167.174	17.4978	-0.075385	0.250857	-0.886235	-0.887558	-0.071977	31.9768	-0.884547	-6.283325E+11	1.145524E-13	NaN
143	1.000000	0.262195	7.36644e+06	-45789.1	955.817	-29771.7	0.000000	0.000000	6.262837	0.102141	NaN	0.000000	0.001632	0.001674	28.1091	0.094074	0.001849	50.8675	87.5578	-167.25	0.086091	0.260909	-0.876220	-0.877506	0.102141	50.8675	-0.877726	-5.081125E+11	-2.010207E-13	NaN
143	1.000000	0.272173	7.36644e+06	-45789.1	955.818	-29771.7	0.000000	0.000000	6.272811	0.009107	NaN	0.000000	0.001615	0.001711	28.1282	0.111121	0.002005	55.4354	-116.44	15.6855	-0.071062	0.270823	-0.866242	-0.867592	0.009107	55.4354	-0.866365	-3.566686E+11	-2.553258E-14	NaN
143	1.000000	0.282223	7.36644e+06	-45789.1	955.818	-29771.7	0.000000	0.000000	6.282859	-0.049960	NaN	0.000000	0.001655	0.001692	28.0887	0.075115	0.001864	40.2973	-175.413	-166.105	-0.031254	0.280866	-0.856192	-0.857549	-0.049960	40.2973	-0.855262	-2.523405E+11	1.979863E-13	NaN
143	1.000000	0.292229	7.36644e+06	-45789.1	955.818	-29771.7	0.000000	0.000000	6.292861	-0.146026	NaN	0.000000	0.001625	0.001665	28.0811	0.078003	0.002139	36.469	112.533	13.3121	-0.130054	0.290877	-0.846186	-0.847538	-0.146026	36.469	-0.843183	-1.731456E+11	8.433699E-13	NaN
143	1.000000	0.302216	7.36644e+06	-45789.1	955.818	-29771.7	0.000000	0.000000	6.302853	-0.029724	NaN	0.000000	0.001585	0.001660	28.1072	0.090412	0.001952	46.3114	-45.7743	-164.377	-0.062843	0.300909	-0.836198	-0.837506	-0.029724	46.3114	-0.835717	-1.371715E+11	2.166898E-13	NaN
143	1.000000	0.312234	7.36644e+06	-45789.1	955.818	-29771.7	0.000000	0.000000	6.312873	0.013717	NaN	0.000000	0.001608	0.001681	28.1277	0.025926	0.001955	13.2593	-39.8689	11.4199	0.070981	0.310826	-0.826181	-0.827589	0.013717	13.2593	-0.826957	-1.043590E+11	-1.314421E-13	NaN
143	1.000000	0.322250	7.36644e+06	-45789.1	955.818	-29771.7	0.000000	0.000000	6.322885	-0.066670	NaN	0.000000	0.001602	0.001683	28.0897	0.058783	0.001990	29.5374	-117.081	-167.989	-0.123027	0.320906	-0.816165	-0.817509	-0.066670	29.5374	-0.814472	-7.067113E+10	9.433907E-13	NaN
143	1.000000	0.332213	7.36644e+06	-45789.1	955.819	-29771.7	0.000000	0.000000	6.332852	0.026024	NaN	0.000000	0.001600	0.001653	28.0824	0.136501	0.002004	68.0992	-130.093	15.5837	0.004894	0.330873	-0.806202	-0.807542	0.026024	68.0992	-0.806489	-5.507210E+10	-4.725380E-13	NaN
143	1.000000	0.342256	7.36644e+06	-45789.1	955.818	-29771.7	0.000000	0.000000	6.342895	0.004159	NaN	0.000000	0.001590	0.001677	28.1091	0.042215	0.002065	20.4396	67.0377	-166.857	-0.001016	0.340923	-0.796159	-0.797492	0.004159	20.4396	-0.796311	-4.006676E+10	-1.037908E-13	NaN
143	1.000000	0.352250	7.36644e+06	-45789.1	955.818	-29771.7	0.000000	0.000000	6.352888	0.010138	NaN	0.000000	0.001600	0.001693	28.1303	0.065140	0.001971	33.0536	-20.171	17.6016	0.012998	0.350868	-0.786165	-0.787547	0.010138	33.0536	-0.786395	-2.938471E+10	-3.449986E-13	NaN
143	1.000000	0.362209	7.36644e+06	-45789.1	955.818	-29771.7	0.000000	0.000000	6.362845	-0.056405	NaN	0.000000	0.001596	0.001705	28.091	0.083968	0.002001	41.9715	95.1782	-164.934	-0.015590	0.360943	-0.776205	-0.777472	-0.056405	41.9715	-0.775198	-2.069965E+10	2.724948E-12	NaN
143	1.000000	0.372261	7.36644e+06	-45789.1	955.818	-29771.7	0.000000	0.000000	6.372898	-0.017428	NaN	0.000000	0.001555	0.001718	28.0815	0.125818	0.001914	65.7365	55.1915	16.5323	-0.048891	0.370915	-0.766154	-0.767500	-0.017428	65.7365	-0.765955	-1.549908E+10	1.124486E-12	NaN
143	1.000000	0.382245	7.36644e+06	-45789.1	955.818	-29771.7	0.000000	0.000000	6.382883	-0.014506	NaN	0.000000	0.001578	0.001695	28.1069	0.057264	0.001897	30.1858	70.1335	-162.314	0.004096	0.380909	-0.756170	-0.757506	-0.014506	30.1858	-0.755809	-1.127928E+10	1.286110E-12	NaN
143	1.000000	0.392244	7.36644e+06	-45789.1	955.818	-29771.7	0.000000	0.000000	6.392884	0.041098	NaN	0.000000	0.001601	0.001679	28.1288	0.048929	0.002073	23.6069	-64.3085	15.5308	0.071396	0.390941	-0.746171	-0.747474	0.041098	23.6069	-0.747477	-8.687050E+9	-4.730986E-12	NaN
143	1.000000	0.402253	7.36644e+06	-45789.1	955.817	-29771.7	0.000000	0.000000	6.402889	-0.040448	NaN	0.000000	0.001565	0.001711	28.0897	0.079795	0.001924	41.4808	-13.1751	-163.855	-0.089177	0.400934	-0.736162	-0.737480	-0.040448	41.4808	-0.735431	-5.954064E+9	6.793339E-12	NaN
143	1.000000	0.412255	7.36644e+06	-45789.1	955.819	-29771.7	0.000000	0.000000	6.412893	-0.008341	NaN	0.000000	0.001617	0.001666	28.0816	0.017046	0.002062	8.265619	3.343839	15.4163	-0.024317	0.410918	-0.726160	-0.727497	-0.008341	8.265619	-0.725403	-4.346542E+9	1.918901E-12	NaN
143	1.000000	0.422269	7.36644e+06	-45789.1	955.818	-29771.7	0.000000	0.000000	6.422906	-0.024370	NaN	0.000000	0.001626	0.001696	28.1091	0.066202	0.002029	32.633	-10.1194	-163.159	0.070257	0.420947	-0.716146	-0.717468	-0.024370	32.633	-0.715586	-3.193508E+9	7.630981E-12	NaN
143	1.000000	0.432261	7.36644e+06	-45789.1	955.818	-29771.7	0.000000	0.000000	6.432898	-0.035423	NaN	0.000000	0.001575	0.001681	28.1297	0.032182	0.002116	15.2058	-127.921	17.7568	0.003835	0.430938	-0.706154	-0.707477	-0.035423	15.2058	-0.704407	-2.247524E+9	1.576092E-11	NaN
143	1.000000	0.442264	7.36644e+06	-45789.1	955.818	-29771.7	0.000000	0.000000	6.442903	0.021640	NaN	0.000000	0.001557	0.001716	28.0912	0.023620	0.001979	11.9355	-171.074	-166.28	0.006336	0.440956	-0.696151	-0.697459	0.021640	11.9355	-0.697511	-1.809391E+9	-1.195986E-11	NaN
143	1.000000	0.452284	7.36644e+06	-45789.1	955.817	-29771.7	0.000000	0.000000	6.452922	0.015087	NaN	0.000000	0.001603	0.001719	28.0821	0.086607	0.001936	44.7326	-65.6352	12.9012	-0.000739	0.450945	-0.686131	-0.687469	0.015087	44.7326	-0.686384	-1.274963E+9	-1.183310E-11	NaN
143	1.000000	0.462301	7.36644e+06	-45789.1	955.818	-29771.7	0.000000	0.000000	6.462937	-0.050753	NaN	0.000000	0.001614	0.001685	28.1063	0.063570	0.001850	34.3625	134.239	-168.398	0.071847	0.461001	-0.676114	-0.677414	-0.050753	34.3625	-0.675007	-8.910465E+8	5.695854E-11	NaN
143	1.000000	0.472281	7.36644e+06	-45789.1	955.819	-29771.7	0.000000	0.000000	6.472918	-0.031876	NaN	0.000000	0.001607	0.001704	28.1277	0.047479	0.001893	25.0754	129.846	11.9493	0.000997	0.470882	-0.666134	-0.667533	-0.031876	25.0754	-0.665181	-6.537612E+8	4.875711E-11	NaN
143	1.000000	0.482308	7.36644e+06	-45789.1	955.818	-29771.7	0.000000	0.000000	6.482944	-0.049920	NaN	0.000000	0.001560	0.001685	28.0889	0.053658	0.002083	25.7549	-157.114	-168.281	-0.087745	0.480999	-0.656107	-0.657416	-0.049920	25.7549	-0.654653	-4.690448E+8	1.064301E-10	NaN
143	1.000000	0.492321	7.36644e+06	-45789.1	955.818	-29771.7	0.000000	0.000000	6.492959	-0.005515	NaN	0.000000	0.001582	0.001705	28.0797	0.009849	0.001976	4.984368	-10.1581	16.5111	-0.016481	0.490947	-0.646094	-0.647468	-0.005515	4.984368	-0.645264	-3.487425E+8	1.581280E-11	NaN
143	1.000000	0.502323	7.36644e+06	-45789.1	955.818	-29771.7	0.000000	0.000000	6.502959	-0.036565	NaN	0.000000	0.001583	0.001655	28.1075	0.071892	0.002064	34.8382	-132.086	-166.771	-0.096184	0.500949	-0.636092	-0.637466	-0.036565	34.8382	-0.635305	-2.545993E+8	1.436174E-10	NaN
143	1.000000	0.512328	7.36644e+06	-45789.1	955.819	-29771.7	0.000000	0.000000	6.512966	-0.001772	NaN	0.000000	0.001584	0.001672	28.1293	0.063361	0.002031	31.1961	3.650858	16.8919	0.017127	0.510973	-0.626087	-0.627442	-0.001772	31.1961	-0.626044	-1.899727E+8	9.329364E-12	NaN
143	1.000000	0.522319	7.36644e+06	-45789.1	955.818	-29771.7	0.000000	0.000000	6.522956	-0.025261	NaN	0.000000	0.001545	0.001664	28.0897	0.073512	0.001907	38.5485	-37.9966	-162.918	-0.073410	0.521023	-0.616096	-0.617392	-0.025261	38.5485	-0.615604	-1.365219E+8	1.850316E-10	NaN
143	1.000000	0.532320	7.36644e+06	-45789.1	955.818	-29771.7	0.000000	0.000000	6.532957	-0.032783	NaN	0.000000	0.001570	0.001663	28.0805	0.059932	0.002047	29.2739	-40.0649	8.506414	-0.011008	0.530952	-0.606095	-0.607463	-0.032783	29.2739	-0.605255	-9.835786E+7	3.333048E-10	NaN
143	1.000000	0.542314	7.36644e+06	-45789.1	955.819	-29771.7	0.000000	0.000000	6.542951	-0.044591	NaN	0.000000	0.001577	0.001624	28.1063	0.019538	0.001932	10.115	-12.9854	-166.766	-0.087623	0.541031	-0.596101	-0.597384	-0.044591	10.115	-0.592794	-6.624973E+7	6.730743E-10	NaN
143	1.000000	0.552328	7.36644e+06	-45789.1	955.818	-29771.7	0.000000	0.000000	6.552965	-0.009169	NaN	0.000000	0.001564	0.001683	28.1279	0.038342	0.002037	18.8241	53.411	13.2052	-0.000381	0.550992	-0.586087	-0.587423	-0.009169	18.8241	-0.585722	-5.292630E+7	1.732456E-10	NaN
143	1.000000	0.562309	7.36644e+06	-45789.1	955.818	-29771.7	0.000000	0.000000	6.562948	0.006950	NaN	0.000000	0.001572	0.001680	28.0895	0.034830	0.001979	17.6034	-174.46	-166.071	-0.052779	0.560980	-0.576106	-0.577435	0.006950	17.6034	-0.576402	-3.935975E+7	-1.765769E-10	NaN
143	1.000000	0.572336	7.36644e+06	-45789.1	955.818	-29771.7	0.000000	0.000000	6.572973	-0.042653	NaN	0.000000	0.001545	0.001668	28.0801	0.060463	0.001903	31.7767	170.211	11.0269	0.027714	0.570971	-0.566079	-0.567444	-0.042653	31.7767	-0.565072	-2.744849E+7	1.553927E-9	NaN
143	1.000000	0.582334	7.36644e+06	-45789.1	955.818	-29771.7	0.000000	0.000000	6.582971	-0.036132	NaN	0.000000	0.001575	0.001686	28.1067	0.140787	0.002072	67.9615	-64.0147	-163.438	-0.034729	0.581071	-0.556081	-0.557344	-0.036132	67.9615	-0.555682	-2.035304E+7	1.775247E-9	NaN
143	1.000000	0.592338	7.36644e+06	-45789.1	955.818	-29771.7	0.000000	0.000000	6.592979	0.069467	NaN	0.000000	0.001573	0.001705	28.1289	0.113363	0.002083	54.4316	33.1224	14.8077	-0.069749	0.590937	-0.546077	-0.547478	0.069467	54.4316	-0.547035	-1.544806E+7	-4.496835E-9	NaN
143	1.000000	0.602359	7.36644e+06	-45789.1	955.819	-29771.7	0.000000	0.000000	6.602997	-0.007170	NaN	0.000000	0.001561	0.001703	28.0911	0.061425	0.001883	32.6224	-145.522	-166.809	-0.078175	0.601061	-0.536056	-0.537354	-0.007170	32.6224	-0.535891	-1.082330E+7	6.624725E-10	NaN
143	1.000000	0.612380	7.36644e+06	-45789.1	955.818	-29771.7	0.000000	0.000000	6.613018	-0.006188	NaN	0.000000	0.001677	0.001713	28.0814	0.044225	0.002016	21.9377	-26.5528	14.8221	0.022188	0.610981	-0.526035	-0.527434	-0.006188	21.9377	-0.525823	-7.84431e+06	7.888798E-10	NaN
143	1.000000	0.622382	7.36644e+06	-45789.1	955.818	-29771.7	0.000000	0.000000	6.623019	-0.031323	NaN	0.000000	0.001642	0.001681	28.1057	0.062852	0.001947	32.2894	-74.4215	-160.812	-0.020172	0.621069	-0.516033	-0.517346	-0.031323	32.2894	-0.515306	-5.60125e+06	5.592151E-9	NaN
143	1.000000	0.632363	7.36644e+06	-45789.1	955.818	-29771.7	0.000000	0.000000	6.632997	-0.092350	NaN	0.000000	0.001600	0.001688	28.1292	0.027381	0.002037	13.4413	157.94	17.3778	-0.160151	0.631033	-0.506052	-0.507382	-0.092350	13.4413	-0.500899	-3.5283e+06	2.617409E-8	NaN
143	1.000000	0.642370	7.36644e+06	-45789.1	955.818	-29771.7	0.000000	0.000000	6.643008	-0.003574	NaN	0.000000	0.001640	0.001726	28.0901	0.106547	0.002039	52.2643	-113.736	-162.941	0.021691	0.641062	-0.496045	-0.497352	-0.003574	52.2643	-0.495994	-3.01376e+06	1.185833E-9	NaN
143	1.000000	0.652386	7.36644e+06	-45789.1	955.818	-29771.7	0.000000	0.000000	6.653024	-0.000587	NaN	0.000000	0.001552	0.001712	28.0817	0.068800	0.002058	33.4251	-68.435	13.2197	0.040725	0.650992	-0.486029	-0.487423	-0.000587	33.4251	-0.486016	-2.18622e+06	2.687221E-10	NaN
143	1.000000	0.662376	7.36644e+06	-45789.1	955.818	-29771.7	0.000000	0.000000	6.663015	0.029582	NaN	0.000000	0.001578	0.001709	28.1078	0.092437	0.001959	47.1977	-113.322	-167.21	-0.011164	0.661108	-0.476039	-0.477307	0.029582	47.1977	-0.476509	-1.60933e+06	-1.838131E-8	NaN
143	1.000000	0.672386	7.36644e+06	-45789.1	955.818	-29771.7	0.000000	0.000000	6.673024	-0.014613	NaN	0.000000	0.001565	0.001694	28.1305	0.116707	0.001989	58.6824	-56.8568	15.6052	-0.034989	0.671035	-0.466029	-0.467380	-0.014613	58.6824	-0.465842	-1.14043e+06	1.281321E-8	NaN
143	1.000000	0.682388	7.36644e+06	-45789.1	955.819	-29771.7	0.000000	0.000000	6.683026	-0.000829	NaN	0.000000	0.001564	0.001672	28.0917	0.057453	0.002012	28.5532	33.2154	-166.008	0.045918	0.681103	-0.456027	-0.457312	-0.000829	28.5532	-0.456005	-829565	9.998432E-10	NaN
143	1.000000	0.692404	7.36644e+06	-45789.1	955.818	-29771.7	0.000000	0.000000	6.693042	0.002721	NaN	0.000000	0.001570	0.001663	28.0819	0.042562	0.002029	20.9816	-139.63	14.5058	-0.066171	0.691073	-0.446011	-0.447341	0.002721	20.9816	-0.446108	-601889	-4.520234E-9	NaN
143	1.000000	0.702364	7.36644e+06	-45789.1	955.818	-29771.7	0.000000	0.000000	6.702999	-0.061992	NaN	0.000000	0.001588	0.001640	28.1057	0.125746	0.001947	64.5728	-139.523	-168.006	-0.049444	0.701053	-0.436051	-0.437362	-0.061992	64.5728	-0.435331	-424067	1.461839E-7	NaN
143	1.000000	0.712354	7.36644e+06	-45789.1	955.818	-29771.7	0.000000	0.000000	6.712990	-0.049335	NaN	0.000000	0.001588	0.001710	28.1293	0.079200	0.002050	38.6259	107.522	15.9067	-0.056790	0.711056	-0.426061	-0.427359	-0.049335	38.6259	-0.425103	-303909	1.623350E-7	NaN
143	1.000000	0.722376	7.36644e+06	-45789.1	955.818	-29771.7	0.000000	0.000000	6.723016	0.047397	NaN	0.000000	0.001569	0.001684	28.0905	0.031910	0.002144	14.885	-178.032	-163.676	0.068219	0.721064	-0.416039	-0.417351	0.047397	14.885	-0.418427	-244404	-1.939310E-7	NaN
143	1.000000	0.732388	7.36644e+06	-45789.1	955.818	-29771.7	0.000000	0.000000	6.733026	-0.020462	NaN	0.000000	0.001602	0.001673	28.0789	0.031107	0.002034	15.2917	138.568	15.4835	0.018716	0.731038	-0.406027	-0.407377	-0.020462	15.2917	-0.405023	-157607	1.298287E-7	NaN
143	1.000000	0.742378	7.36644e+06	-45789.1	955.819	-29771.7	0.000000	0.000000	6.743015	-0.013190	NaN	0.000000	0.001607	0.001681	28.1057	0.058476	0.001877	31.1463	-119.207	-164.129	-0.046143	0.741125	-0.396037	-0.397290	-0.013190	31.1463	-0.395720	-116121	1.135910E-7	NaN
143	1.000000	0.752413	7.36644e+06	-45789.1	955.818	-29771.7	0.000000	0.000000	6.753049	-0.030856	NaN	0.000000	0.001585	0.001757	28.1287	0.033941	0.002093	16.2178	-91.8063	16.9238	-0.005030	0.751078	-0.386002	-0.387337	-0.030856	16.2178	-0.384575	-80445.7	3.835667E-7	NaN
143	1.000000	0.762422	7.36644e+06	-45789.1	955.818	-29771.7	0.000000	0.000000	6.763059	-0.038450	NaN	0.000000	0.001582	0.001666	28.0908	0.080465	0.001941	41.4484	-99.8379	-165.424	0.086426	0.761126	-0.375993	-0.377289	-0.038450	41.4484	-0.375297	-59202.5	6.494722E-7	NaN
143	1.000000	0.772447	7.36644e+06	-45789.1	955.818	-29771.7	0.000000	0.000000	6.773084	-0.037260	NaN	0.000000	0.001540	0.001638	28.0804	0.056459	0.001928	29.2766	145.425	17.9115	-0.046579	0.771059	-0.365967	-0.367356	-0.037260	29.2766	-0.365013	-42096	8.851167E-7	NaN
143	1.000000	0.782418	7.36644e+06	-45789.1	955.818	-29771.7	0.000000	0.000000	6.783055	-0.021634	NaN	0.000000	0.001577	0.001667	28.1043	0.091603	0.002066	44.3323	23.6623	-164.417	0.058286	0.781142	-0.355997	-0.357273	-0.021634	44.3323	-0.355631	-30806.2	7.022469E-7	NaN
143	1.000000	0.792418	7.36644e+06	-45789.1	955.818	-29771.7	0.000000	0.000000	6.793055	-0.029765	NaN	0.000000	0.001579	0.001609	28.1289	0.086233	0.001978	43.6018	174.681	14.7488	0.022922	0.791092	-0.345996	-0.347322	-0.029765	43.6018	-0.345484	-21948.4	1.356117E-6	NaN
143	1.000000	0.802418	7.36644e+06	-45789.1	955.818	-29771.7	0.000000	0.000000	6.803057	0.023915	NaN	0.000000	0.001638	0.001646	28.0894	0.048502	0.001980	24.4975	-19.9797	-163.984	0.012247	0.801164	-0.335997	-0.337251	0.023915	24.4975	-0.336729	-16362.2	-1.461599E-6	NaN
143	1.000000	0.812417	7.36644e+06	-45789.1	955.818	-29771.7	0.000000	0.000000	6.813057	0.060775	NaN	0.000000	0.001698	0.001654	28.0792	0.031747	0.001956	16.2314	-44.9581	14.7714	0.015907	0.811034	-0.325998	-0.327381	0.060775	16.2314	-0.328806	-12530.4	-4.850210E-6	NaN
143	1.000000	0.822422	7.36644e+06	-45789.1	955.818	-29771.7	0.000000	0.000000	6.823062	0.027355	NaN	0.000000	0.001681	0.001631	28.1055	0.113522	0.002176	52.1743	86.0669	-165.037	-0.036945	0.821086	-0.315993	-0.317329	0.027355	52.1743	-0.316386	-8229.84	-3.323860E-6	NaN
143	1.000000	0.832463	7.36644e+06	-45789.1	955.817	-29771.7	0.000000	0.000000	6.833102	0.002500	NaN	0.000000	0.001630	0.001674	28.1295	0.137201	0.002005	68.4289	163.137	17.52	0.023690	0.831126	-0.305952	-0.307289	0.002500	68.4289	-0.305979	-5774.06	-4.329474E-7	NaN
143	1.000000	0.842439	7.36644e+06	-45789.1	955.819	-29771.7	0.000000	0.000000	6.843074	-0.076649	NaN	0.000000	0.001660	0.001655	28.0905	0.034537	0.001893	18.2436	-161.793	-163.79	-0.034616	0.841093	-0.295976	-0.297322	-0.076649	18.2436	-0.292825	-3677.77	2.084110E-5	NaN
143	1.000000	0.852472	7.36644e+06	-45789.1	955.818	-29771.7	0.000000	0.000000	6.853109	-0.045729	NaN	0.000000	0.001611	0.001622	28.0793	0.048304	0.002014	23.979	49.7387	14.4205	0.030877	0.851086	-0.285943	-0.287329	-0.045729	23.979	-0.284512	-2760.16	1.656764E-5	NaN
143	1.000000	0.862442	7.36644e+06	-45789.1	955.818	-29771.7	0.000000	0.000000	6.863079	-0.018349	NaN	0.000000	0.001650	0.001666	28.1037	0.079332	0.002025	39.1709	35.2489	-166.896	0.084643	0.861134	-0.275973	-0.277281	-0.018349	39.1709	-0.275622	-2026.8	9.053166E-6	NaN
143	1.000000	0.872437	7.36644e+06	-45789.1	955.818	-29771.7	0.000000	0.000000	6.873072	-0.077622	NaN	0.000000	0.001634	0.001665	28.1295	0.067184	0.002013	33.3775	36.773	13.7812	0.002542	0.871091	-0.265978	-0.267324	-0.077622	33.3775	-0.264234	-1360.46	5.705578E-5	NaN
143	1.000000	0.882471	7.36644e+06	-45789.1	955.818	-29771.7	0.000000	0.000000	6.883106	-0.067112	NaN	0.000000	0.001657	0.001728	28.0916	0.090962	0.002079	43.7471	-140.791	-164.067	-0.054383	0.881139	-0.255944	-0.257276	-0.067112	43.7471	-0.254794	-974.859	6.884311E-5	NaN
143	1.000000	0.892466	7.36644e+06	-45789.1	955.819	-29771.7	0.000000	0.000000	6.893103	-0.028723	NaN	0.000000	0.001601	0.001706	28.0807	0.082909	0.002035	40.7407	163.519	15.4203	-0.021526	0.891113	-0.245948	-0.247302	-0.028723	40.7407	-0.245420	-698.189	4.113970E-5	NaN
143	1.000000	0.902489	7.36644e+06	-45789.1	955.818	-29771.7	0.000000	0.000000	6.903124	-0.069808	NaN	0.000000	0.001568	0.001695	28.1056	0.025175	0.002131	11.8121	6.119339	-161.833	0.001546	0.901162	-0.235926	-0.237253	-0.069808	11.8121	-0.231494	-422.753	0.000165	NaN
143	1.000000	0.912500	7.36644e+06	-45789.1	955.819	-29771.7	0.000000	0.000000	6.913138	-0.003117	NaN	0.000000	0.001564	0.001685	28.1305	0.073423	0.001852	39.6552	148.289	13.738	0.012982	0.911138	-0.225915	-0.227277	-0.003117	39.6552	-0.225856	-344.288	9.054501E-6	NaN
143	1.000000	0.922458	7.36644e+06	-45789.1	955.818	-29771.7	0.000000	0.000000	6.923096	-0.013887	NaN	0.000000	0.001572	0.001724	28.0921	0.016117	0.001919	8.397868	57.4239	-161.967	0.057683	0.921186	-0.215956	-0.217229	-0.013887	8.397868	-0.214716	-228.533	6.076407E-5	NaN
143	1.000000	0.932516	7.36644e+06	-45789.1	955.818	-29771.7	0.000000	0.000000	6.933157	0.054522	NaN	0.000000	0.001620	0.001686	28.0815	0.075119	0.001972	38.1018	-70.882	13.2129	0.015683	0.931101	-0.205899	-0.207314	0.054522	38.1018	-0.206972	-171.267	-0.000318	NaN
143	1.000000	0.942496	7.36644e+06	-45789.1	955.818	-29771.7	0.000000	0.000000	6.943131	-0.060838	NaN	0.000000	0.001604	0.001662	28.1039	0.051137	0.001846	27.6985	135.352	-165.716	0.013930	0.941122	-0.195919	-0.197293	-0.060838	27.6985	-0.194272	-105.957	0.000574	NaN
143	1.000000	0.952497	7.36644e+06	-45789.1	955.819	-29771.7	0.000000	0.000000	6.953133	-0.035815	NaN	0.000000	0.001577	0.001690	28.1298	0.098001	0.002035	48.1659	-85.2856	14.0376	-0.037370	0.951141	-0.185918	-0.187274	-0.035815	48.1659	-0.185361	-75.1986	0.000476	NaN
143	1.000000	0.962499	7.36644e+06	-45789.1	955.819	-29771.7	0.000000	0.000000	6.963136	-0.048127	NaN	0.000000	0.001612	0.001699	28.0914	0.065551	0.001975	33.1907	-69.0792	-164.97	-0.039429	0.961179	-0.175915	-0.177236	-0.048127	33.1907	-0.174828	-49.7764	0.000967	NaN
143	1.000000	0.972498	7.36644e+06	-45789.1	955.819	-29771.7	0.000000	0.000000	6.973140	0.075386	NaN	0.000000	0.001556	0.001725	28.0807	0.049176	0.002010	24.4631	-41.2487	16.7192	0.060911	0.971157	-0.165916	-0.167258	0.075386	24.4631	-0.168228	-38.2628	-0.001970	NaN
143	1.000000	0.982493	7.36644e+06	-45789.1	955.818	-29771.7	0.000000	0.000000	6.983131	-0.012218	NaN	0.000000	0.001582	0.001689	28.106	0.018670	0.002061	9.059861	152.931	-164.743	-0.029362	0.981172	-0.155922	-0.157243	-0.012218	9.059861	-0.154910	-22.2313	0.000550	NaN
143	1.000000	0.992547	7.36644e+06	-45789.1	955.819	-29771.7	0.000000	0.000000	6.993188	0.075673	NaN	0.000000	0.001581	0.001694	28.1312	0.057780	0.001884	30.6714	85.7393	17.7958	0.003618	0.991123	-0.145868	-0.147292	0.075673	30.6714	-0.147718	-16.4535	-0.004599	NaN
143	1.000000	1.002514	7.36644e+06	-45789.1	955.818	-29771.7	0.000000	0.000000	7.003152	0.007937	NaN	0.000000	0.001625	0.001743	28.0926	0.078789	0.002075	37.9736	-116.879	-167.184	0.043559	1.001175	-0.135901	-0.137240	0.007937	37.9736	-0.136058	-9.964270	-0.000797	NaN
143	1.000000	1.012515	7.36644e+06	-45789.1	955.819	-29771.7	0.000000	0.000000	7.013151	-0.068053	NaN	0.000000	0.001584	0.001736	28.0798	0.005813	0.002002	2.903376	-53.7484	15.6298	-0.058030	1.011129	-0.125900	-0.127286	-0.068053	2.903376	-0.108320	-2.768933	0.024577	NaN
143	1.000000	1.022508	7.36644e+06	-45789.1	955.817	-29771.7	0.000000	0.000000	7.023144	-0.061599	NaN	0.000000	0.001592	0.001688	28.1028	0.057786	0.002000	28.8988	110.946	-167.691	-0.039747	1.021253	-0.115907	-0.117162	-0.061599	28.8988	-0.114308	-3.696744	0.016663	NaN
143	1.000000	1.032542	7.36644e+06	-45789.1	955.818	-29771.7	0.000000	0.000000	7.033177	-0.089318	NaN	0.000000	0.001590	0.001677	28.129	0.083995	0.002034	41.2859	-68.696	15.8741	-0.050871	1.031075	-0.105873	-0.107340	-0.089318	41.2859	-0.104250	-2.264342	0.039445	NaN
143	1.000000	1.042531	7.36644e+06	-45789.1	955.817	-29771.7	0.000000	0.000000	7.043168	-0.018993	NaN	0.000000	0.001598	0.001725	28.0911	0.066747	0.001992	33.5154	-133.587	-166.425	-0.023787	1.041270	-0.095884	-0.097145	-0.018993	33.5154	-0.095459	-1.444984	0.013144	NaN
143	1.000000	1.052526	7.36644e+06	-45789.1	955.818	-29771.7	0.000000	0.000000	7.053162	-0.062161	NaN	0.000000	0.001535	0.001732	28.0793	0.065948	0.002029	32.5059	-12.3767	16.3772	-0.004265	1.051180	-0.085888	-0.087235	-0.062161	32.5059	-0.084454	-0.796979	0.077995	NaN
143	1.000000	1.062540	7.36644e+06	-45789.1	955.818	-29771.7	0.000000	0.000000	7.063177	-0.021702	NaN	0.000000	0.001521	0.001709	28.1039	0.031671	0.002078	15.2379	-25.3859	-161.205	0.035068	1.061222	-0.075875	-0.077193	-0.021702	15.2379	-0.074807	-0.456582	0.047532	NaN
143	1.000000	1.072521	7.36644e+06	-45789.1	955.819	-29771.7	0.000000	0.000000	7.073159	-0.006139	NaN	0.000000	0.001533	0.001708	28.1298	0.034873	0.002060	16.9312	89.5355	13.9725	-0.019564	1.071182	-0.065894	-0.067233	-0.006139	16.9312	-0.065622	-0.259291	0.023677	NaN
143	1.000000	1.082528	7.36644e+06	-45789.1	955.818	-29771.7	0.000000	0.000000	7.083165	-0.013034	NaN	0.000000	0.001558	0.001699	28.0915	0.201447	0.002018	99.8227	6.264816	-162.572	0.039579	1.081178	-0.055887	-0.057237	-0.013034	99.8227	-0.055789	-0.135867	0.095936	NaN
143	1.000000	1.092541	7.36644e+06	-45789.1	955.819	-29771.7	0.000000	0.000000	7.093179	0.011098	NaN	0.000000	0.001558	0.001688	28.0795	0.090802	0.001769	51.326	-145.584	12.6562	0.086274	1.091161	-0.045874	-0.047254	0.011098	51.326	-0.046036	-0.069131	-0.160531	NaN
143	1.000000	1.102544	7.36644e+06	-45789.1	955.819	-29771.7	0.000000	0.000000	7.103183	0.038536	NaN	0.000000	0.001571	0.001705	28.1022	0.029935	0.002001	14.9593	4.666089	-167.912	0.031601	1.101245	-0.035871	-0.037170	0.038536	14.9593	-0.037803	-0.038810	-0.992937	NaN
143	1.000000	1.112546	7.36644e+06	-45789.1	955.819	-29771.7	0.000000	0.000000	7.113184	0.012239	NaN	0.000000	0.001566	0.001686	28.1288	0.104948	0.001953	53.7248	146.846	14.6332	0.000749	1.111202	-0.025869	-0.027213	0.012239	53.7248	-0.026040	-0.017967	-0.681203	NaN
143	1.000000	1.122575	7.36644e+06	-45789.1	955.82	-29771.7	0.000000	0.000000	7.123216	0.052247	NaN	0.000000	0.001543	0.001681	28.0921	0.053029	0.002005	26.45	-126.688	-163.767	-0.022470	1.121248	-0.015840	-0.017167	0.052247	26.45	-0.017321	-0.010717	-4.875188	NaN
143	1.000000	1.132549	7.36644e+06	-45789.1	955.819	-29771.7	0.000000	0.000000	7.133186	-0.036933	NaN	0.000000	0.001568	0.001742	28.0792	0.110424	0.001999	55.2448	30.213	13.8218	-0.024494	1.131172	-0.005866	-0.007243	-0.036933	55.2448	-0.005364	-0.003644	10.1343	NaN
143	1.000000	1.142525	7.36644e+06	-45789.1	955.819	-29771.7	0.000000	0.000000	7.143309	3.543769	NaN	0.000000	0.001552	0.001682	28.1042	4.303119	0.001842	2335.92	6.591270	-165.089	1.761014	1.141249	0.004110	0.002834	3.543769	2335.92	0.002972	0.002356	1503.87	43964.7
143	2.000000	1.148655	7.36644e+06	-45789.1	955.819	-29771.7	0.000000	0.000000	7.149731	10.6549	NaN	0.000000	0.001540	0.001699	28.1309	10.6075	0.001630	6506.47	9.126464	4.584947	9.712374	1.148300	0.010240	0.009885	10.6549	6506.47	0.009012	0.008104	1314.84	66035.9
143	2.000000	1.151137	7.36644e+06	-45789.1	955.818	-29771.7	0.000000	0.000000	7.152360	14.245	NaN	0.000000	0.001548	0.001697	28.093	13.5183	0.001777	7608.41	7.781746	-174.671	14.5161	1.150860	0.012722	0.012445	14.245	7608.41	0.011318	0.010683	1333.45	67255
143	2.000000	1.153668	7.36644e+06	-45789.1	955.818	-29771.7	0.000000	0.000000	7.155111	19.581	NaN	0.000000	0.001558	0.001691	28.0812	15.9433	0.001754	9088.23	8.444996	4.492377	18.8818	1.153218	0.015253	0.014803	19.581	9088.23	0.013637	0.013511	1449.3	71435.5
143	2.000000	1.156108	7.36644e+06	-45789.1	955.818	-29771.7	0.000000	0.000000	7.157670	22.4669	NaN	0.000000	0.001573	0.001710	28.1031	18.3536	0.001723	10649.8	7.801979	-176.628	23.0713	1.155796	0.017693	0.017381	22.4669	10649.8	0.016111	0.016796	1337.65	75078.5
143	2.000000	1.158562	7.36644e+06	-45789.1	955.817	-29771.7	0.000000	0.000000	7.160401	29.2104	NaN	0.000000	0.001600	0.001689	28.1302	21.2898	0.001716	12404.4	8.234686	0.138361	27.9402	1.158225	0.020147	0.019810	29.2104	12404.4	0.018381	0.020062	1456.03	80013.5
143	2.000000	1.161073	7.36644e+06	-45789.1	955.817	-29771.7	0.000000	0.000000	7.163165	35.3674	NaN	0.000000	0.001568	0.001662	28.0925	24.016	0.001689	14222.7	2.006627	-174.874	34.7277	1.160837	0.022658	0.022422	35.3674	14222.7	0.020793	0.023804	1485.76	84222.7
143	2.000000	1.163559	7.36644e+06	-45789.1	955.818	-29771.7	0.000000	0.000000	7.166011	44.1138	NaN	0.000000	0.001556	0.001687	28.0796	26.8383	0.001800	14912	5.458759	1.912389	40.9598	1.163185	0.025144	0.024770	44.1138	14912	0.022926	0.027350	1612.94	82381.6
143	2.000000	1.166053	7.36644e+06	-45789.1	955.818	-29771.7	0.000000	0.000000	7.168702	48.9125	NaN	0.000000	0.001536	0.001675	28.1043	28.6719	0.001744	16440.7	3.665574	-177.481	47.9423	1.165792	0.027638	0.027377	48.9125	16440.7	0.025407	0.031760	1540.05	84284.9
143	2.000000	1.168532	7.36644e+06	-45789.1	955.818	-29771.7	0.000000	0.000000	7.171484	56.2752	NaN	0.000000	0.001567	0.001711	28.1313	31.4196	0.001816	17301.6	7.878758	-2.230081	54.7628	1.168156	0.030117	0.029742	56.2752	17301.6	0.027678	0.036068	1560.24	83233.2
143	2.000000	1.171062	7.36644e+06	-45789.1	955.818	-29771.7	0.000000	0.000000	7.174227	61.4789	NaN	0.000000	0.001577	0.001693	28.0936	33.7694	0.001883	17938.5	6.500859	-179.868	61.5142	1.170760	0.032647	0.032345	61.4789	17938.5	0.030076	0.040902	1503.07	81037.6
143	2.000000	1.173540	7.36644e+06	-45789.1	955.818	-29771.7	0.000000	0.000000	7.177083	70.6745	NaN	0.000000	0.001576	0.001724	28.0811	35.4651	0.001757	20184.3	5.149499	-0.767204	68.3236	1.173147	0.035125	0.034732	70.6745	20184.3	0.032499	0.046082	1533.65	85905
143	2.000000	1.176078	7.36644e+06	-45789.1	955.818	-29771.7	0.000000	0.000000	7.179889	77.1864	NaN	0.000000	0.001579	0.001661	28.1032	37.7777	0.001699	22233.3	7.360910	176.161	78.461	1.175691	0.037663	0.037276	77.1864	22233.3	0.035059	0.051885	1487.66	89177.9
143	2.000000	1.178528	7.36644e+06	-45789.1	955.818	-29771.7	0.000000	0.000000	7.182779	87.8899	NaN	0.000000	0.001569	0.001695	28.1302	39.788	0.001880	21163.8	5.110797	-0.570738	85.0421	1.178127	0.040113	0.039712	87.8899	21163.8	0.036998	0.056501	1555.54	81346.3
143	2.000000	1.181017	7.36644e+06	-45789.1	955.819	-29771.7	0.000000	0.000000	7.185676	97.8034	NaN	0.000000	0.001608	0.001684	28.0928	42.1428	0.001770	23815.1	4.537295	177.645	95.2713	1.180743	0.042602	0.042328	97.8034	23815.1	0.039522	0.062799	1557.41	86826.2
143	2.000000	1.183523	7.36644e+06	-45789.1	955.819	-29771.7	0.000000	0.000000	7.188711	110.671	NaN	0.000000	0.001575	0.001699	28.0806	43.5768	0.001768	24649.8	8.924034	-4.524666	108.32	1.183134	0.045108	0.044719	110.671	24649.8	0.041741	0.068605	1613.16	85982.2
143	2.000000	1.186017	7.36644e+06	-45789.1	955.818	-29771.7	0.000000	0.000000	7.191417	115.852	NaN	0.000000	0.001580	0.001699	28.1028	45.1858	0.001710	26417.1	0.494496	-178.474	113.323	1.185745	0.047602	0.047331	115.852	26417.1	0.044312	0.075648	1531.47	87752.8
143	2.000000	1.188622	7.36644e+06	-45789.1	955.818	-29771.7	0.000000	0.000000	7.194428	125.723	NaN	0.000000	0.001565	0.001669	28.1302	49.8112	0.001800	27675.6	8.060542	-5.415516	129.419	1.188070	0.050207	0.049655	125.723	27675.6	0.046800	0.082778	1518.79	87884.5
143	2.000000	1.191011	7.36644e+06	-45789.1	955.818	-29771.7	0.000000	0.000000	7.197266	136.629	NaN	0.000000	0.001584	0.001638	28.0942	51.9912	0.001812	28685.3	3.331028	177.51	134.511	1.190756	0.052596	0.052341	136.629	28685.3	0.049024	0.089421	1527.93	87642.1
143	2.000000	1.193501	7.36644e+06	-45789.1	955.817	-29771.7	0.000000	0.000000	7.200276	149.301	NaN	0.000000	0.001553	0.001664	28.08	53.8058	0.001838	29278.5	5.731290	-4.619451	145.753	1.193129	0.055086	0.054714	149.301	29278.5	0.051261	0.096352	1549.54	86177.2
143	2.000000	1.195987	7.36644e+06	-45789.1	955.818	-29771.7	0.000000	0.000000	7.203373	164.146	NaN	0.000000	0.001591	0.001698	28.1008	55.5378	0.001726	32180.4	4.714776	175.119	161.938	1.195664	0.057572	0.057249	164.146	32180.4	0.053747	0.104344	1573.12	91018.6
143	2.000000	1.198490	7.36644e+06	-45789.1	955.819	-29771.7	0.000000	0.000000	7.206569	181.007	NaN	0.000000	0.001571	0.001706	28.1294	58.3951	0.001780	32798.6	2.148719	-1.275196	178.588	1.198162	0.060075	0.059747	181.007	32798.6	0.055936	0.111640	1621.35	89684.8
143	2.000000	1.200961	7.36644e+06	-45789.1	955.819	-29771.7	0.000000	0.000000	7.209759	198.497	NaN	0.000000	0.001581	0.001675	28.0933	61.2847	0.001904	32184.8	2.713151	178.345	195.239	1.200686	0.062546	0.062271	198.497	32184.8	0.057920	0.118456	1675.69	85436.7
143	2.000000	1.203518	7.36644e+06	-45789.1	955.819	-29771.7	0.000000	0.000000	7.212741	208.825	NaN	0.000000	0.001546	0.001696	28.0788	63.4757	0.001857	34180.3	6.610988	-6.065382	207.848	1.203167	0.065103	0.064752	208.825	34180.3	0.060521	0.127684	1635.48	87393.8
143	2.000000	1.205914	7.36644e+06	-45789.1	955.819	-29771.7	0.000000	0.000000	7.215884	227.026	NaN	0.000000	0.001543	0.001710	28.103	63.9754	0.001776	36016.8	3.473519	176.447	221.792	1.205624	0.067499	0.067209	227.026	36016.8	0.062771	0.135932	1670.14	89251.8
143	2.000000	1.208450	7.36644e+06	-45789.1	955.819	-29771.7	0.000000	0.000000	7.219141	244.547	NaN	0.000000	0.001590	0.001656	28.1302	67.6678	0.001732	39072.1	3.418619	-4.068423	241.845	1.208038	0.070035	0.069623	244.547	39072.1	0.065341	0.145654	1678.96	93535.8
143	2.000000	1.210989	7.36644e+06	-45789.1	955.82	-29771.7	0.000000	0.000000	7.222042	253.368	NaN	0.000000	0.001565	0.001651	28.0928	70.7837	0.001722	41116.1	-0.164377	178.367	251.144	1.210820	0.072574	0.072406	253.368	41116.1	0.067952	0.155856	1625.65	95153
143	2.000000	1.213601	7.36644e+06	-45789.1	955.82	-29771.7	0.000000	0.000000	7.225391	271.272	NaN	0.000000	0.001543	0.001670	28.0796	74.0061	0.001865	39680.8	8.624710	-9.101750	274.022	1.213094	0.075186	0.074679	271.272	39680.8	0.070059	0.164329	1650.79	89432.8
143	2.000000	1.215989	7.36644e+06	-45789.1	955.819	-29771.7	0.000000	0.000000	7.228707	293.863	NaN	0.000000	0.001584	0.001698	28.1019	75.8747	0.001825	41569.4	7.392260	171.819	293.123	1.215570	0.077574	0.077155	293.863	41569.4	0.072272	0.173452	1694.21	91192.2
143	2.000000	1.218410	7.36644e+06	-45789.1	955.819	-29771.7	0.000000	0.000000	7.231794	310.051	NaN	0.000000	0.001572	0.001649	28.1304	78.0514	0.001846	42290.2	6.940519	-8.208918	304.571	1.218096	0.079995	0.079682	310.051	42290.2	0.074496	0.182859	1695.58	90355.6
143	2.000000	1.220911	7.36644e+06	-45789.1	955.82	-29771.7	0.000000	0.000000	7.234977	326.646	NaN	0.000000	0.001536	0.001668	28.0937	79.832	0.001883	42400.7	3.403171	175.302	323.362	1.220698	0.082496	0.082283	326.646	42400.7	0.076718	0.192485	1696.99	88297.3
143	2.000000	1.223444	7.36644e+06	-45789.1	955.82	-29771.7	0.000000	0.000000	7.237864	335.255	NaN	0.000000	0.001585	0.001661	28.0821	80.5977	0.001595	50535.5	1.059768	-3.988503	329.345	1.223205	0.085029	0.084790	335.255	50535.5	0.080054	0.207372	1616.69	101390
143	2.000000	1.226017	7.36644e+06	-45789.1	955.82	-29771.7	0.000000	0.000000	7.241757	367.363	NaN	0.000000	0.001560	0.001656	28.1028	84.2179	0.001763	47762.7	5.844254	172.502	371.052	1.225559	0.087602	0.087144	367.363	47762.7	0.081834	0.215529	1704.47	93996
143	2.000000	1.228373	7.36644e+06	-45789.1	955.82	-29771.7	0.000000	0.000000	7.244685	381.285	NaN	0.000000	0.001617	0.001657	28.1319	86.5385	0.001753	49375.1	6.034371	-9.028425	373.769	1.228141	0.089958	0.089726	381.285	49375.1	0.084166	0.226441	1683.82	94798.9
143	2.000000	1.230925	7.36644e+06	-45789.1	955.819	-29771.7	0.000000	0.000000	7.248146	403.411	NaN	0.000000	0.001583	0.001616	28.0951	90.1218	0.001842	48935.7	4.870489	172.546	399.59	1.230677	0.092510	0.092262	403.411	48935.7	0.086327	0.236772	1703.79	91882.6
143	2.000000	1.233446	7.36644e+06	-45789.1	955.819	-29771.7	0.000000	0.000000	7.251823	431.523	NaN	0.000000	0.001594	0.001660	28.0814	90.1649	0.001705	52872.4	4.650483	-6.578138	427.696	1.233110	0.095031	0.094695	431.523	52872.4	0.088910	0.249405	1730.21	96727.4
143	2.000000	1.235985	7.36644e+06	-45789.1	955.819	-29771.7	0.000000	0.000000	7.254868	443.819	NaN	0.000000	0.001611	0.001661	28.1019	93.8438	0.001828	51324.2	6.153958	170.832	442.545	1.235664	0.097570	0.097249	443.819	51324.2	0.091085	0.260281	1705.15	91912.4
143	2.000000	1.238481	7.36644e+06	-45789.1	955.819	-29771.7	0.000000	0.000000	7.258263	465.69	NaN	0.000000	0.001529	0.001675	28.1303	96.937	0.001855	52259	6.750125	-9.261543	463.805	1.238020	0.100066	0.099605	465.69	52259	0.093383	0.272006	1712.06	91547.2
143	2.000000	1.240892	7.36644e+06	-45789.1	955.819	-29771.7	0.000000	0.000000	7.261732	491.425	NaN	0.000000	0.001560	0.001647	28.0941	98.2396	0.001753	56042.5	3.516295	173.186	488.38	1.240718	0.102477	0.102303	491.425	56042.5	0.095901	0.285132	1723.5	95888.7
143	2.000000	1.243400	7.36644e+06	-45789.1	955.82	-29771.7	0.000000	0.000000	7.265393	519.481	NaN	0.000000	0.001547	0.001702	28.0802	99.5598	0.001783	55823.8	3.214781	-6.005913	511.699	1.242982	0.104985	0.104567	519.481	55823.8	0.098006	0.296326	1753.07	93693.2
143	2.000000	1.245870	7.36644e+06	-45789.1	955.819	-29771.7	0.000000	0.000000	7.268651	538.639	NaN	0.000000	0.001514	0.001681	28.1021	101.636	0.001765	57581.6	2.321839	174.409	533.855	1.245711	0.107455	0.107296	538.639	57581.6	0.100439	0.309521	1740.23	94561.1