File: remote_trans/data/nanoindenter/0828-1/data/Data_2025-08-06,11h17m57s/2025-07-22_16-23-58_1_738.txt
2025-07-22, 16:23:58, 1
Index	Phase	Displacement	Time	Pos X	Pos Y	Pos Z	Rot A	Rot B	Piezo Z	Force A	Force B	Gripper	Voltage A	Voltage B	Temperature	Amplitude force	Amplitude pos	Stiffness	Phase shift	Phase excitation	Force A raw	Displacement raw	HMax	HMax raw	Real Force	Real Stiffness	Contact Depth	Area	Hardness	Reduced Mod.
[#]	[#]	[um]	[s]	[um]	[um]	[um]	[m°]	[m°]	[um]	[uN]	[uN]	[V]	[V]	[V]	[°C]	[uN]	[um]	[N/m]	[°]	[°]	[uN]	[um]	[um]	[um]	[uN]	[N/m]	[um]	[um^2]	[MPa]	[MPa]
738	1.000000	0.001764	7.37227e+06	-40189.1	1005.82	-29790.9	0.000000	0.000000	6.002772	0.027138	NaN	0.000000	0.001586	0.001659	28.0814	0.035074	0.000993	35.3162	-46.6783	-163.861	-0.026945	0.000511	-1.056778	-1.058031	0.027138	35.3162	-1.057354	-1.340491E+14	-2.024506E-16	NaN
738	1.000000	0.009757	7.37227e+06	-40189.1	1005.82	-29790.9	0.000000	0.000000	6.010765	0.031743	NaN	0.000000	0.001586	0.001650	28.0813	0.127843	0.000958	133.412	56.9166	-162.361	-0.074700	0.008415	-1.048785	-1.050128	0.031743	133.412	-1.048963	-1.033903E+14	-3.070220E-16	NaN
738	1.000000	0.017731	7.37227e+06	-40189.1	1005.82	-29790.9	0.000000	0.000000	6.018736	-0.030688	NaN	0.000000	0.001585	0.001667	28.0812	0.105547	0.001657	63.6993	13.4612	-169.68	-0.047635	0.016445	-1.040811	-1.042097	-0.030688	63.6993	-1.040450	-7.943531E+13	3.863229E-16	NaN
738	1.000000	0.025793	7.37227e+06	-40189.1	1005.82	-29790.9	0.000000	0.000000	6.026801	0.031046	NaN	0.000000	0.001586	0.001681	28.0813	0.128282	0.001900	67.5069	-125.263	-164.499	0.064311	0.024389	-1.032749	-1.034153	0.031046	67.5069	-1.033094	-6.325478E+13	-4.908047E-16	NaN
738	1.000000	0.033746	7.37227e+06	-40189.1	1005.82	-29790.9	0.000000	0.000000	6.034753	0.001994	NaN	0.000000	0.001561	0.001680	28.0811	0.090583	0.001960	46.2232	-148.254	-165.435	0.070055	0.032440	-1.024796	-1.026102	0.001994	46.2232	-1.024828	-4.896791E+13	-4.072988E-17	NaN
738	1.000000	0.041731	7.37227e+06	-40189.1	1005.82	-29790.9	0.000000	0.000000	6.042738	0.008325	NaN	0.000000	0.001549	0.001713	28.0811	0.028181	0.002079	13.5553	174.179	-166.094	0.019536	0.040399	-1.016811	-1.018143	0.008325	13.5553	-1.017272	-3.874735E+13	-2.148559E-16	NaN
738	1.000000	0.049752	7.37227e+06	-40189.1	1005.82	-29790.9	0.000000	0.000000	6.050759	0.035172	NaN	0.000000	0.001579	0.001677	28.081	0.104596	0.002033	51.4436	-119.433	-165.013	0.028272	0.048433	-1.008790	-1.010109	0.035172	51.4436	-1.009303	-3.026944E+13	-1.161971E-15	NaN
738	1.000000	0.057715	7.37227e+06	-40189.1	1005.82	-29790.9	0.000000	0.000000	6.058724	0.056767	NaN	0.000000	0.001550	0.001674	28.0814	0.094381	0.002033	46.4172	-85.9179	-162.394	0.074208	0.056443	-1.000827	-1.002100	0.056767	46.4172	-1.001744	-2.394691E+13	-2.370523E-15	NaN
738	1.000000	0.065759	7.37227e+06	-40189.1	1005.82	-29790.9	0.000000	0.000000	6.066764	-0.032430	NaN	0.000000	0.001559	0.001649	28.0798	0.104624	0.002077	50.3823	-44.3852	-164.969	0.006167	0.064429	-0.992783	-0.994113	-0.032430	50.3823	-0.992300	-1.786874E+13	1.814878E-15	NaN
738	1.000000	0.073765	7.37227e+06	-40189.1	1005.82	-29790.9	0.000000	0.000000	6.074769	-0.051873	NaN	0.000000	0.001599	0.001657	28.0799	0.131073	0.001959	66.9238	68.0178	-164.916	-0.004063	0.072498	-0.984777	-0.986045	-0.051873	66.9238	-0.984196	-1.389741E+13	3.732564E-15	NaN
738	1.000000	0.081767	7.37227e+06	-40189.1	1005.82	-29790.9	0.000000	0.000000	6.082771	-0.039044	NaN	0.000000	0.001555	0.001685	28.0799	0.070103	0.001888	37.1233	-158.307	-166.417	-0.156983	0.080447	-0.976776	-0.978095	-0.039044	37.1233	-0.975987	-1.077310E+13	3.624182E-15	NaN
738	1.000000	0.089759	7.37227e+06	-40189.1	1005.82	-29790.9	0.000000	0.000000	6.090762	-0.093743	NaN	0.000000	0.001577	0.001737	28.0797	0.050811	0.002075	24.4889	68.8063	-166.483	-0.005860	0.088451	-0.968783	-0.970091	-0.093743	24.4889	-0.965912	-7.880679E+12	1.189526E-14	NaN
738	1.000000	0.097756	7.37227e+06	-40189.1	1005.82	-29790.9	0.000000	0.000000	6.098764	0.033582	NaN	0.000000	0.001564	0.001679	28.0805	0.105241	0.002002	52.5559	-27.4279	-164.164	0.000922	0.096414	-0.960786	-0.962128	0.033582	52.5559	-0.961265	-6.822247E+12	-4.922498E-15	NaN
738	1.000000	0.105787	7.37227e+06	-40189.1	1005.82	-29790.9	0.000000	0.000000	6.106796	0.075379	NaN	0.000000	0.001547	0.001666	28.0798	0.037999	0.002040	18.6275	97.2904	-165.459	0.096113	0.104416	-0.952756	-0.954126	0.075379	18.6275	-0.955791	-5.755929E+12	-1.309587E-14	NaN
738	1.000000	0.113775	7.37227e+06	-40189.1	1005.82	-29790.9	0.000000	0.000000	6.114781	-0.010889	NaN	0.000000	0.001565	0.001660	28.0798	0.051366	0.001918	26.7819	-132.668	-161.629	0.052367	0.112396	-0.944767	-0.946146	-0.010889	26.7819	-0.944462	-4.048840E+12	2.689495E-15	NaN
738	1.000000	0.121746	7.37227e+06	-40189.1	1005.82	-29790.9	0.000000	0.000000	6.122753	0.032362	NaN	0.000000	0.001552	0.001662	28.0797	0.059560	0.002074	28.7116	-177.174	-164.157	-0.050031	0.120439	-0.936796	-0.938103	0.032362	28.7116	-0.937642	-3.275822E+12	-9.878966E-15	NaN
738	1.000000	0.129750	7.37227e+06	-40189.1	1005.82	-29790.9	0.000000	0.000000	6.130758	0.033139	NaN	0.000000	0.001525	0.001634	28.0798	0.045411	0.001988	22.8399	67.3777	-165.882	0.001663	0.128497	-0.928792	-0.930045	0.033139	22.8399	-0.929880	-2.573835E+12	-1.287529E-14	NaN
738	1.000000	0.137747	7.37227e+06	-40189.1	1005.82	-29790.9	0.000000	0.000000	6.138756	0.068408	NaN	0.000000	0.001545	0.001656	28.0802	0.078456	0.001958	40.0782	176.01	-165.381	0.083082	0.136479	-0.920795	-0.922063	0.068408	40.0782	-0.922075	-2.019392E+12	-3.387549E-14	NaN
738	1.000000	0.145771	7.37227e+06	-40189.1	1005.82	-29790.9	0.000000	0.000000	6.146775	-0.040263	NaN	0.000000	0.001543	0.001655	28.08	0.057693	0.002062	27.9783	128.022	-163.932	-0.067496	0.144452	-0.912771	-0.914090	-0.040263	27.9783	-0.911692	-1.462239E+12	2.753495E-14	NaN
738	1.000000	0.153784	7.37227e+06	-40189.1	1005.82	-29790.9	0.000000	0.000000	6.154790	0.000365	NaN	0.000000	0.001576	0.001631	28.0801	0.098214	0.002022	48.561	-114.962	-165.045	0.070737	0.152478	-0.904758	-0.906064	0.000365	48.561	-0.904764	-1.178767E+12	-3.097200E-16	NaN
738	1.000000	0.161784	7.37227e+06	-40189.1	1005.82	-29790.9	0.000000	0.000000	6.162789	-0.025536	NaN	0.000000	0.001567	0.001649	28.08	0.080433	0.001982	40.5761	-24.0201	-165.123	-0.031085	0.160489	-0.896759	-0.898054	-0.025536	40.5761	-0.896287	-9.054927E+11	2.820097E-14	NaN
738	1.000000	0.169805	7.37227e+06	-40189.1	1005.82	-29790.9	0.000000	0.000000	6.170813	0.044255	NaN	0.000000	0.001628	0.001611	28.08	0.151737	0.002075	73.1112	-27.9666	-163.486	0.034564	0.168486	-0.888737	-0.890056	0.044255	73.1112	-0.889191	-7.260793E+11	-6.095003E-14	NaN
738	1.000000	0.177754	7.37227e+06	-40189.1	1005.82	-29790.9	0.000000	0.000000	6.178759	-0.025809	NaN	0.000000	0.001605	0.001652	28.0803	0.017866	0.001954	9.144939	-27.3997	-163.332	-0.017033	0.176505	-0.880789	-0.882037	-0.025809	9.144939	-0.878672	-5.232956E+11	4.931997E-14	NaN
738	1.000000	0.185787	7.37227e+06	-40189.1	1005.82	-29790.9	0.000000	0.000000	6.186793	-0.003703	NaN	0.000000	0.001611	0.001660	28.0801	0.153947	0.002030	75.8319	-0.134136	-162.038	-0.001637	0.184447	-0.872756	-0.874095	-0.003703	75.8319	-0.872719	-4.347395E+11	8.517829E-15	NaN
738	1.000000	0.193790	7.37227e+06	-40189.1	1005.82	-29790.9	0.000000	0.000000	6.194799	0.060592	NaN	0.000000	0.001603	0.001693	28.0804	0.050129	0.002006	24.9915	-111.16	-162.46	0.112533	0.192517	-0.864752	-0.866025	0.060592	24.9915	-0.866570	-3.589550E+11	-1.688020E-13	NaN
738	1.000000	0.201774	7.37227e+06	-40189.1	1005.82	-29790.9	0.000000	0.000000	6.202779	-0.026573	NaN	0.000000	0.001614	0.001654	28.0813	0.079722	0.001932	41.2735	58.0498	-164.736	-0.036681	0.200505	-0.856768	-0.858037	-0.026573	41.2735	-0.856285	-2.605182E+11	1.020000E-13	NaN
738	1.000000	0.209798	7.37227e+06	-40189.1	1005.82	-29790.9	0.000000	0.000000	6.210804	0.006951	NaN	0.000000	0.001603	0.001621	28.0813	0.036842	0.002044	18.0254	80.4244	-164.107	-0.061223	0.208462	-0.848744	-0.850081	0.006951	18.0254	-0.849033	-2.078015E+11	-3.345032E-14	NaN
738	1.000000	0.217796	7.37227e+06	-40189.1	1005.82	-29790.9	0.000000	0.000000	6.218803	0.022945	NaN	0.000000	0.001585	0.001681	28.0816	0.089977	0.002197	40.9548	-134.077	-164.951	0.042532	0.216510	-0.840747	-0.842032	0.022945	40.9548	-0.841167	-1.625918E+11	-1.411190E-13	NaN
738	1.000000	0.225822	7.37227e+06	-40189.1	1005.82	-29790.9	0.000000	0.000000	6.226827	-0.031736	NaN	0.000000	0.001644	0.001658	28.0814	0.065346	0.002023	32.3072	68.2202	-167.298	0.021075	0.224498	-0.832720	-0.834045	-0.031736	32.3072	-0.831984	-1.220869E+11	2.599470E-13	NaN
738	1.000000	0.233807	7.37227e+06	-40189.1	1005.82	-29790.9	0.000000	0.000000	6.234814	0.028303	NaN	0.000000	0.001517	0.001626	28.0818	0.011389	0.001993	5.713319	-119.76	-163.195	0.032043	0.232530	-0.824735	-0.826012	0.028303	5.713319	-0.828451	-1.093414E+11	-2.588506E-13	NaN
738	1.000000	0.241840	7.37227e+06	-40189.1	1005.82	-29790.9	0.000000	0.000000	6.242845	-0.039906	NaN	0.000000	0.001576	0.001637	28.0813	0.047274	0.002013	23.479	-85.2693	-161.485	-0.021269	0.240487	-0.816702	-0.818056	-0.039906	23.479	-0.815427	-7.281053E+10	5.480840E-13	NaN
738	1.000000	0.249813	7.37227e+06	-40189.1	1005.82	-29790.9	0.000000	0.000000	6.250817	-0.037110	NaN	0.000000	0.001531	0.001650	28.0815	0.032392	0.001983	16.3323	79.6879	-161.415	-0.007222	0.248549	-0.808730	-0.809993	-0.037110	16.3323	-0.807025	-5.600291E+10	6.626512E-13	NaN
738	1.000000	0.257818	7.37227e+06	-40189.1	1005.82	-29790.9	0.000000	0.000000	6.258825	0.020136	NaN	0.000000	0.001569	0.001661	28.0817	0.072241	0.001999	36.1419	92.5563	-164.548	0.001267	0.256533	-0.800724	-0.802010	0.020136	36.1419	-0.801142	-4.659799E+10	-4.321256E-13	NaN
738	1.000000	0.265828	7.37227e+06	-40189.1	1005.82	-29790.9	0.000000	0.000000	6.266832	-0.040870	NaN	0.000000	0.001585	0.001697	28.0815	0.066629	0.002141	31.1205	69.5345	-167.244	-0.015720	0.264481	-0.792715	-0.794061	-0.040870	31.1205	-0.791730	-3.471967E+10	1.177128E-12	NaN
738	1.000000	0.273830	7.37227e+06	-40189.1	1005.82	-29790.9	0.000000	0.000000	6.274833	-0.066779	NaN	0.000000	0.001570	0.001659	28.0814	0.028296	0.002110	13.4108	25.8116	-167.062	0.038435	0.272539	-0.784713	-0.786003	-0.066779	13.4108	-0.780978	-2.480404E+10	2.692277E-12	NaN
738	1.000000	0.281832	7.37227e+06	-40189.1	1005.82	-29790.9	0.000000	0.000000	6.282841	0.069531	NaN	0.000000	0.001566	0.001679	28.0816	0.028593	0.001990	14.3706	40.3	-161.781	0.000352	0.280532	-0.776710	-0.778010	0.069531	14.3706	-0.780339	-2.431305E+10	-2.859817E-12	NaN
738	1.000000	0.289827	7.37227e+06	-40189.1	1005.82	-29790.9	0.000000	0.000000	6.290832	-0.013157	NaN	0.000000	0.001543	0.001658	28.0817	0.009857	0.002107	4.677454	127.655	-160.151	-0.012579	0.288544	-0.768715	-0.769999	-0.013157	4.677454	-0.766606	-1.581804E+10	8.317616E-13	NaN
738	1.000000	0.297850	7.37227e+06	-40189.1	1005.82	-29790.9	0.000000	0.000000	6.298856	-0.014323	NaN	0.000000	0.001594	0.001659	28.0813	0.093763	0.001905	49.2234	-86.1268	-166.482	-0.004633	0.296501	-0.760692	-0.762041	-0.014323	49.2234	-0.760474	-1.305413E+10	1.097179E-12	NaN
738	1.000000	0.305838	7.37227e+06	-40189.1	1005.82	-29790.9	0.000000	0.000000	6.306844	-0.011891	NaN	0.000000	0.001606	0.001648	28.0815	0.092682	0.001924	48.1703	73.9896	-163.224	-0.019947	0.304505	-0.752704	-0.754037	-0.011891	48.1703	-0.752519	-1.017433E+10	1.168690E-12	NaN
738	1.000000	0.313840	7.37227e+06	-40189.1	1005.82	-29790.9	0.000000	0.000000	6.314846	-0.007582	NaN	0.000000	0.001620	0.001634	28.0812	0.084789	0.001962	43.2139	76.3686	-162.268	-0.098428	0.312568	-0.744702	-0.745974	-0.007582	43.2139	-0.744571	-7.930531E+9	9.560589E-13	NaN
738	1.000000	0.321821	7.37227e+06	-40189.1	1005.82	-29790.9	0.000000	0.000000	6.322826	-0.029470	NaN	0.000000	0.001612	0.001664	28.0814	0.218458	0.002104	103.846	176.887	-164.541	0.010126	0.320567	-0.736722	-0.737976	-0.029470	103.846	-0.736509	-6.158828E+9	4.784922E-12	NaN
738	1.000000	0.329890	7.37227e+06	-40189.1	1005.82	-29790.9	0.000000	0.000000	6.330897	0.026460	NaN	0.000000	0.001608	0.001685	28.0816	0.095492	0.002065	46.2536	-86.8977	-166.113	0.023758	0.328585	-0.728652	-0.729957	0.026460	46.2536	-0.729081	-4.878518E+9	-5.423784E-12	NaN
738	1.000000	0.337866	7.37227e+06	-40189.1	1005.82	-29790.9	0.000000	0.000000	6.338869	-0.080030	NaN	0.000000	0.001630	0.001704	28.0802	0.145044	0.001938	74.8484	-104.231	-161.547	0.030853	0.336600	-0.720676	-0.721943	-0.080030	74.8484	-0.719875	-3.653944E+9	2.190241E-11	NaN
738	1.000000	0.345851	7.37227e+06	-40189.1	1005.82	-29790.9	0.000000	0.000000	6.346859	0.037239	NaN	0.000000	0.001615	0.001675	28.0803	0.089966	0.002002	44.9323	-3.961194	-165.894	-0.023449	0.344512	-0.712691	-0.714030	0.037239	44.9323	-0.713313	-2.973400E+9	-1.252400E-11	NaN
738	1.000000	0.353881	7.37227e+06	-40189.1	1005.82	-29790.9	0.000000	0.000000	6.354887	-0.005035	NaN	0.000000	0.001618	0.001685	28.0804	0.039564	0.001932	20.4811	-63.1686	-166.659	0.056891	0.352499	-0.704661	-0.706043	-0.005035	20.4811	-0.704477	-2.252468E+9	2.235111E-12	NaN
738	1.000000	0.361891	7.37227e+06	-40189.1	1005.82	-29790.9	0.000000	0.000000	6.362899	0.041671	NaN	0.000000	0.001513	0.001668	28.0802	0.054049	0.001929	28.0196	-151.978	-166.013	0.047716	0.360567	-0.696652	-0.697975	0.041671	28.0196	-0.697767	-1.824038E+9	-2.284519E-11	NaN
738	1.000000	0.369887	7.37227e+06	-40189.1	1005.82	-29790.9	0.000000	0.000000	6.370896	0.061471	NaN	0.000000	0.001574	0.001676	28.0803	0.057199	0.001987	28.7934	-41.0732	-164.985	0.049982	0.368542	-0.688655	-0.690001	0.061471	28.7934	-0.690256	-1.440184E+9	-4.268298E-11	NaN
738	1.000000	0.377889	7.37227e+06	-40189.1	1005.82	-29790.9	0.000000	0.000000	6.378894	-0.014861	NaN	0.000000	0.001579	0.001691	28.0803	0.067385	0.001879	35.8692	-0.125890	-164.293	0.001811	0.376561	-0.680654	-0.681981	-0.014861	35.8692	-0.680343	-1.054135E+9	1.409776E-11	NaN
738	1.000000	0.385883	7.37227e+06	-40189.1	1005.82	-29790.9	0.000000	0.000000	6.386891	0.054464	NaN	0.000000	0.001600	0.001701	28.0806	0.032831	0.002028	16.1929	107.164	-165.327	-0.018106	0.384541	-0.672659	-0.674001	0.054464	16.1929	-0.675182	-8.959780E+8	-6.078680E-11	NaN
738	1.000000	0.393894	7.37227e+06	-40189.1	1005.82	-29790.9	0.000000	0.000000	6.394900	-0.010638	NaN	0.000000	0.001586	0.001657	28.08	0.038286	0.001855	20.6355	74.0223	-166.099	0.015962	0.392523	-0.664648	-0.666019	-0.010638	20.6355	-0.664262	-6.350849E+8	1.675048E-11	NaN
738	1.000000	0.401869	7.37227e+06	-40189.1	1005.82	-29790.9	0.000000	0.000000	6.402875	-0.001763	NaN	0.000000	0.001546	0.001714	28.08	0.048599	0.002121	22.9132	-6.118344	-167.722	-0.001583	0.400581	-0.656673	-0.657961	-0.001763	22.9132	-0.656615	-4.990015E+8	3.533015E-12	NaN
738	1.000000	0.409897	7.37227e+06	-40189.1	1005.82	-29790.9	0.000000	0.000000	6.410903	0.007368	NaN	0.000000	0.001587	0.001675	28.08	0.039635	0.002039	19.4386	88.3212	-162.912	-0.002161	0.408604	-0.648646	-0.649938	0.007368	19.4386	-0.648930	-3.915311E+8	-1.881912E-11	NaN
738	1.000000	0.417899	7.37227e+06	-40189.1	1005.82	-29790.9	0.000000	0.000000	6.418904	-0.022527	NaN	0.000000	0.001589	0.001689	28.0801	0.142345	0.001957	72.7431	-57.7373	-165.819	-0.011582	0.416583	-0.640643	-0.641959	-0.022527	72.7431	-0.640411	-2.991781E+8	7.529514E-11	NaN
738	1.000000	0.425907	7.37227e+06	-40189.1	1005.82	-29790.9	0.000000	0.000000	6.426911	-0.044271	NaN	0.000000	0.001581	0.001678	28.0803	0.032710	0.001962	16.674	92.0702	-165.886	-0.039267	0.424602	-0.632635	-0.633940	-0.044271	16.674	-0.630644	-2.197196E+8	2.014882E-10	NaN
738	1.000000	0.433897	7.37227e+06	-40189.1	1005.82	-29790.9	0.000000	0.000000	6.434903	-0.021535	NaN	0.000000	0.001572	0.001668	28.08	0.142061	0.002140	66.3732	-159.278	-165.182	-0.000373	0.432604	-0.624645	-0.625938	-0.021535	66.3732	-0.624402	-1.803523E+8	1.194032E-10	NaN
738	1.000000	0.441887	7.37227e+06	-40189.1	1005.82	-29790.9	0.000000	0.000000	6.442898	0.098283	NaN	0.000000	0.001508	0.001689	28.0801	0.013576	0.002007	6.763629	88.2767	-166.17	0.096131	0.440588	-0.616655	-0.617954	0.098283	6.763629	-0.627553	-1.992598E+8	-4.932413E-10	NaN
738	1.000000	0.449933	7.37227e+06	-40189.1	1005.82	-29790.9	0.000000	0.000000	6.450938	-0.039452	NaN	0.000000	0.001566	0.001676	28.0802	0.045386	0.002072	21.906	-144.442	-166.98	0.077068	0.448623	-0.608609	-0.609920	-0.039452	21.906	-0.607258	-1.048064E+8	3.764228E-10	NaN
738	1.000000	0.457941	7.37227e+06	-40189.1	1005.82	-29790.9	0.000000	0.000000	6.458947	0.012522	NaN	0.000000	0.001608	0.001669	28.08	0.053871	0.002055	26.2194	-91.7967	-164.269	0.017367	0.456574	-0.600601	-0.601968	0.012522	26.2194	-0.600960	-8.583730E+7	-1.458834E-10	NaN
738	1.000000	0.465903	7.37228e+06	-40189.1	1005.82	-29790.9	0.000000	0.000000	6.466909	0.007060	NaN	0.000000	0.001603	0.001686	28.0801	0.139725	0.002087	66.9427	-153.701	-163.445	0.019586	0.464636	-0.592639	-0.593906	0.007060	66.9427	-0.592718	-6.609051E+7	-1.068166E-10	NaN
738	1.000000	0.473916	7.37228e+06	-40189.1	1005.82	-29790.9	0.000000	0.000000	6.474924	0.038765	NaN	0.000000	0.001588	0.001686	28.0814	0.043572	0.002031	21.4542	49.3144	-168.345	0.008843	0.472587	-0.584626	-0.585955	0.038765	21.4542	-0.585981	-5.336407E+7	-7.264280E-10	NaN
738	1.000000	0.481920	7.37228e+06	-40189.1	1005.82	-29790.9	0.000000	0.000000	6.482925	-0.034127	NaN	0.000000	0.001568	0.001706	28.0814	0.047259	0.001963	24.0806	141.605	-166.014	0.015166	0.480586	-0.576622	-0.577957	-0.034127	24.0806	-0.575560	-3.832001E+7	8.905915E-10	NaN
738	1.000000	0.489950	7.37228e+06	-40189.1	1005.82	-29790.9	0.000000	0.000000	6.490955	-0.032782	NaN	0.000000	0.001573	0.001692	28.0813	0.072727	0.002056	35.3812	-56.2617	-166.755	-0.035941	0.488610	-0.568593	-0.569932	-0.032782	35.3812	-0.567898	-3.003165E+7	1.091595E-9	NaN
738	1.000000	0.497926	7.37228e+06	-40189.1	1005.82	-29790.9	0.000000	0.000000	6.498933	0.045467	NaN	0.000000	0.001588	0.001686	28.0813	0.105493	0.002065	51.094	-135.214	-164.573	-0.003328	0.496629	-0.560617	-0.561914	0.045467	51.094	-0.561284	-2.432996E+7	-1.868747E-9	NaN
738	1.000000	0.505923	7.37228e+06	-40189.1	1005.82	-29790.9	0.000000	0.000000	6.506927	-0.039472	NaN	0.000000	0.001597	0.001738	28.0813	0.042279	0.002034	20.7855	-58.574	-163.849	0.021051	0.504643	-0.552620	-0.553900	-0.039472	20.7855	-0.551195	-1.764056E+7	2.237563E-9	NaN
738	1.000000	0.513934	7.37228e+06	-40189.1	1005.82	-29790.9	0.000000	0.000000	6.514940	0.001355	NaN	0.000000	0.001554	0.001679	28.0813	0.106137	0.002027	52.3534	-123.685	-164.835	0.080971	0.512614	-0.544608	-0.545928	0.001355	52.3534	-0.544628	-1.430597E+7	-9.468162E-11	NaN
738	1.000000	0.521955	7.37228e+06	-40189.1	1005.82	-29790.9	0.000000	0.000000	6.522964	0.062285	NaN	0.000000	0.001580	0.001682	28.0814	0.026572	0.002014	13.1969	-40.0575	-169.044	0.071345	0.520631	-0.536587	-0.537911	0.062285	13.1969	-0.540127	-1.239134E+7	-5.026472E-9	NaN
738	1.000000	0.529939	7.37228e+06	-40189.1	1005.82	-29790.9	0.000000	0.000000	6.530947	0.050488	NaN	0.000000	0.001600	0.001680	28.0815	0.103584	0.002112	49.0542	-110.018	-165.982	0.067722	0.528673	-0.528604	-0.529870	0.050488	49.0542	-0.529375	-8.78823e+06	-5.744911E-9	NaN
738	1.000000	0.537955	7.37228e+06	-40189.1	1005.82	-29790.9	0.000000	0.000000	6.538961	-0.003795	NaN	0.000000	0.001581	0.001682	28.0815	0.037342	0.001913	19.5165	-155.633	-166.156	-0.070885	0.536654	-0.520587	-0.521888	-0.003795	19.5165	-0.520441	-6.60288e+06	5.746792E-10	NaN
738	1.000000	0.545964	7.37228e+06	-40189.1	1005.82	-29790.9	0.000000	0.000000	6.546972	0.049220	NaN	0.000000	0.001612	0.001653	28.0812	0.039794	0.001909	20.8457	-141.005	-164.458	0.008561	0.544662	-0.512578	-0.513880	0.049220	20.8457	-0.514349	-5.43214e+06	-9.060887E-9	NaN
738	1.000000	0.553969	7.37228e+06	-40189.1	1005.82	-29790.9	0.000000	0.000000	6.554976	0.027991	NaN	0.000000	0.001580	0.001671	28.0813	0.078746	0.002102	37.4673	93.4603	-163.134	-0.006272	0.552680	-0.504574	-0.505862	0.027991	37.4673	-0.505134	-4.04213e+06	-6.924912E-9	NaN
738	1.000000	0.561932	7.37228e+06	-40189.1	1005.82	-29790.9	0.000000	0.000000	6.562939	0.005173	NaN	0.000000	0.001614	0.001670	28.0813	0.083965	0.002008	41.8198	41.138	-164.296	-0.001090	0.560647	-0.496610	-0.497895	0.005173	41.8198	-0.496703	-3.08323e+06	-1.677800E-9	NaN
738	1.000000	0.569991	7.37228e+06	-40189.1	1005.82	-29790.9	0.000000	0.000000	6.570997	-0.001448	NaN	0.000000	0.001600	0.001673	28.0814	0.052232	0.001899	27.5028	148.488	-168.28	0.030169	0.568659	-0.488551	-0.489883	-0.001448	27.5028	-0.488512	-2.36914e+06	6.111135E-10	NaN
738	1.000000	0.577958	7.37228e+06	-40189.1	1005.82	-29790.9	0.000000	0.000000	6.578963	-0.028768	NaN	0.000000	0.001609	0.001669	28.0815	0.068017	0.002004	33.9354	113.875	-164.898	0.004701	0.576653	-0.480584	-0.481889	-0.028768	33.9354	-0.479948	-1.79804e+06	1.599964E-8	NaN
738	1.000000	0.585957	7.37228e+06	-40189.1	1005.82	-29790.9	0.000000	0.000000	6.586965	0.041085	NaN	0.000000	0.001589	0.001653	28.0813	0.024079	0.001944	12.3869	-109.535	-164.102	0.068879	0.584637	-0.472585	-0.473905	0.041085	12.3869	-0.475073	-1.53647e+06	-2.673985E-8	NaN
738	1.000000	0.593986	7.37228e+06	-40189.1	1005.82	-29790.9	0.000000	0.000000	6.594990	-0.039370	NaN	0.000000	0.001588	0.001681	28.0816	0.064468	0.002005	32.1578	158.154	-164.319	0.014122	0.592640	-0.464556	-0.465902	-0.039370	32.1578	-0.463638	-1.06201e+06	3.707097E-8	NaN
738	1.000000	0.601982	7.37228e+06	-40189.1	1005.82	-29790.9	0.000000	0.000000	6.602987	-0.027442	NaN	0.000000	0.001585	0.001689	28.0814	0.006431	0.001850	3.476341	-51.2533	-164.206	-0.028846	0.600716	-0.456560	-0.457826	-0.027442	3.476341	-0.450640	-697198	3.935996E-8	NaN
738	1.000000	0.609984	7.37228e+06	-40189.1	1005.82	-29790.9	0.000000	0.000000	6.610989	-0.039186	NaN	0.000000	0.001580	0.001708	28.0802	0.035847	0.001961	18.2843	-144.119	-164.865	-0.028363	0.608640	-0.448558	-0.449902	-0.039186	18.2843	-0.446951	-618569	6.334922E-8	NaN
738	1.000000	0.617989	7.37228e+06	-40189.1	1005.82	-29790.9	0.000000	0.000000	6.618996	0.020719	NaN	0.000000	0.001568	0.001688	28.0802	0.069627	0.002024	34.3943	-133.9	-167.64	-0.043924	0.616655	-0.440554	-0.441888	0.020719	34.3943	-0.441006	-509980	-4.062715E-8	NaN
738	1.000000	0.625960	7.37228e+06	-40189.1	1005.82	-29790.9	0.000000	0.000000	6.626966	-0.001191	NaN	0.000000	0.001578	0.001717	28.08	0.101800	0.002031	50.1315	152.526	-164.878	0.055226	0.624668	-0.432582	-0.433874	-0.001191	50.1315	-0.432564	-387550	3.072124E-9	NaN
738	1.000000	0.634006	7.37228e+06	-40189.1	1005.82	-29790.9	0.000000	0.000000	6.635011	-0.019420	NaN	0.000000	0.001583	0.001700	28.0806	0.029502	0.001905	15.4906	-65.806	-160.941	0.009075	0.632747	-0.424536	-0.425795	-0.019420	15.4906	-0.423596	-289330	6.712174E-8	NaN
738	1.000000	0.641988	7.37228e+06	-40189.1	1005.82	-29790.9	0.000000	0.000000	6.642996	0.048788	NaN	0.000000	0.001645	0.001718	28.0801	0.091225	0.002000	45.6015	-30.7536	-162.093	0.012917	0.640697	-0.416554	-0.417845	0.048788	45.6015	-0.417357	-236001	-2.067284E-7	NaN
738	1.000000	0.649973	7.37228e+06	-40189.1	1005.82	-29790.9	0.000000	0.000000	6.650979	0.000166	NaN	0.000000	0.001628	0.001690	28.08	0.021832	0.002102	10.3863	-87.5591	-166.622	0.007361	0.648721	-0.408569	-0.409821	0.000166	10.3863	-0.408581	-177103	-9.393275E-10	NaN
738	1.000000	0.658017	7.37228e+06	-40189.1	1005.82	-29790.9	0.000000	0.000000	6.659024	0.024838	NaN	0.000000	0.001630	0.001717	28.0801	0.026416	0.002057	12.8441	112.639	-166.289	0.033212	0.656705	-0.400525	-0.401837	0.024838	12.8441	-0.401976	-142613	-1.741636E-7	NaN
738	1.000000	0.666015	7.37228e+06	-40189.1	1005.82	-29790.9	0.000000	0.000000	6.667023	0.045588	NaN	0.000000	0.001560	0.001709	28.0799	0.027039	0.002125	12.7241	101.948	-165.691	0.035579	0.664699	-0.392527	-0.393843	0.045588	12.7241	-0.395215	-114209	-3.991678E-7	NaN
738	1.000000	0.674008	7.37228e+06	-40189.1	1005.82	-29790.9	0.000000	0.000000	6.675014	-0.017476	NaN	0.000000	0.001569	0.001700	28.0801	0.119768	0.002044	58.5934	-167.402	-163.362	-0.032581	0.672665	-0.384534	-0.385877	-0.017476	58.5934	-0.384310	-79745.1	2.191422E-7	NaN
738	1.000000	0.682006	7.37228e+06	-40189.1	1005.82	-29790.9	0.000000	0.000000	6.683013	0.028369	NaN	0.000000	0.001599	0.001711	28.0798	0.025647	0.002059	12.458	-113.359	-165.921	-0.036397	0.680691	-0.376537	-0.377852	0.028369	12.458	-0.378245	-65266.3	-4.346645E-7	NaN
738	1.000000	0.690033	7.37228e+06	-40189.1	1005.82	-29790.9	0.000000	0.000000	6.691040	0.043779	NaN	0.000000	0.001614	0.001680	28.08	0.088462	0.002045	43.2671	-66.4423	-166.335	0.075933	0.688683	-0.368510	-0.369859	0.043779	43.2671	-0.369269	-48483.4	-9.029699E-7	NaN
738	1.000000	0.698008	7.37228e+06	-40189.1	1005.82	-29790.9	0.000000	0.000000	6.699012	-0.047390	NaN	0.000000	0.001591	0.001681	28.08	0.029649	0.002010	14.7538	-57.0781	-168.362	-0.086738	0.696683	-0.360535	-0.361859	-0.047390	14.7538	-0.358126	-33476.5	1.415619E-6	NaN
738	1.000000	0.706037	7.37228e+06	-40189.1	1005.82	-29790.9	0.000000	0.000000	6.707046	0.082468	NaN	0.000000	0.001644	0.001691	28.0799	0.061120	0.002026	30.1661	176.01	-163.796	0.017964	0.704723	-0.352506	-0.353819	0.082468	30.1661	-0.354556	-29721.2	-2.774709E-6	NaN
738	1.000000	0.714000	7.37228e+06	-40189.1	1005.82	-29790.9	0.000000	0.000000	6.715004	-0.047978	NaN	0.000000	0.001621	0.001665	28.0799	0.048508	0.002025	23.9577	-161.324	-166.056	-0.046799	0.712715	-0.344542	-0.345828	-0.047978	23.9577	-0.343040	-20222.6	2.372502E-6	NaN
738	1.000000	0.722038	7.37228e+06	-40189.1	1005.82	-29790.9	0.000000	0.000000	6.723042	-0.040676	NaN	0.000000	0.001587	0.001709	28.0799	0.086529	0.002043	42.3438	-24.5992	-168.852	-0.111190	0.720719	-0.336505	-0.337824	-0.040676	42.3438	-0.335784	-15850.5	2.566218E-6	NaN
738	1.000000	0.730044	7.37228e+06	-40189.1	1005.82	-29790.9	0.000000	0.000000	6.731048	-0.042900	NaN	0.000000	0.001593	0.001691	28.0802	0.035460	0.002077	17.0721	19.6916	-163.117	-0.005288	0.728660	-0.328499	-0.329882	-0.042900	17.0721	-0.326614	-11636.5	3.686635E-6	NaN
738	1.000000	0.738053	7.37228e+06	-40189.1	1005.82	-29790.9	0.000000	0.000000	6.739059	0.006875	NaN	0.000000	0.001594	0.001690	28.08	0.036520	0.001997	18.2894	91.8806	-163.43	0.047875	0.736737	-0.320490	-0.321805	0.006875	18.2894	-0.320771	-9549.74	-7.199574E-7	NaN
738	1.000000	0.746018	7.37228e+06	-40189.1	1005.82	-29790.9	0.000000	0.000000	6.747023	-0.003929	NaN	0.000000	0.001594	0.001684	28.0813	0.037294	0.001912	19.5025	153.848	-165.818	-0.001749	0.744703	-0.312525	-0.313840	-0.003929	19.5025	-0.312374	-7180.6	5.471107E-7	NaN
738	1.000000	0.754029	7.37228e+06	-40189.1	1005.82	-29790.9	0.000000	0.000000	6.755036	0.026775	NaN	0.000000	0.001588	0.001689	28.0811	0.009154	0.001992	4.594451	87.1182	-166.688	-0.034245	0.752731	-0.304514	-0.305811	0.026775	4.594451	-0.308885	-6375.92	-4.199404E-6	NaN
738	1.000000	0.762014	7.37228e+06	-40189.1	1005.82	-29790.9	0.000000	0.000000	6.763022	0.029971	NaN	0.000000	0.001585	0.001679	28.0811	0.073858	0.001986	37.1898	-84.9695	-165.222	0.024548	0.760693	-0.296528	-0.297850	0.029971	37.1898	-0.297133	-4264.93	-7.027424E-6	NaN
738	1.000000	0.770066	7.37228e+06	-40189.1	1005.82	-29790.9	0.000000	0.000000	6.771074	0.055510	NaN	0.000000	0.001557	0.001677	28.0812	0.091514	0.002130	42.9704	44.5336	-168.766	0.002447	0.768718	-0.288476	-0.289824	0.055510	42.9704	-0.289445	-3273.31	-1.695845E-5	NaN
738	1.000000	0.778059	7.37228e+06	-40189.1	1005.82	-29790.9	0.000000	0.000000	6.779067	0.036317	NaN	0.000000	0.001590	0.001689	28.0813	0.038530	0.001931	19.9489	-11.3549	-161.616	-0.056695	0.776697	-0.280483	-0.281845	0.036317	19.9489	-0.281848	-2516.71	-1.443039E-5	NaN
738	1.000000	0.786037	7.37228e+06	-40189.1	1005.82	-29790.9	0.000000	0.000000	6.787044	0.011851	NaN	0.000000	0.001593	0.001661	28.0814	0.088090	0.002182	40.3686	127.199	-165.143	0.027234	0.784752	-0.272505	-0.273790	0.011851	40.3686	-0.272726	-1832.02	-6.468611E-6	NaN
738	1.000000	0.794024	7.37228e+06	-40189.1	1005.82	-29790.9	0.000000	0.000000	6.795030	0.006640	NaN	0.000000	0.001625	0.001674	28.0813	0.050991	0.001913	26.6553	124.401	-164.325	-0.045482	0.792727	-0.264519	-0.265815	0.006640	26.6553	-0.264705	-1383.22	-4.800119E-6	NaN
738	1.000000	0.802055	7.37228e+06	-40189.1	1005.82	-29790.9	0.000000	0.000000	6.803061	-0.016898	NaN	0.000000	0.001615	0.001681	28.0813	0.128612	0.001907	67.4596	-18.7836	-163.07	0.035422	0.800712	-0.256487	-0.257831	-0.016898	67.4596	-0.256299	-1028.25	1.643354E-5	NaN
738	1.000000	0.810056	7.37228e+06	-40189.1	1005.82	-29790.9	0.000000	0.000000	6.811064	0.047371	NaN	0.000000	0.001606	0.001685	28.0813	0.002993	0.001973	1.517002	96.1314	-163.018	0.002619	0.808704	-0.248486	-0.249838	0.047371	1.517002	-0.271906	-1780.3	-2.660818E-5	NaN
738	1.000000	0.818073	7.37228e+06	-40189.1	1005.82	-29790.9	0.000000	0.000000	6.819082	0.064888	NaN	0.000000	0.001587	0.001653	28.0812	0.041675	0.002078	20.0592	144.877	-166.179	0.064990	0.816766	-0.240469	-0.241776	0.064888	20.0592	-0.242896	-637.841	-0.000102	NaN
738	1.000000	0.826058	7.37228e+06	-40189.1	1005.82	-29790.9	0.000000	0.000000	6.827064	-0.004718	NaN	0.000000	0.001602	0.001682	28.0811	0.127074	0.002040	62.3054	167.339	-164.392	0.021001	0.824776	-0.232485	-0.233766	-0.004718	62.3054	-0.232428	-437.321	1.078904E-5	NaN
738	1.000000	0.834068	7.37228e+06	-40189.1	1005.82	-29790.9	0.000000	0.000000	6.835076	0.042877	NaN	0.000000	0.001638	0.001668	28.0816	0.095807	0.002094	45.7548	-95.5216	-163.396	0.043437	0.832763	-0.224475	-0.225779	0.042877	45.7548	-0.225177	-335.855	-0.000128	NaN
738	1.000000	0.842091	7.37228e+06	-40189.1	1005.82	-29790.9	0.000000	0.000000	6.843099	0.048016	NaN	0.000000	0.001590	0.001700	28.0817	0.051104	0.001984	25.7527	-76.2954	-161.798	0.132807	0.840764	-0.216452	-0.217778	0.048016	25.7527	-0.217850	-256.609	-0.000187	NaN
738	1.000000	0.850048	7.37228e+06	-40189.1	1005.82	-29790.9	0.000000	0.000000	6.851055	0.022336	NaN	0.000000	0.001571	0.001671	28.0814	0.067533	0.002021	33.4083	-146.945	-164.594	0.112711	0.848808	-0.208494	-0.209734	0.022336	33.4083	-0.208995	-184.731	-0.000121	NaN
738	1.000000	0.858082	7.37228e+06	-40189.1	1005.82	-29790.9	0.000000	0.000000	6.859089	0.017276	NaN	0.000000	0.001597	0.001672	28.0813	0.149445	0.002027	73.7224	83.5469	-165.057	-0.012579	0.856694	-0.200460	-0.201848	0.017276	73.7224	-0.200636	-134.941	-0.000128	NaN
738	1.000000	0.866060	7.37228e+06	-40189.1	1005.82	-29790.9	0.000000	0.000000	6.867064	-0.040356	NaN	0.000000	0.001573	0.001666	28.0815	0.052027	0.001964	26.4949	159.037	-166.979	0.035739	0.864784	-0.192483	-0.193759	-0.040356	26.4949	-0.191340	-94.7095	0.000426	NaN
738	1.000000	0.874103	7.37228e+06	-40189.1	1005.82	-29790.9	0.000000	0.000000	6.875109	0.016383	NaN	0.000000	0.001589	0.001643	28.0813	0.096816	0.001910	50.6867	51.2315	-166.314	0.027842	0.872756	-0.184440	-0.185786	0.016383	50.6867	-0.184682	-73.2443	-0.000224	NaN
738	1.000000	0.882052	7.37228e+06	-40189.1	1005.82	-29790.9	0.000000	0.000000	6.883061	0.069393	NaN	0.000000	0.001571	0.001700	28.0802	0.069293	0.001887	36.7261	9.264910	-161.837	0.017293	0.880744	-0.176490	-0.177798	0.069393	36.7261	-0.177907	-56.2071	-0.001235	NaN
738	1.000000	0.890086	7.37228e+06	-40189.1	1005.82	-29790.9	0.000000	0.000000	6.891093	0.032821	NaN	0.000000	0.001563	0.001696	28.08	0.030608	0.001921	15.9367	15.9153	-166.761	0.020366	0.888799	-0.168456	-0.169744	0.032821	15.9367	-0.170001	-41.0802	-0.000799	NaN
738	1.000000	0.898103	7.37228e+06	-40189.1	1005.82	-29790.9	0.000000	0.000000	6.899109	0.009940	NaN	0.000000	0.001591	0.001686	28.0802	0.041907	0.002102	19.9407	73.9297	-166.657	-0.053905	0.896815	-0.160440	-0.161727	0.009940	19.9407	-0.160814	-28.3418	-0.000351	NaN
738	1.000000	0.906072	7.37228e+06	-40189.1	1005.82	-29790.9	0.000000	0.000000	6.907078	0.014925	NaN	0.000000	0.001571	0.001654	28.0801	0.036397	0.002017	18.049	-28.2078	-163.869	0.073873	0.904767	-0.152471	-0.153775	0.014925	18.049	-0.153091	-20.6128	-0.000724	NaN
738	1.000000	0.914137	7.37228e+06	-40189.1	1005.82	-29790.9	0.000000	0.000000	6.915142	-0.027123	NaN	0.000000	0.001595	0.001645	28.0801	0.049337	0.002089	23.6167	68.343	-163.175	0.023605	0.912772	-0.144405	-0.145770	-0.027123	23.6167	-0.143544	-13.7776	0.001969	NaN
738	1.000000	0.922080	7.37228e+06	-40189.1	1005.82	-29790.9	0.000000	0.000000	6.923084	-0.049270	NaN	0.000000	0.001568	0.001646	28.0806	0.068845	0.001911	36.0317	102.586	-169.558	-0.092759	0.920800	-0.136462	-0.137742	-0.049270	36.0317	-0.135437	-9.696732	0.005081	NaN
738	1.000000	0.930113	7.37228e+06	-40189.1	1005.82	-29790.9	0.000000	0.000000	6.931120	0.023922	NaN	0.000000	0.001566	0.001665	28.0802	0.024153	0.001817	13.2898	-75.6949	-164.661	-0.023276	0.928784	-0.128429	-0.129758	0.023922	13.2898	-0.129779	-7.546031	-0.003170	NaN
738	1.000000	0.938124	7.37228e+06	-40189.1	1005.82	-29790.9	0.000000	0.000000	6.939133	0.068539	NaN	0.000000	0.001618	0.001659	28.0804	0.100822	0.002047	49.245	-76.3112	-163.354	-0.012817	0.936834	-0.120419	-0.121708	0.068539	49.245	-0.121462	-5.170226	-0.013256	NaN
738	1.000000	0.946119	7.37228e+06	-40189.1	1005.82	-29790.9	0.000000	0.000000	6.947124	-0.036457	NaN	0.000000	0.001624	0.001667	28.08	0.035267	0.001979	17.8229	-127.068	-166.357	-0.007526	0.944810	-0.112423	-0.113732	-0.036457	17.8229	-0.110889	-3.137509	0.011620	NaN
738	1.000000	0.954122	7.37228e+06	-40189.1	1005.82	-29790.9	0.000000	0.000000	6.955127	-0.022935	NaN	0.000000	0.001585	0.001658	28.0803	0.030348	0.001897	15.999	-130.292	-165.629	0.005246	0.952772	-0.104420	-0.105771	-0.022935	15.999	-0.103345	-2.164117	0.010598	NaN
738	1.000000	0.962137	7.37228e+06	-40189.1	1005.82	-29790.9	0.000000	0.000000	6.963144	0.004692	NaN	0.000000	0.001599	0.001645	28.0805	0.093596	0.002027	46.1729	162.114	-167.38	0.108567	0.960827	-0.096405	-0.097715	0.004692	46.1729	-0.096481	-1.524125	-0.003079	NaN
738	1.000000	0.970155	7.37228e+06	-40189.1	1005.82	-29790.9	0.000000	0.000000	6.971164	0.057987	NaN	0.000000	0.001609	0.001695	28.0803	0.172807	0.001976	87.473	-44.0844	-165.293	0.014595	0.968883	-0.088387	-0.089659	0.057987	87.473	-0.088884	-1.017538	-0.056987	NaN
738	1.000000	0.978102	7.37228e+06	-40189.1	1005.82	-29790.9	0.000000	0.000000	6.979111	0.064421	NaN	0.000000	0.001580	0.001659	28.0805	0.060548	0.001885	32.1165	-155.914	-164.463	0.032780	0.976827	-0.080440	-0.081716	0.064421	32.1165	-0.081944	-0.691818	-0.093118	NaN
738	1.000000	0.986184	7.37228e+06	-40189.1	1005.82	-29790.9	0.000000	0.000000	6.987191	0.025119	NaN	0.000000	0.001610	0.001655	28.0804	0.089949	0.001987	45.2725	-76.1765	-163.542	-0.021915	0.984809	-0.072359	-0.073733	0.025119	45.2725	-0.072775	-0.404113	-0.062158	NaN
738	1.000000	0.994171	7.37228e+06	-40189.1	1005.82	-29790.9	0.000000	0.000000	6.995175	-0.051207	NaN	0.000000	0.001600	0.001660	28.0804	0.033487	0.001996	16.7745	-156.708	-162.623	-0.021174	0.992855	-0.064371	-0.065687	-0.051207	16.7745	-0.062082	-0.206446	0.248039	NaN
738	1.000000	1.002122	7.37228e+06	-40189.1	1005.82	-29790.9	0.000000	0.000000	7.003128	-0.006763	NaN	0.000000	0.001580	0.001649	28.0802	0.022439	0.001927	11.6445	-84.2889	-166.368	-0.001718	1.000799	-0.056420	-0.057743	-0.006763	11.6445	-0.055984	-0.137674	0.049127	NaN
738	1.000000	1.010135	7.37228e+06	-40189.1	1005.82	-29790.9	0.000000	0.000000	7.011141	-0.004115	NaN	0.000000	0.001557	0.001610	28.0803	0.058392	0.001996	29.2496	81.5908	-166.076	0.057135	1.008871	-0.048408	-0.049671	-0.004115	29.2496	-0.048302	-0.081048	0.050768	NaN
738	1.000000	1.018151	7.37228e+06	-40189.1	1005.82	-29790.9	0.000000	0.000000	7.019156	-0.042311	NaN	0.000000	0.001558	0.001668	28.0815	0.135275	0.002057	65.7544	11.9683	-167.043	0.054160	1.016857	-0.040391	-0.041686	-0.042311	65.7544	-0.039908	-0.044933	0.941652	NaN
738	1.000000	1.026121	7.37228e+06	-40189.1	1005.82	-29790.9	0.000000	0.000000	7.027125	-0.031662	NaN	0.000000	0.001577	0.001666	28.0817	0.053539	0.002021	26.4946	128.67	-162.806	-0.063717	1.024820	-0.032422	-0.033723	-0.031662	26.4946	-0.031525	-0.025403	1.246361	NaN
738	1.000000	1.034131	7.37228e+06	-40189.1	1005.82	-29790.9	0.000000	0.000000	7.035137	0.000688	NaN	0.000000	0.001570	0.001654	28.0817	0.099044	0.001875	52.8334	10.7129	-163.128	0.018410	1.032830	-0.024412	-0.025712	0.000688	52.8334	-0.024421	-0.016295	-0.042201	NaN
738	1.000000	1.042183	7.37228e+06	-40189.1	1005.82	-29790.9	0.000000	0.000000	7.043186	-0.086516	NaN	0.000000	0.001640	0.001671	28.0814	0.014388	0.001997	7.205416	9.876056	-167.082	-0.079781	1.040881	-0.016359	-0.017661	-0.086516	7.205416	-0.007354	-0.004851	17.8348	NaN
738	1.000000	1.050164	7.37228e+06	-40189.1	1005.82	-29790.9	0.000000	0.000000	7.051175	0.107023	NaN	0.000000	0.001621	0.001712	28.0815	0.104206	0.002034	51.2367	-146.129	-165.54	-0.025804	1.048841	-0.008378	-0.009701	0.107023	51.2367	-0.009945	-0.006356	-16.8391	NaN
738	1.000000	1.058133	7.37228e+06	-40189.1	1005.82	-29790.9	0.000000	0.000000	7.059307	4.083213	NaN	0.000000	0.001619	0.001673	28.0818	5.195519	0.001787	2908.14	16.9474	-172.252	3.089644	1.056821	-0.000409	-0.001722	4.083213	2908.14	-0.001462	-0.001063	-3842.23	NaN
738	2.000000	1.062888	7.37228e+06	-40189.1	1005.82	-29790.9	0.000000	0.000000	7.064277	9.328297	NaN	0.000000	0.001589	0.001650	28.0819	9.537800	0.001749	5452.14	9.288625	-171.49	9.359946	1.062498	0.004346	0.003956	9.328297	5452.14	0.003063	0.002433	3834.64	100995
738	2.000000	1.064790	7.37228e+06	-40189.1	1005.82	-29790.9	0.000000	0.000000	7.066218	10.2747	NaN	0.000000	0.001538	0.001645	28.0818	11.0677	0.001795	6166.93	7.729857	-172.845	10.0273	1.064574	0.006248	0.006032	10.2747	6166.93	0.004998	0.004132	2486.83	87655.7
738	2.000000	1.066752	7.37228e+06	-40189.1	1005.82	-29790.9	0.000000	0.000000	7.068270	12.4562	NaN	0.000000	0.001539	0.001652	28.0813	13.3431	0.001815	7349.66	7.405759	-172.956	11.3507	1.066481	0.008210	0.007938	12.4562	7349.66	0.006939	0.005974	2085.24	86881.1
738	2.000000	1.068737	7.37228e+06	-40189.1	1005.82	-29790.9	0.000000	0.000000	7.070493	18.2495	NaN	0.000000	0.001531	0.001674	28.0816	15.6942	0.001649	9517.63	8.214774	-178.996	16.8213	1.068372	0.010195	0.009830	18.2495	9517.63	0.008757	0.007832	2329.97	98254.4
738	2.000000	1.070724	7.37228e+06	-40189.1	1005.82	-29790.9	0.000000	0.000000	7.072668	22.8318	NaN	0.000000	0.001534	0.001685	28.0821	18.018	0.001594	11302.3	4.511607	-176.928	21.6658	1.070406	0.012181	0.011864	22.8318	11302.3	0.010666	0.009931	2298.97	103619
738	2.000000	1.072720	7.37228e+06	-40189.1	1005.82	-29790.9	0.000000	0.000000	7.074793	25.9555	NaN	0.000000	0.001530	0.001674	28.0816	20.1924	0.001846	10937.5	9.236872	-178.734	25.0643	1.072502	0.014177	0.013960	25.9555	10937.5	0.012398	0.011970	2168.39	91337.2
738	2.000000	1.074739	7.37228e+06	-40189.1	1005.82	-29790.9	0.000000	0.000000	7.077042	31.5711	NaN	0.000000	0.001578	0.001688	28.0818	22.1853	0.001728	12838	7.833816	-178.484	33.0964	1.074386	0.016196	0.015844	31.5711	12838	0.014352	0.014431	2187.74	97639.1
738	2.000000	1.076704	7.37228e+06	-40189.1	1005.82	-29790.9	0.000000	0.000000	7.079136	34.6862	NaN	0.000000	0.001569	0.001678	28.0815	24.524	0.001880	13042.5	7.330859	-178.449	33.7767	1.076375	0.018162	0.017833	34.6862	13042.5	0.016168	0.016874	2055.6	91733.1
738	2.000000	1.078676	7.37228e+06	-40189.1	1005.82	-29790.9	0.000000	0.000000	7.081188	36.6393	NaN	0.000000	0.001576	0.001693	28.0819	25.2952	0.001830	13820.3	3.537672	-175.753	34.7084	1.078439	0.020134	0.019897	36.6393	13820.3	0.018145	0.019711	1858.82	89936.2
738	2.000000	1.080725	7.37228e+06	-40189.1	1005.82	-29790.9	0.000000	0.000000	7.083437	41.5163	NaN	0.000000	0.001590	0.001675	28.0825	27.7283	0.001754	15812.6	5.843191	-178.963	43.4953	1.080468	0.022182	0.021925	41.5163	15812.6	0.020213	0.022879	1814.64	95513
738	2.000000	1.082737	7.37228e+06	-40189.1	1005.82	-29790.9	0.000000	0.000000	7.085812	50.3597	NaN	0.000000	0.001586	0.001653	28.0815	30.3038	0.001770	17122	6.984931	179.066	50.5501	1.082381	0.024195	0.023838	50.3597	17122	0.021989	0.025764	1954.65	97458.5
738	2.000000	1.084632	7.37228e+06	-40189.1	1005.82	-29790.9	0.000000	0.000000	7.088029	58.1791	NaN	0.000000	0.001556	0.001686	28.0807	31.1778	0.001866	16709.9	3.311589	-176.657	56.7771	1.084334	0.026090	0.025792	58.1791	16709.9	0.023478	0.028305	2055.42	90743.1
738	2.000000	1.086718	7.37228e+06	-40189.1	1005.82	-29790.9	0.000000	0.000000	7.090187	59.9331	NaN	0.000000	0.001550	0.001687	28.081	34.6075	0.001880	18410.7	9.678554	176.561	60.7085	1.086301	0.028176	0.027759	59.9331	18410.7	0.025734	0.032365	1851.77	93498.2
738	2.000000	1.088688	7.37228e+06	-40189.1	1005.82	-29790.9	0.000000	0.000000	7.092474	67.6285	NaN	0.000000	0.001573	0.001650	28.0808	35.5389	0.001771	20065	7.514598	177.625	65.981	1.088322	0.030146	0.029780	67.6285	20065	0.027618	0.035952	1881.08	96683.3
738	2.000000	1.090662	7.37228e+06	-40189.1	1005.82	-29790.9	0.000000	0.000000	7.094842	77.2298	NaN	0.000000	0.001595	0.001633	28.0806	37.6818	0.001842	20457.7	5.485094	179.289	77.4845	1.090374	0.032120	0.031832	77.2298	20457.7	0.029288	0.039282	1966.05	94304.9
738	2.000000	1.092693	7.37228e+06	-40189.1	1005.82	-29790.9	0.000000	0.000000	7.096904	77.9854	NaN	0.000000	0.001583	0.001625	28.0804	38.9749	0.001849	21081.5	3.319262	-179.172	77.6147	1.092452	0.034151	0.033910	77.9854	21081.5	0.031376	0.043645	1786.83	92195.3
738	2.000000	1.094671	7.37228e+06	-40189.1	1005.82	-29790.9	0.000000	0.000000	7.099310	88.4047	NaN	0.000000	0.001578	0.001630	28.0804	41.3141	0.001878	21997.8	6.487841	176.701	88.2658	1.094394	0.036129	0.035851	88.4047	21997.8	0.033114	0.047447	1863.24	92267.8
738	2.000000	1.096647	7.37228e+06	-40189.1	1005.82	-29790.9	0.000000	0.000000	7.101712	98.7547	NaN	0.000000	0.001616	0.001676	28.0804	42.5215	0.001848	23006.5	5.011066	177.433	96.6194	1.096367	0.038105	0.037824	98.7547	23006.5	0.034885	0.051480	1918.33	92641.8
738	2.000000	1.098688	7.37228e+06	-40189.1	1005.82	-29790.9	0.000000	0.000000	7.104156	108.571	NaN	0.000000	0.001618	0.001710	28.0803	43.5022	0.001785	24367.4	6.322049	176.854	108.421	1.098337	0.040146	0.039795	108.571	24367.4	0.036804	0.056029	1937.75	94053.2
738	2.000000	1.100657	7.37228e+06	-40189.1	1005.82	-29790.9	0.000000	0.000000	7.106468	116.914	NaN	0.000000	0.001576	0.001660	28.0805	45.4365	0.001813	25056.2	3.462625	179.095	114.739	1.100333	0.042115	0.041791	116.914	25056.2	0.038615	0.060499	1932.5	93071.1
738	2.000000	1.102718	7.37228e+06	-40189.1	1005.82	-29790.9	0.000000	0.000000	7.108879	125.442	NaN	0.000000	0.001530	0.001654	28.0807	47.4674	0.001754	27065.8	6.043244	176.237	126.128	1.102393	0.044175	0.043850	125.442	27065.8	0.040699	0.065848	1905.02	96365.7
738	2.000000	1.104717	7.37228e+06	-40189.1	1005.82	-29790.9	0.000000	0.000000	7.111290	135.452	NaN	0.000000	0.001551	0.001669	28.0805	49.0169	0.001755	27929.9	5.063498	176.285	136.859	1.104408	0.046175	0.045866	135.452	27929.9	0.042538	0.070751	1914.48	95935
738	2.000000	1.106605	7.37228e+06	-40189.1	1005.82	-29790.9	0.000000	0.000000	7.113805	150.714	NaN	0.000000	0.001522	0.001673	28.0803	50.4375	0.001827	27613.5	0.857297	-179.268	146.801	1.106260	0.048063	0.047718	150.714	27613.5	0.043970	0.074689	2017.88	92313.4
738	2.000000	1.108658	7.37228e+06	-40189.1	1005.82	-29790.9	0.000000	0.000000	7.116171	158.354	NaN	0.000000	0.001534	0.001756	28.0803	52.7968	0.001862	28361.3	6.185752	175.926	157.519	1.108290	0.050115	0.049747	158.354	28361.3	0.045928	0.080243	1973.43	91473.5
738	2.000000	1.110650	7.37228e+06	-40189.1	1005.82	-29790.9	0.000000	0.000000	7.118549	167.747	NaN	0.000000	0.001522	0.001718	28.0809	54.8302	0.001959	27987.9	3.991994	178.102	166.232	1.110260	0.052107	0.051718	167.747	27987.9	0.047612	0.085176	1969.42	87616.4
738	2.000000	1.112619	7.37228e+06	-40189.1	1005.82	-29790.9	0.000000	0.000000	7.121109	182.09	NaN	0.000000	0.001560	0.001709	28.0806	56.6431	0.001817	31172.7	6.382167	174.442	180.383	1.112330	0.054077	0.053788	182.09	31172.7	0.049696	0.091476	1990.57	94165.9
738	2.000000	1.114617	7.37228e+06	-40189.1	1005.82	-29790.9	0.000000	0.000000	7.123159	183.377	NaN	0.000000	0.001544	0.001706	28.0806	57.6104	0.001816	31718.3	4.989720	175.141	181.798	1.114319	0.056075	0.055777	183.377	31718.3	0.051738	0.097862	1873.82	92634.9
738	2.000000	1.116649	7.37228e+06	-40189.1	1005.82	-29790.9	0.000000	0.000000	7.126022	203.598	NaN	0.000000	0.001526	0.001686	28.0804	59.3804	0.001786	33240.1	1.482285	179.19	201.553	1.116391	0.058107	0.057848	203.598	33240.1	0.053513	0.103581	1965.58	94361.4
738	2.000000	1.118591	7.37228e+06	-40189.1	1005.82	-29790.9	0.000000	0.000000	7.128524	217.236	NaN	0.000000	0.001524	0.001647	28.0813	60.4953	0.001752	34528.9	6.278274	173.786	213.025	1.118239	0.060049	0.059697	217.236	34528.9	0.055330	0.109597	1982.13	95291.8
738	2.000000	1.120631	7.37228e+06	-40189.1	1005.82	-29790.9	0.000000	0.000000	7.130972	227.148	NaN	0.000000	0.001585	0.001651	28.0818	62.8915	0.001879	33477.1	4.166176	177.382	224.585	1.120211	0.062089	0.061669	227.148	33477.1	0.057000	0.115270	1970.58	90087.2
738	2.000000	1.122621	7.37228e+06	-40189.1	1005.82	-29790.9	0.000000	0.000000	7.133715	245.493	NaN	0.000000	0.001578	0.001644	28.0817	63.8874	0.001835	34816.2	2.216075	178.256	242.868	1.122187	0.064078	0.063644	245.493	34816.2	0.058790	0.121505	2020.43	91255
738	2.000000	1.124715	7.37228e+06	-40189.1	1005.82	-29790.9	0.000000	0.000000	7.136114	252.911	NaN	0.000000	0.001503	0.001650	28.0818	66.795	0.001689	39549.8	8.112334	170.633	254.835	1.124376	0.066172	0.065833	252.911	39549.8	0.061376	0.130790	1933.72	99914.9
738	2.000000	1.126641	7.37228e+06	-40189.1	1005.82	-29790.9	0.000000	0.000000	7.138811	271.671	NaN	0.000000	0.001513	0.001652	28.0813	69.3965	0.001860	37316.3	4.932691	174.604	270.738	1.126204	0.068098	0.067662	271.671	37316.3	0.062638	0.135438	2005.86	92640.4
738	2.000000	1.128690	7.37228e+06	-40189.1	1005.82	-29790.9	0.000000	0.000000	7.141439	285.758	NaN	0.000000	0.001557	0.001676	28.0815	71.1389	0.001850	38449.2	9.869254	169.355	287.893	1.128306	0.070147	0.069763	285.758	38449.2	0.064573	0.142716	2002.28	92987.3
738	2.000000	1.130589	7.37228e+06	-40189.1	1005.82	-29790.9	0.000000	0.000000	7.143836	297.88	NaN	0.000000	0.001536	0.001668	28.0817	73.0647	0.001972	37060.4	-0.280878	-179.775	296.496	1.130450	0.072046	0.071908	297.88	37060.4	0.066018	0.148268	2009.07	87934.6
738	2.000000	1.132627	7.37228e+06	-40189.1	1005.82	-29790.9	0.000000	0.000000	7.146519	313.568	NaN	0.000000	0.001564	0.001681	28.0815	74.7761	0.001821	41068.4	6.831624	171.811	312.262	1.132309	0.074084	0.073766	313.568	41068.4	0.068358	0.157473	1991.25	94553.7
738	2.000000	1.134645	7.37228e+06	-40189.1	1005.82	-29790.9	0.000000	0.000000	7.149312	332.428	NaN	0.000000	0.001571	0.001711	28.0818	75.7319	0.001855	40828.5	6.343307	172.265	332.618	1.134286	0.076103	0.075743	332.428	40828.5	0.069996	0.164072	2026.11	92091.4
738	2.000000	1.136590	7.37228e+06	-40189.1	1005.82	-29790.9	0.000000	0.000000	7.151992	350.302	NaN	0.000000	0.001556	0.001673	28.082	77.9841	0.001778	43869.7	5.268903	173.407	349.763	1.136286	0.078048	0.077744	350.302	43869.7	0.072059	0.172565	2029.97	96485.4
738	2.000000	1.138742	7.37228e+06	-40189.1	1005.82	-29790.9	0.000000	0.000000	7.154251	352.927	NaN	0.000000	0.001606	0.001645	28.0817	80.0035	0.001858	43062.6	9.869873	168.648	360.074	1.138396	0.080199	0.079854	352.927	43062.6	0.074053	0.180963	1950.27	92486.4
738	2.000000	1.140631	7.37228e+06	-40189.1	1005.82	-29790.9	0.000000	0.000000	7.156834	369.802	NaN	0.000000	0.001600	0.001666	28.082	81.6374	0.001765	46257.8	6.747720	170.803	368.784	1.140301	0.082089	0.081759	369.802	46257.8	0.076093	0.189754	1948.85	97020.4
738	2.000000	1.142562	7.37228e+06	-40189.1	1005.82	-29790.9	0.000000	0.000000	7.159374	384.616	NaN	0.000000	0.001619	0.001676	28.0816	83.6272	0.001794	46624.3	4.257847	173.683	379.263	1.142226	0.084019	0.083684	384.616	46624.3	0.077832	0.197401	1948.4	95876.2
738	2.000000	1.144676	7.37228e+06	-40189.1	1005.82	-29790.9	0.000000	0.000000	7.162218	402.369	NaN	0.000000	0.001611	0.001675	28.0818	85.2557	0.001828	46644.5	4.022864	173.883	405.618	1.144265	0.086134	0.085723	402.369	46644.5	0.079664	0.205608	1956.97	93984.1
738	2.000000	1.146666	7.37228e+06	-40189.1	1005.82	-29790.9	0.000000	0.000000	7.164751	415.583	NaN	0.000000	0.001623	0.001647	28.0817	87.4046	0.001807	48362.6	7.472707	170.607	419.012	1.146275	0.088124	0.087732	415.583	48362.6	0.081679	0.214815	1934.61	95334.7
738	2.000000	1.148596	7.37228e+06	-40189.1	1005.82	-29790.9	0.000000	0.000000	7.167171	427.533	NaN	0.000000	0.001622	0.001644	28.082	87.3366	0.001711	51052.1	4.080641	173.567	428.165	1.148319	0.090053	0.089777	427.533	51052.1	0.083772	0.224580	1903.7	98423.9
738	2.000000	1.150522	7.37228e+06	-40189.1	1005.82	-29790.9	0.000000	0.000000	7.169785	444.25	NaN	0.000000	0.001592	0.001662	28.0823	90.6203	0.001816	49902.5	9.023519	168.642	436.856	1.150223	0.091980	0.091680	444.25	49902.5	0.085303	0.231851	1916.1	94687.1
738	2.000000	1.152619	7.37228e+06	-40189.1	1005.82	-29790.9	0.000000	0.000000	7.172390	456.64	NaN	0.000000	0.001604	0.001651	28.0812	90.9761	0.001782	51057	1.530581	176.081	455.43	1.152314	0.094076	0.093772	456.64	51057	0.087369	0.241830	1888.27	94857.7
738	2.000000	1.154630	7.37228e+06	-40189.1	1005.82	-29790.9	0.000000	0.000000	7.174922	469.296	NaN	0.000000	0.001590	0.001660	28.0807	92.9744	0.001853	50177.5	3.912675	173.315	469.735	1.154395	0.096088	0.095853	469.296	50177.5	0.089073	0.250214	1875.58	91648.6
738	2.000000	1.156617	7.37228e+06	-40189.1	1005.82	-29790.9	0.000000	0.000000	7.177342	479.839	NaN	0.000000	0.001643	0.001680	28.0804	95.9879	0.001860	51603.3	5.236719	171.573	480.415	1.156473	0.098075	0.097931	479.839	51603.3	0.091101	0.260363	1842.96	92397.7
738	2.000000	1.158592	7.37228e+06	-40189.1	1005.82	-29790.9	0.000000	0.000000	7.180637	511.947	NaN	0.000000	0.001570	0.001699	28.0808	96.4062	0.001806	53385.7	6.117005	171.151	511.828	1.158179	0.100050	0.099637	511.947	53385.7	0.092858	0.269307	1900.98	93988.3
738	2.000000	1.160025	7.37228e+06	-40189.1	1005.82	-29790.9	0.000000	0.000000	7.182057	511.636	NaN	0.000000	0.001624	0.001657	28.0804	98.1691	0.001788	54889.3	6.541655	-10.1031	504.606	1.159789	0.101483	0.101246	511.636	54889.3	0.094492	0.277753	1842.06	95155