File: remote_trans/data/nanoindenter/0828-1/data/Data_2025-08-06,11h17m57s/2025-07-22_16-23-58_1_803.txt
2025-07-22, 16:23:58, 1
Index	Phase	Displacement	Time	Pos X	Pos Y	Pos Z	Rot A	Rot B	Piezo Z	Force A	Force B	Gripper	Voltage A	Voltage B	Temperature	Amplitude force	Amplitude pos	Stiffness	Phase shift	Phase excitation	Force A raw	Displacement raw	HMax	HMax raw	Real Force	Real Stiffness	Contact Depth	Area	Hardness	Reduced Mod.
[#]	[#]	[um]	[s]	[um]	[um]	[um]	[m°]	[m°]	[um]	[uN]	[uN]	[V]	[V]	[V]	[°C]	[uN]	[um]	[N/m]	[°]	[°]	[uN]	[um]	[um]	[um]	[uN]	[N/m]	[um]	[um^2]	[MPa]	[MPa]
803	1.000000	0.003166	7.37291e+06	-40289.1	1055.82	-29790.5	0.000000	0.000000	6.002802	0.027301	NaN	0.000000	0.001687	0.001707	28.0815	0.016921	0.000985	17.1834	-144.955	-169.769	0.061243	0.001894	-1.146756	-1.148028	0.027301	17.1834	-1.147947	-2.204446E+15	-1.238447E-17	NaN
803	1.000000	0.013205	7.37291e+06	-40289.1	1055.82	-29790.5	0.000000	0.000000	6.012840	0.008301	NaN	0.000000	0.001662	0.001716	28.0818	0.110418	0.001232	89.6029	50.4566	16.688	0.018019	0.011762	-1.136717	-1.138160	0.008301	89.6029	-1.136786	-1.561857E+15	-5.314843E-18	NaN
803	1.000000	0.023128	7.37291e+06	-40289.1	1055.82	-29790.5	0.000000	0.000000	6.022766	0.082143	NaN	0.000000	0.001642	0.001717	28.0812	0.077390	0.001664	46.4966	120.803	-164.228	-0.008521	0.021804	-1.126794	-1.128118	0.082143	46.4966	-1.128119	-1.195062E+15	-6.873539E-17	NaN
803	1.000000	0.033136	7.37291e+06	-40289.1	1055.82	-29790.5	0.000000	0.000000	6.032771	0.002854	NaN	0.000000	0.001675	0.001696	28.0825	0.031144	0.001830	17.016	-18.1797	15.469	-0.049804	0.031783	-1.116785	-1.118139	0.002854	17.016	-1.116911	-8.453324E+14	-3.375782E-18	NaN
803	1.000000	0.043143	7.37291e+06	-40289.1	1055.82	-29790.5	0.000000	0.000000	6.042778	-0.008063	NaN	0.000000	0.001621	0.001714	28.0823	0.022282	0.001937	11.5057	-171.157	-161.855	-0.086055	0.041857	-1.106778	-1.108065	-0.008063	11.5057	-1.106253	-6.081283E+14	1.325895E-17	NaN
803	1.000000	0.053145	7.37291e+06	-40289.1	1055.82	-29790.5	0.000000	0.000000	6.052779	-0.005698	NaN	0.000000	0.001602	0.001709	28.0829	0.086950	0.001984	43.8358	62.6616	12.4041	0.001484	0.051738	-1.096777	-1.098184	-0.005698	43.8358	-1.096680	-4.523689E+14	1.259565E-17	NaN
803	1.000000	0.063114	7.37291e+06	-40289.1	1055.82	-29790.5	0.000000	0.000000	6.062751	0.061432	NaN	0.000000	0.001592	0.001712	28.0824	0.085706	0.001923	44.5792	131.637	-167.588	0.058567	0.061799	-1.086808	-1.088122	0.061432	44.5792	-1.087841	-3.442121E+14	-1.784715E-16	NaN
803	1.000000	0.073132	7.37291e+06	-40289.1	1055.82	-29790.5	0.000000	0.000000	6.072768	0.033109	NaN	0.000000	0.001612	0.001698	28.0827	0.018004	0.002045	8.805759	-140.002	18.1487	0.029786	0.071784	-1.076790	-1.078138	0.033109	8.805759	-1.079610	-2.668554E+14	-1.240721E-16	NaN
803	1.000000	0.083112	7.37291e+06	-40289.1	1055.82	-29790.5	0.000000	0.000000	6.082744	-0.054897	NaN	0.000000	0.001620	0.001717	28.0823	0.101883	0.002043	49.8615	-99.5049	-166.558	-0.114665	0.081797	-1.066809	-1.068125	-0.054897	49.8615	-1.065984	-1.750766E+14	3.135627E-16	NaN
803	1.000000	0.093146	7.37291e+06	-40289.1	1055.82	-29790.5	0.000000	0.000000	6.092781	0.020559	NaN	0.000000	0.001643	0.001729	28.0827	0.106900	0.002087	51.2269	-94.3141	14.1546	-0.000325	0.091766	-1.056776	-1.058155	0.020559	51.2269	-1.057077	-1.329049E+14	-1.546906E-16	NaN
803	1.000000	0.103131	7.37291e+06	-40289.1	1055.82	-29790.5	0.000000	0.000000	6.102763	-0.044483	NaN	0.000000	0.001601	0.001690	28.0826	0.078232	0.002055	38.0655	-78.9771	-165.748	0.024980	0.101809	-1.046791	-1.048113	-0.044483	38.0655	-1.045915	-9.407863E+13	4.728300E-16	NaN
803	1.000000	0.113130	7.37291e+06	-40289.1	1055.82	-29790.5	0.000000	0.000000	6.112763	-0.017677	NaN	0.000000	0.001606	0.001686	28.0825	0.057543	0.002038	28.2366	-127.69	12.4901	0.033446	0.111732	-1.036792	-1.038190	-0.017677	28.2366	-1.036323	-6.990615E+13	2.528691E-16	NaN
803	1.000000	0.123144	7.37291e+06	-40289.1	1055.82	-29790.4	0.000000	0.000000	6.122777	-0.030319	NaN	0.000000	0.001598	0.001712	28.0826	0.063711	0.001945	32.7489	-9.465600	-166.685	-0.002862	0.121807	-1.026777	-1.028114	-0.030319	32.7489	-1.026083	-5.090863E+13	5.955635E-16	NaN
803	1.000000	0.133138	7.37291e+06	-40289.1	1055.82	-29790.4	0.000000	0.000000	6.132773	0.011229	NaN	0.000000	0.001594	0.001697	28.0826	0.110115	0.001976	55.7195	-53.0048	15.4381	-0.006842	0.131770	-1.016784	-1.018152	0.011229	55.7195	-1.016935	-3.834485E+13	-2.928340E-16	NaN
803	1.000000	0.143160	7.37291e+06	-40289.1	1055.82	-29790.4	0.000000	0.000000	6.142794	-0.002115	NaN	0.000000	0.001595	0.001706	28.0828	0.017333	0.002002	8.656605	-38.5914	-165.397	-0.072376	0.141839	-1.006762	-1.008083	-0.002115	8.656605	-1.006579	-2.781827E+13	7.604479E-17	NaN
803	1.000000	0.153184	7.37291e+06	-40289.1	1055.82	-29790.4	0.000000	0.000000	6.152818	-0.002365	NaN	0.000000	0.001570	0.001695	28.0825	0.136374	0.002107	64.7238	6.811388	15.7694	0.077070	0.151818	-0.996738	-0.998104	-0.002365	64.7238	-0.996710	-2.048693E+13	1.154456E-16	NaN
803	1.000000	0.163134	7.37291e+06	-40289.1	1055.82	-29790.4	0.000000	0.000000	6.162768	-0.015265	NaN	0.000000	0.001569	0.001684	28.0822	0.112845	0.001845	61.1687	150.732	-165.182	-0.027924	0.161851	-0.986788	-0.988071	-0.015265	61.1687	-0.986601	-1.497357E+13	1.019434E-15	NaN
803	1.000000	0.173193	7.37291e+06	-40289.1	1055.82	-29790.4	0.000000	0.000000	6.172827	-0.007156	NaN	0.000000	0.001559	0.001707	28.0814	0.052384	0.001843	28.4275	-66.5943	12.0868	-0.036589	0.171786	-0.976729	-0.978136	-0.007156	28.4275	-0.976540	-1.095962E+13	6.529036E-16	NaN
803	1.000000	0.183188	7.37291e+06	-40289.1	1055.82	-29790.4	0.000000	0.000000	6.182822	-0.021092	NaN	0.000000	0.001588	0.001675	28.082	0.062097	0.001899	32.6913	-152.788	-170.443	0.011180	0.181871	-0.966734	-0.968051	-0.021092	32.6913	-0.966250	-7.963773E+12	2.648493E-15	NaN
803	1.000000	0.193190	7.37291e+06	-40289.1	1055.82	-29790.4	0.000000	0.000000	6.192823	-0.034949	NaN	0.000000	0.001603	0.001718	28.0814	0.055598	0.002031	27.3755	86.4445	12.1188	-0.059626	0.191836	-0.956732	-0.958085	-0.034949	27.3755	-0.955775	-5.753061E+12	6.074777E-15	NaN
803	1.000000	0.203182	7.37291e+06	-40289.1	1055.82	-29790.4	0.000000	0.000000	6.202816	-0.012639	NaN	0.000000	0.001641	0.001743	28.0815	0.032777	0.002049	15.9957	105.413	-169.152	-0.005904	0.201825	-0.946739	-0.948097	-0.012639	15.9957	-0.946147	-4.266364E+12	2.962589E-15	NaN
803	1.000000	0.213188	7.37291e+06	-40289.1	1055.82	-29790.4	0.000000	0.000000	6.212822	0.001206	NaN	0.000000	0.001586	0.001775	28.0817	0.055892	0.001970	28.3643	25.8266	13.3871	-0.098518	0.211817	-0.936734	-0.938105	0.001206	28.3643	-0.936766	-3.187868E+12	-3.784586E-16	NaN
803	1.000000	0.223174	7.37291e+06	-40289.1	1055.82	-29790.4	0.000000	0.000000	6.222809	0.011949	NaN	0.000000	0.001563	0.001739	28.0816	0.010428	0.002064	5.051899	106.423	-164.506	0.033519	0.221849	-0.926748	-0.928072	0.011949	5.051899	-0.928522	-2.467456E+12	-4.842743E-15	NaN
803	1.000000	0.233191	7.37291e+06	-40289.1	1055.82	-29790.4	0.000000	0.000000	6.232824	-0.024589	NaN	0.000000	0.001570	0.001714	28.0815	0.078910	0.001952	40.4301	69.3472	17.5225	-0.101366	0.231848	-0.916731	-0.918074	-0.024589	40.4301	-0.916275	-1.686193E+12	1.458272E-14	NaN
803	1.000000	0.243202	7.37291e+06	-40289.1	1055.82	-29790.4	0.000000	0.000000	6.242838	0.025589	NaN	0.000000	0.001591	0.001671	28.0814	0.089767	0.001865	48.142	145.796	-168.507	-0.024254	0.241841	-0.906719	-0.908080	0.025589	48.142	-0.907118	-1.268330E+12	-2.017519E-14	NaN
803	1.000000	0.253191	7.37291e+06	-40289.1	1055.82	-29790.4	0.000000	0.000000	6.252826	0.009757	NaN	0.000000	0.001582	0.001704	28.0814	0.069371	0.001977	35.0929	-165.079	17.3795	0.025940	0.251853	-0.896731	-0.898068	0.009757	35.0929	-0.896939	-9.240688E+11	-1.055902E-14	NaN
803	1.000000	0.263184	7.37291e+06	-40289.1	1055.82	-29790.4	0.000000	0.000000	6.262818	-0.004415	NaN	0.000000	0.001592	0.001717	28.0814	0.104660	0.002000	52.3247	145.651	-166.452	0.005640	0.261897	-0.886738	-0.888025	-0.004415	52.3247	-0.886675	-6.713649E+11	6.576327E-15	NaN
803	1.000000	0.273212	7.37291e+06	-40289.1	1055.82	-29790.4	0.000000	0.000000	6.272847	0.032370	NaN	0.000000	0.001553	0.001699	28.0814	0.028004	0.002028	13.8097	-167.11	11.5148	0.061220	0.271883	-0.876710	-0.878039	0.032370	13.8097	-0.878468	-5.199860E+11	-6.225145E-14	NaN
803	1.000000	0.283206	7.37291e+06	-40289.1	1055.82	-29790.4	0.000000	0.000000	6.282840	-0.009765	NaN	0.000000	0.001535	0.001720	28.0814	0.015335	0.002007	7.642579	-89.6354	-163.093	0.054846	0.281943	-0.866716	-0.867979	-0.009765	7.642579	-0.865758	-3.499787E+11	2.790201E-14	NaN
803	1.000000	0.293242	7.37291e+06	-40289.1	1055.82	-29790.4	0.000000	0.000000	6.292873	-0.089128	NaN	0.000000	0.001528	0.001684	28.0816	0.044104	0.002099	21.0117	-98.7769	12.3154	-0.025171	0.291851	-0.856680	-0.858070	-0.089128	21.0117	-0.853498	-2.388408E+11	3.731685E-13	NaN
803	1.000000	0.303207	7.37291e+06	-40289.1	1055.82	-29790.4	0.000000	0.000000	6.302843	0.036509	NaN	0.000000	0.001566	0.001717	28.0828	0.078928	0.002080	37.9483	-90.7672	-166.842	0.100978	0.301930	-0.846715	-0.847992	0.036509	37.9483	-0.847436	-1.977067E+11	-1.846619E-13	NaN
803	1.000000	0.313239	7.37291e+06	-40289.1	1055.82	-29790.4	0.000000	0.000000	6.312874	0.008690	NaN	0.000000	0.001534	0.001698	28.0827	0.060345	0.002002	30.1424	-32.9496	13.2688	-0.057174	0.311885	-0.836683	-0.838037	0.008690	30.1424	-0.836899	-1.423235E+11	-6.105865E-14	NaN
803	1.000000	0.323205	7.37291e+06	-40289.1	1055.82	-29790.4	0.000000	0.000000	6.322841	0.042675	NaN	0.000000	0.001556	0.001688	28.0826	0.104492	0.001958	53.3789	104.028	-166.591	0.036116	0.321975	-0.826717	-0.827947	0.042675	53.3789	-0.827316	-1.055375E+11	-4.043582E-13	NaN
803	1.000000	0.333198	7.37291e+06	-40289.1	1055.82	-29790.4	0.000000	0.000000	6.332833	0.029087	NaN	0.000000	0.001556	0.001712	28.0826	0.053249	0.002068	25.7446	23.9645	17.6064	-0.021010	0.331858	-0.816724	-0.818064	0.029087	25.7446	-0.817571	-7.785316E+10	-3.736183E-13	NaN
803	1.000000	0.343233	7.37291e+06	-40289.1	1055.82	-29790.4	0.000000	0.000000	6.342868	0.010313	NaN	0.000000	0.001558	0.001743	28.0828	0.030245	0.001978	15.2938	-179.417	-165.502	0.023389	0.341915	-0.806689	-0.808007	0.010313	15.2938	-0.807194	-5.629954E+10	-1.831826E-13	NaN
803	1.000000	0.353218	7.37291e+06	-40289.1	1055.82	-29790.4	0.000000	0.000000	6.352853	0.004663	NaN	0.000000	0.001523	0.001761	28.0826	0.062763	0.002049	30.6296	-164.939	15.6958	0.058588	0.351903	-0.796703	-0.798019	0.004663	30.6296	-0.796818	-4.070620E+10	-1.145478E-13	NaN
803	1.000000	0.363253	7.37291e+06	-40289.1	1055.82	-29790.4	0.000000	0.000000	6.362890	0.061628	NaN	0.000000	0.001515	0.001729	28.0825	0.098891	0.002013	49.1188	-155.136	-165.935	-0.001158	0.361974	-0.786669	-0.787947	0.061628	49.1188	-0.787610	-3.052239E+10	-2.019112E-12	NaN
803	1.000000	0.373228	7.37291e+06	-40289.1	1055.82	-29790.4	0.000000	0.000000	6.372863	-0.006146	NaN	0.000000	0.001550	0.001690	28.0828	0.076875	0.001870	41.1048	-108.503	13.9991	0.023121	0.371911	-0.776693	-0.778010	-0.006146	41.1048	-0.776581	-2.161570E+10	2.843470E-13	NaN
803	1.000000	0.383255	7.37291e+06	-40289.1	1055.82	-29790.4	0.000000	0.000000	6.382888	-0.021648	NaN	0.000000	0.001565	0.001687	28.0828	0.065329	0.001933	33.7992	-138.957	-168.347	-0.023386	0.381951	-0.766667	-0.767970	-0.021648	33.7992	-0.766187	-1.561173E+10	1.386650E-12	NaN
803	1.000000	0.393223	7.37291e+06	-40289.1	1055.82	-29790.4	0.000000	0.000000	6.392854	-0.097558	NaN	0.000000	0.001597	0.001687	28.0827	0.072248	0.001927	37.4857	38.2164	9.867380	-0.059526	0.391905	-0.756698	-0.758017	-0.097558	37.4857	-0.754746	-1.090989E+10	8.942142E-12	NaN
803	1.000000	0.403267	7.37291e+06	-40289.1	1055.82	-29790.4	0.000000	0.000000	6.402902	0.013201	NaN	0.000000	0.001604	0.001683	28.0824	0.056887	0.001844	30.8422	31.7004	-169.138	0.035005	0.401899	-0.746655	-0.748023	0.013201	30.8422	-0.746976	-8.551616E+9	-1.543672E-12	NaN
803	1.000000	0.413266	7.37291e+06	-40289.1	1055.82	-29790.4	0.000000	0.000000	6.412902	0.036990	NaN	0.000000	0.001576	0.001702	28.0828	0.110386	0.002009	54.9474	-22.1897	14.6073	0.051642	0.411895	-0.736656	-0.738027	0.036990	54.9474	-0.737161	-6.286126E+9	-5.884461E-12	NaN
803	1.000000	0.423274	7.37291e+06	-40289.1	1055.82	-29790.4	0.000000	0.000000	6.422906	-0.039314	NaN	0.000000	0.001572	0.001729	28.0825	0.076660	0.001968	38.9515	163.816	-167.939	0.002881	0.421929	-0.726648	-0.727993	-0.039314	38.9515	-0.725891	-4.413677E+9	8.907294E-12	NaN
803	1.000000	0.433285	7.37291e+06	-40289.1	1055.82	-29790.4	0.000000	0.000000	6.432919	-0.004748	NaN	0.000000	0.001588	0.001690	28.0826	0.083602	0.001963	42.5932	138.422	13.7841	-0.044006	0.431880	-0.716637	-0.718042	-0.004748	42.5932	-0.716554	-3.292044E+9	1.442248E-12	NaN
803	1.000000	0.443280	7.37291e+06	-40289.1	1055.82	-29790.4	0.000000	0.000000	6.442913	-0.028387	NaN	0.000000	0.001602	0.001696	28.0812	0.082954	0.002110	39.314	24.1579	-166.899	-0.069769	0.441944	-0.706642	-0.707978	-0.028387	39.314	-0.706100	-2.370380E+9	1.197581E-11	NaN
803	1.000000	0.453254	7.37291e+06	-40289.1	1055.82	-29790.4	0.000000	0.000000	6.452891	0.047440	NaN	0.000000	0.001579	0.001686	28.0813	0.021889	0.001959	11.1715	10.0116	11.8436	0.011610	0.451928	-0.696668	-0.697994	0.047440	11.1715	-0.699852	-1.947670E+9	-2.435707E-11	NaN
803	1.000000	0.463307	7.37291e+06	-40289.1	1055.82	-29790.4	0.000000	0.000000	6.462943	0.026015	NaN	0.000000	0.001586	0.001673	28.0812	0.034253	0.001978	17.32	89.3643	-166.261	0.035609	0.461930	-0.686615	-0.687991	0.026015	17.32	-0.687741	-1.330595E+9	-1.955176E-11	NaN
803	1.000000	0.473302	7.37291e+06	-40289.1	1055.82	-29790.4	0.000000	0.000000	6.472937	0.007905	NaN	0.000000	0.001547	0.001699	28.0812	0.015526	0.002054	7.557806	-83.7736	15.4504	0.051828	0.471901	-0.676619	-0.678021	0.007905	7.557806	-0.677404	-9.609393E+8	-8.226429E-12	NaN
803	1.000000	0.483292	7.37291e+06	-40289.1	1055.82	-29790.4	0.000000	0.000000	6.482926	-0.011268	NaN	0.000000	0.001595	0.001665	28.0814	0.088291	0.001926	45.8374	-57.9955	-164.657	-0.039319	0.481994	-0.666630	-0.667927	-0.011268	45.8374	-0.666446	-6.803527E+8	1.656151E-11	NaN
803	1.000000	0.493338	7.37291e+06	-40289.1	1055.82	-29790.4	0.000000	0.000000	6.492972	-0.016735	NaN	0.000000	0.001581	0.001669	28.0812	0.076537	0.001968	38.8993	-42.3568	17.313	0.003983	0.491956	-0.656584	-0.657966	-0.016735	38.8993	-0.656261	-4.934528E+8	3.391398E-11	NaN
803	1.000000	0.503315	7.37291e+06	-40289.1	1055.82	-29790.4	0.000000	0.000000	6.502951	0.058148	NaN	0.000000	0.001590	0.001692	28.0814	0.059663	0.001891	31.5577	53.9457	-161.194	0.036251	0.502021	-0.646607	-0.647900	0.058148	31.5577	-0.647989	-3.800729E+8	-1.529906E-10	NaN
803	1.000000	0.513289	7.37291e+06	-40289.1	1055.82	-29790.4	0.000000	0.000000	6.512922	-0.028218	NaN	0.000000	0.001591	0.001668	28.0812	0.066027	0.002057	32.1049	71.9332	14.0811	-0.045421	0.511926	-0.636633	-0.637996	-0.028218	32.1049	-0.635974	-2.600400E+8	1.085135E-10	NaN
803	1.000000	0.523332	7.37291e+06	-40289.1	1055.82	-29790.4	0.000000	0.000000	6.522968	0.026185	NaN	0.000000	0.001551	0.001731	28.0815	0.064325	0.002044	31.4641	65.6931	-165.2	-0.015057	0.522005	-0.626590	-0.627917	0.026185	31.4641	-0.627214	-1.971311E+8	-1.328279E-10	NaN
803	1.000000	0.533291	7.37291e+06	-40289.1	1055.82	-29790.4	0.000000	0.000000	6.532926	0.005950	NaN	0.000000	0.001582	0.001711	28.0814	0.051391	0.002068	24.8492	-143.183	17.198	0.043728	0.531962	-0.616630	-0.617960	0.005950	24.8492	-0.616810	-1.418327E+8	-4.194880E-11	NaN
803	1.000000	0.543292	7.37291e+06	-40289.1	1055.82	-29790.4	0.000000	0.000000	6.542923	-0.073892	NaN	0.000000	0.001612	0.001661	28.0815	0.019034	0.001961	9.704626	151.416	-164.804	-0.069755	0.542026	-0.606630	-0.607895	-0.073892	9.704626	-0.600919	-8.572800E+7	8.619314E-10	NaN
803	1.000000	0.553349	7.37291e+06	-40289.1	1055.82	-29790.4	0.000000	0.000000	6.552984	0.004625	NaN	0.000000	0.001612	0.001653	28.0816	0.046495	0.001894	24.5466	-19.6867	14.6877	0.008089	0.551990	-0.596573	-0.597931	0.004625	24.5466	-0.596714	-7.502325E+7	-6.165144E-11	NaN
803	1.000000	0.563343	7.37291e+06	-40289.1	1055.82	-29790.4	0.000000	0.000000	6.562976	-0.017243	NaN	0.000000	0.001700	0.001662	28.0812	0.108947	0.002067	52.7025	-16.9884	-167.499	0.006608	0.562004	-0.586579	-0.587917	-0.017243	52.7025	-0.586334	-5.396467E+7	3.195197E-10	NaN
803	1.000000	0.573338	7.37291e+06	-40289.1	1055.82	-29790.4	0.000000	0.000000	6.572972	0.011802	NaN	0.000000	0.001619	0.001695	28.0824	0.074184	0.002091	35.4765	160.921	9.141618	-0.048424	0.571986	-0.576584	-0.577936	0.011802	35.4765	-0.576834	-3.990407E+7	-2.957708E-10	NaN
803	1.000000	0.583348	7.37291e+06	-40289.1	1055.82	-29790.4	0.000000	0.000000	6.582983	-0.000871	NaN	0.000000	0.001625	0.001682	28.0826	0.100623	0.002101	47.8859	174.274	-164.875	-0.057016	0.581995	-0.566573	-0.567927	-0.000871	47.8859	-0.566560	-2.877977E+7	3.025486E-11	NaN
803	1.000000	0.593340	7.37291e+06	-40289.1	1055.82	-29790.4	0.000000	0.000000	6.592973	-0.023501	NaN	0.000000	0.001605	0.001680	28.0828	0.148566	0.001906	77.9331	-64.5289	12.846	0.012701	0.591982	-0.556582	-0.557940	-0.023501	77.9331	-0.556356	-2.079472E+7	1.130141E-9	NaN
803	1.000000	0.603341	7.37291e+06	-40289.1	1055.82	-29790.4	0.000000	0.000000	6.602977	0.024732	NaN	0.000000	0.001604	0.001654	28.0824	0.105820	0.001982	53.377	-107.399	-165.638	0.030479	0.602094	-0.546580	-0.547828	0.024732	53.377	-0.546928	-1.539561E+7	-1.606443E-9	NaN
803	1.000000	0.613353	7.37291e+06	-40289.1	1055.82	-29790.4	0.000000	0.000000	6.612987	-0.016370	NaN	0.000000	0.001648	0.001688	28.0826	0.046384	0.002164	21.4358	105.485	12.5904	0.010504	0.611942	-0.536568	-0.537979	-0.016370	21.4358	-0.535996	-1.085946E+7	1.507431E-9	NaN
803	1.000000	0.623367	7.37291e+06	-40289.1	1055.82	-29790.4	0.000000	0.000000	6.623002	0.021569	NaN	0.000000	0.001665	0.001720	28.0826	0.084120	0.002026	41.5232	29.092	-166.151	0.035980	0.622029	-0.526555	-0.527893	0.021569	41.5232	-0.526944	-8.13075e+06	-2.652771E-9	NaN
803	1.000000	0.633374	7.37291e+06	-40289.1	1055.82	-29790.4	0.000000	0.000000	6.633009	-0.007761	NaN	0.000000	0.001659	0.001692	28.0826	0.041553	0.001961	21.1914	-105.631	15.1498	-0.005222	0.631994	-0.516547	-0.517928	-0.007761	21.1914	-0.516273	-5.77755e+06	1.343246E-9	NaN
803	1.000000	0.643374	7.37291e+06	-40289.1	1055.82	-29790.4	0.000000	0.000000	6.643011	0.069011	NaN	0.000000	0.001600	0.001722	28.0824	0.040385	0.002063	19.5783	127.469	-164.882	0.030777	0.642045	-0.506548	-0.507876	0.069011	19.5783	-0.509191	-4.60414e+06	-1.498882E-8	NaN
803	1.000000	0.653374	7.37291e+06	-40289.1	1055.82	-29790.4	0.000000	0.000000	6.653008	0.001026	NaN	0.000000	0.001678	0.001701	28.0825	0.137106	0.002014	68.0903	105.775	14.4101	-0.048118	0.651993	-0.496548	-0.497929	0.001026	68.0903	-0.496559	-3.06906e+06	-3.342291E-10	NaN
803	1.000000	0.663357	7.37291e+06	-40289.1	1055.82	-29790.4	0.000000	0.000000	6.662993	0.054528	NaN	0.000000	0.001647	0.001688	28.0828	0.071812	0.001979	36.2885	-124.613	-164.576	-0.044148	0.662050	-0.486565	-0.487872	0.054528	36.2885	-0.487692	-2.30747e+06	-2.363115E-8	NaN
803	1.000000	0.673372	7.37291e+06	-40289.1	1055.82	-29790.4	0.000000	0.000000	6.673005	-0.017663	NaN	0.000000	0.001638	0.001673	28.0824	0.019030	0.002010	9.468339	-7.488524	14.6032	-0.023336	0.671976	-0.476550	-0.477946	-0.017663	9.468339	-0.475151	-1.54034e+06	1.146693E-8	NaN
803	1.000000	0.683366	7.37291e+06	-40289.1	1055.82	-29790.4	0.000000	0.000000	6.683004	0.083212	NaN	0.000000	0.001677	0.001701	28.0827	0.052202	0.002012	25.9422	-142.943	-167.927	0.033735	0.682094	-0.466556	-0.467828	0.083212	25.9422	-0.468962	-1.26137e+06	-6.596939E-8	NaN
803	1.000000	0.693385	7.37291e+06	-40289.1	1055.82	-29790.4	0.000000	0.000000	6.693019	-0.018805	NaN	0.000000	0.001611	0.001692	28.0827	0.057785	0.001964	29.427	143.411	13.3252	-0.078510	0.691985	-0.456536	-0.457937	-0.018805	29.427	-0.456057	-830974	2.262968E-8	NaN
803	1.000000	0.703389	7.37291e+06	-40289.1	1055.82	-29790.4	0.000000	0.000000	6.703021	-0.055744	NaN	0.000000	0.001641	0.001715	28.083	0.019183	0.001872	10.2471	-36.3194	-165.75	-0.085598	0.702072	-0.446533	-0.447850	-0.055744	10.2471	-0.442453	-534526	1.042870E-7	NaN
803	1.000000	0.713381	7.37291e+06	-40289.1	1055.82	-29790.4	0.000000	0.000000	6.713014	-0.041783	NaN	0.000000	0.001642	0.001701	28.0814	0.077250	0.002076	37.2042	32.7113	10.5422	0.004112	0.712026	-0.436541	-0.437896	-0.041783	37.2042	-0.435699	-429165	9.735766E-8	NaN
803	1.000000	0.723389	7.37291e+06	-40289.1	1055.82	-29790.4	0.000000	0.000000	6.723022	-0.025597	NaN	0.000000	0.001620	0.001712	28.0814	0.052238	0.002104	24.8241	-32.1768	-163.899	-0.093390	0.722087	-0.426533	-0.427834	-0.025597	24.8241	-0.425759	-310482	8.244257E-8	NaN
803	1.000000	0.733406	7.37291e+06	-40289.1	1055.82	-29790.4	0.000000	0.000000	6.733039	-0.024420	NaN	0.000000	0.001652	0.001708	28.0814	0.073710	0.002068	35.6446	163.352	13.7968	-0.053793	0.732132	-0.416516	-0.417790	-0.024420	35.6446	-0.416002	-225781	1.081594E-7	NaN
803	1.000000	0.743429	7.37291e+06	-40289.1	1055.82	-29790.4	0.000000	0.000000	6.743064	0.019266	NaN	0.000000	0.001632	0.001735	28.0814	0.069292	0.001988	34.851	127.057	-164.06	-0.010705	0.742109	-0.406493	-0.407813	0.019266	34.851	-0.406908	-167651	-1.149167E-7	NaN
803	1.000000	0.753411	7.37291e+06	-40289.1	1055.82	-29790.4	0.000000	0.000000	6.753044	-0.027239	NaN	0.000000	0.001666	0.001773	28.0813	0.029331	0.001850	15.8566	-0.462186	15.0134	-0.072140	0.752010	-0.396511	-0.397912	-0.027239	15.8566	-0.395222	-114238	2.384380E-7	NaN
803	1.000000	0.763437	7.37291e+06	-40289.1	1055.82	-29790.4	0.000000	0.000000	6.763071	-0.020571	NaN	0.000000	0.001654	0.001719	28.0814	0.041668	0.001902	21.9073	167.624	-164.363	-0.028573	0.762061	-0.386485	-0.387860	-0.020571	21.9073	-0.385780	-83708.1	2.457439E-7	NaN
803	1.000000	0.773397	7.37291e+06	-40289.1	1055.82	-29790.4	0.000000	0.000000	6.773030	-0.028178	NaN	0.000000	0.001659	0.001710	28.0817	0.040908	0.001891	21.6367	163.03	15.0078	0.018265	0.772048	-0.376525	-0.377874	-0.028178	21.6367	-0.375548	-59696.1	4.720263E-7	NaN
803	1.000000	0.783422	7.37291e+06	-40289.1	1055.82	-29790.4	0.000000	0.000000	6.783057	0.011946	NaN	0.000000	0.001626	0.001683	28.0815	0.006218	0.002044	3.041695	-8.628881	-167.294	-0.007289	0.782077	-0.366500	-0.367844	0.011946	3.041695	-0.369446	-48768.8	-2.449549E-7	NaN
803	1.000000	0.793419	7.37291e+06	-40289.1	1055.82	-29790.4	0.000000	0.000000	6.793054	0.010908	NaN	0.000000	0.001629	0.001702	28.0814	0.058379	0.001964	29.7222	-119.051	13.7528	0.082704	0.792101	-0.356503	-0.357820	0.010908	29.7222	-0.356778	-32006.4	-3.408123E-7	NaN
803	1.000000	0.803439	7.37291e+06	-40289.1	1055.82	-29790.4	0.000000	0.000000	6.803071	-0.052772	NaN	0.000000	0.001649	0.001700	28.0814	0.050454	0.002003	25.184	-69.8056	-167.029	0.036685	0.802060	-0.346483	-0.347862	-0.052772	25.184	-0.344911	-21530.9	2.450997E-6	NaN
803	1.000000	0.813426	7.37291e+06	-40289.1	1055.82	-29790.4	0.000000	0.000000	6.813061	0.003483	NaN	0.000000	0.001677	0.001689	28.0821	0.045710	0.001972	23.1854	78.6177	12.8036	0.034766	0.812116	-0.336496	-0.337806	0.003483	23.1854	-0.336608	-16295.8	-2.137296E-7	NaN
803	1.000000	0.823440	7.37291e+06	-40289.1	1055.82	-29790.4	0.000000	0.000000	6.823079	0.100320	NaN	0.000000	0.001717	0.001687	28.0814	0.058656	0.002089	28.0763	61.1077	-165.778	0.054562	0.822058	-0.326481	-0.327864	0.100320	28.0763	-0.329161	-12681.3	-7.910896E-6	NaN
803	1.000000	0.833416	7.37291e+06	-40289.1	1055.82	-29790.4	0.000000	0.000000	6.833050	-0.014699	NaN	0.000000	0.001666	0.001690	28.0812	0.004756	0.002021	2.353580	2.707928	12.9966	-0.052566	0.832029	-0.316505	-0.317893	-0.014699	2.353580	-0.311821	-7046.84	2.085935E-6	NaN
803	1.000000	0.843477	7.37291e+06	-40289.1	1055.82	-29790.4	0.000000	0.000000	6.843111	-0.013428	NaN	0.000000	0.001672	0.001701	28.0815	0.020176	0.002047	9.854122	19.1017	-167.407	-0.077820	0.842166	-0.306445	-0.307756	-0.013428	9.854122	-0.305423	-5665.34	2.370153E-6	NaN
803	1.000000	0.853424	7.37291e+06	-40289.1	1055.82	-29790.4	0.000000	0.000000	6.853055	-0.063889	NaN	0.000000	0.001664	0.001707	28.0826	0.035303	0.002061	17.128	88.8247	14.2632	-0.122185	0.852121	-0.296498	-0.297800	-0.063889	17.128	-0.293701	-3790.32	1.685588E-5	NaN
803	1.000000	0.863451	7.37291e+06	-40289.1	1055.82	-29790.4	0.000000	0.000000	6.863084	-0.020921	NaN	0.000000	0.001637	0.001641	28.0827	0.024700	0.002022	12.2127	-84.0351	-163.774	0.089542	0.862157	-0.286471	-0.287765	-0.020921	12.2127	-0.285186	-2825.32	7.404941E-6	NaN
803	1.000000	0.873488	7.37291e+06	-40289.1	1055.82	-29790.4	0.000000	0.000000	6.873122	-0.022014	NaN	0.000000	0.001623	0.001669	28.0826	0.099834	0.002034	49.0738	-14.37	13.1082	0.012879	0.872145	-0.276434	-0.277776	-0.022014	49.0738	-0.276097	-2060.66	1.068319E-5	NaN
803	1.000000	0.883461	7.37291e+06	-40289.1	1055.82	-29790.4	0.000000	0.000000	6.883096	0.007770	NaN	0.000000	0.001613	0.001719	28.0826	0.057474	0.002069	27.7771	12.7559	-164.515	0.045616	0.882188	-0.266461	-0.267734	0.007770	27.7771	-0.266670	-1482.06	-5.242762E-6	NaN
803	1.000000	0.893461	7.37291e+06	-40289.1	1055.82	-29790.4	0.000000	0.000000	6.893094	-0.037302	NaN	0.000000	0.001657	0.001684	28.0825	0.068097	0.001989	34.2384	-53.9771	11.6966	-0.024324	0.892065	-0.256461	-0.257857	-0.037302	34.2384	-0.255644	-1004.67	3.712866E-5	NaN
803	1.000000	0.903486	7.37291e+06	-40289.1	1055.82	-29790.4	0.000000	0.000000	6.903118	-0.058457	NaN	0.000000	0.001640	0.001715	28.0825	0.010191	0.001793	5.685272	-35.6167	-168.017	-0.006117	0.902200	-0.246436	-0.247722	-0.058457	5.685272	-0.238724	-549.047	0.000106	NaN
803	1.000000	0.913462	7.37291e+06	-40289.1	1055.82	-29790.4	0.000000	0.000000	6.913099	0.061462	NaN	0.000000	0.001633	0.001734	28.083	0.061453	0.002066	29.7481	74.8011	14.1282	0.092276	0.912113	-0.236459	-0.237808	0.061462	29.7481	-0.238009	-535.083	-0.000115	NaN
803	1.000000	0.923467	7.37291e+06	-40289.1	1055.82	-29790.4	0.000000	0.000000	6.923103	0.031346	NaN	0.000000	0.001624	0.001707	28.0827	0.071306	0.001899	37.5449	140.115	-168.209	-0.009349	0.922151	-0.226454	-0.227771	0.031346	37.5449	-0.227081	-360.031	-8.706621E-5	NaN
803	1.000000	0.933489	7.37291e+06	-40289.1	1055.82	-29790.4	0.000000	0.000000	6.933123	-0.015418	NaN	0.000000	0.001606	0.001694	28.0829	0.086228	0.002043	42.2167	160.607	13.0453	-0.079107	0.932118	-0.216433	-0.217804	-0.015418	42.2167	-0.216159	-241.07	6.395598E-5	NaN
803	1.000000	0.943485	7.37291e+06	-40289.1	1055.82	-29790.4	0.000000	0.000000	6.943119	-0.012197	NaN	0.000000	0.001607	0.001727	28.0826	0.125994	0.002007	62.7758	-178.723	-164.85	-0.005973	0.942176	-0.206436	-0.207746	-0.012197	62.7758	-0.206291	-166.951	7.305923E-5	NaN
803	1.000000	0.953507	7.37291e+06	-40289.1	1055.82	-29790.4	0.000000	0.000000	6.953142	0.014505	NaN	0.000000	0.001568	0.001763	28.0833	0.087535	0.001981	44.1801	-1.395451	10.9757	-0.015853	0.952133	-0.196414	-0.197788	0.014505	44.1801	-0.196661	-116.058	-0.000125	NaN
803	1.000000	0.963463	7.37291e+06	-40289.1	1055.82	-29790.4	0.000000	0.000000	6.963098	0.021418	NaN	0.000000	0.001591	0.001706	28.0827	0.074308	0.002023	36.7395	-48.6604	-167.768	0.024265	0.962167	-0.186459	-0.187755	0.021418	36.7395	-0.186896	-79.8051	-0.000268	NaN
803	1.000000	0.973502	7.37291e+06	-40289.1	1055.82	-29790.4	0.000000	0.000000	6.973140	0.079304	NaN	0.000000	0.001600	0.001709	28.083	0.059430	0.001961	30.3114	-85.2711	10.8775	0.094958	0.972131	-0.176419	-0.177791	0.079304	30.3114	-0.178382	-57.265	-0.001385	NaN
803	1.000000	0.983472	7.37291e+06	-40289.1	1055.82	-29790.4	0.000000	0.000000	6.983105	-0.031752	NaN	0.000000	0.001592	0.001709	28.0818	0.101170	0.001889	53.5676	168.278	-164.286	0.015763	0.982195	-0.166450	-0.167726	-0.031752	53.5676	-0.166005	-34.9896	0.000907	NaN
803	1.000000	0.993520	7.37291e+06	-40289.1	1055.82	-29790.4	0.000000	0.000000	6.993151	-0.086075	NaN	0.000000	0.001576	0.001702	28.0817	0.088483	0.002073	42.6813	-167.033	11.8336	-0.028241	0.992158	-0.156402	-0.157764	-0.086075	42.6813	-0.154889	-22.2117	0.003875	NaN
803	1.000000	1.003517	7.37291e+06	-40289.1	1055.82	-29790.4	0.000000	0.000000	7.003149	-0.057825	NaN	0.000000	0.001624	0.001705	28.0814	0.089271	0.001932	46.1971	1.270191	-165.104	-0.076426	1.002221	-0.146405	-0.147701	-0.057825	46.1971	-0.145466	-14.9549	0.003867	NaN
803	1.000000	1.013537	7.37291e+06	-40289.1	1055.82	-29790.4	0.000000	0.000000	7.013170	-0.024439	NaN	0.000000	0.001611	0.001690	28.0816	0.071025	0.002116	33.5606	-148.262	13.0499	-0.055416	1.012156	-0.136385	-0.137765	-0.024439	33.5606	-0.135839	-9.869196	0.002476	NaN
803	1.000000	1.023536	7.37291e+06	-40289.1	1055.82	-29790.4	0.000000	0.000000	7.023171	0.005294	NaN	0.000000	0.001614	0.001734	28.0816	0.097287	0.002109	46.1376	-87.1595	-167.512	0.022151	1.022222	-0.126386	-0.127700	0.005294	46.1376	-0.126472	-6.501772	-0.000814	NaN
803	1.000000	1.033517	7.37291e+06	-40289.1	1055.82	-29790.4	0.000000	0.000000	7.033151	-0.006944	NaN	0.000000	0.001596	0.001708	28.0818	0.094175	0.001903	49.4767	48.7819	14.7879	-0.017646	1.032166	-0.116405	-0.117756	-0.006944	49.4767	-0.116299	-4.062685	0.001709	NaN
803	1.000000	1.043553	7.37291e+06	-40289.1	1055.82	-29790.4	0.000000	0.000000	7.043189	0.023155	NaN	0.000000	0.001622	0.001722	28.0813	0.006362	0.002097	3.034415	7.927076	-166.117	-0.050819	1.042188	-0.106368	-0.107733	0.023155	3.034415	-0.112091	-3.324758	-0.006964	NaN
803	1.000000	1.053520	7.37291e+06	-40289.1	1055.82	-29790.4	0.000000	0.000000	7.053153	-0.038791	NaN	0.000000	0.001639	0.001693	28.0816	0.006538	0.002011	3.251720	-37.0267	14.981	0.027860	1.052201	-0.096402	-0.097721	-0.038791	3.251720	-0.087455	-0.941103	0.041218	NaN
803	1.000000	1.063536	7.37291e+06	-40289.1	1055.82	-29790.4	0.000000	0.000000	7.063168	-0.067222	NaN	0.000000	0.001630	0.001700	28.0815	0.057904	0.002051	28.2254	-177.064	-168.845	-0.052097	1.062254	-0.086385	-0.087668	-0.067222	28.2254	-0.084599	-0.803460	0.083665	NaN
803	1.000000	1.073555	7.37291e+06	-40289.1	1055.82	-29790.4	0.000000	0.000000	7.073188	-0.039813	NaN	0.000000	0.001589	0.001743	28.0813	0.052361	0.002008	26.0717	81.9349	14.4645	0.000839	1.072184	-0.076367	-0.077738	-0.039813	26.0717	-0.075222	-0.468003	0.085069	NaN
803	1.000000	1.083520	7.37291e+06	-40289.1	1055.82	-29790.4	0.000000	0.000000	7.083154	-0.010346	NaN	0.000000	0.001583	0.001724	28.0814	0.041982	0.002055	20.4336	107.041	-167.492	0.022419	1.082273	-0.066402	-0.067649	-0.010346	20.4336	-0.066022	-0.265965	0.038900	NaN
803	1.000000	1.093577	7.37291e+06	-40289.1	1055.82	-29790.4	0.000000	0.000000	7.093210	-0.039422	NaN	0.000000	0.001567	0.001723	28.0815	0.038213	0.002094	18.2471	-105.165	14.7474	0.049926	1.092170	-0.056345	-0.057752	-0.039422	18.2471	-0.054724	-0.126382	0.311928	NaN
803	1.000000	1.103562	7.37291e+06	-40289.1	1055.82	-29790.4	0.000000	0.000000	7.103197	0.007971	NaN	0.000000	0.001580	0.001710	28.0817	0.110062	0.002006	54.8697	-98.1885	-166.009	0.051646	1.102179	-0.046360	-0.047742	0.007971	54.8697	-0.046469	-0.071266	-0.111843	NaN
803	1.000000	1.113576	7.37291e+06	-40289.1	1055.82	-29790.4	0.000000	0.000000	7.113210	-0.005721	NaN	0.000000	0.001615	0.001683	28.0816	0.085553	0.002029	42.1627	5.201702	13.0119	0.030613	1.112160	-0.036346	-0.037761	-0.005721	42.1627	-0.036244	-0.034860	0.164112	NaN
803	1.000000	1.123556	7.37291e+06	-40289.1	1055.82	-29790.4	0.000000	0.000000	7.123187	-0.060373	NaN	0.000000	0.001544	0.001733	28.0829	0.023591	0.001897	12.4336	89.2458	-166.176	-0.011740	1.122288	-0.026366	-0.027633	-0.060373	12.4336	-0.022724	-0.014735	4.097212	NaN
803	1.000000	1.133587	7.37291e+06	-40289.1	1055.82	-29790.4	0.000000	0.000000	7.133221	-0.006013	NaN	0.000000	0.001596	0.001721	28.0828	0.132378	0.001955	67.7283	-21.8931	15.5251	-0.032609	1.132154	-0.016335	-0.017768	-0.006013	67.7283	-0.016268	-0.010049	0.598314	NaN
803	1.000000	1.143551	7.37291e+06	-40289.1	1055.82	-29790.4	0.000000	0.000000	7.143244	1.432000	NaN	0.000000	0.001582	0.001697	28.0828	1.885878	0.001886	999.77	11.3254	-166.578	0.701103	1.142288	-0.006371	-0.007633	1.432000	999.77	-0.007445	-0.004905	-291.95	NaN
803	2.000000	1.151608	7.37291e+06	-40289.1	1055.82	-29790.4	0.000000	0.000000	7.151652	9.958864	NaN	0.000000	0.001632	0.001705	28.0827	6.404991	0.001746	3668.49	11.0307	6.373737	9.733909	1.151230	0.001687	0.001309	9.958864	3668.49	-0.000350	-0.000259	-38385.9	NaN
803	2.000000	1.154127	7.37291e+06	-40289.1	1055.82	-29790.4	0.000000	0.000000	7.154286	12.7683	NaN	0.000000	0.001616	0.001727	28.0833	8.447158	0.001826	4625.77	7.778273	-173.503	12.9965	1.153803	0.004205	0.003881	12.7683	4625.77	0.002135	0.001665	7670.84	103589
803	2.000000	1.156563	7.37291e+06	-40289.1	1055.82	-29790.4	0.000000	0.000000	7.156820	15.1647	NaN	0.000000	0.001657	0.001694	28.0829	9.670909	0.001792	5397.57	4.428013	9.019398	14.18	1.156159	0.006641	0.006237	15.1647	5397.57	0.004534	0.003712	4085.38	80941.3
803	2.000000	1.159005	7.37291e+06	-40289.1	1055.82	-29790.4	0.000000	0.000000	7.159367	17.6974	NaN	0.000000	0.001688	0.001665	28.0829	11.6311	0.001745	6663.85	5.652668	-173.148	16.8432	1.158767	0.009084	0.008845	17.6974	6663.85	0.007092	0.006125	2889.52	77795.9
803	2.000000	1.161529	7.37291e+06	-40289.1	1055.82	-29790.4	0.000000	0.000000	7.161991	20.1393	NaN	0.000000	0.001673	0.001675	28.0826	14.0591	0.001765	7963.28	5.790704	4.300934	19.2073	1.161205	0.011607	0.011284	20.1393	7963.28	0.009711	0.008862	2272.67	77287.7
803	2.000000	1.164045	7.37291e+06	-40289.1	1055.82	-29790.4	0.000000	0.000000	7.164616	22.7962	NaN	0.000000	0.001610	0.001692	28.0828	16.6338	0.001836	9060.88	3.329644	-173.794	22.5193	1.163761	0.014123	0.013840	22.7962	9060.88	0.012236	0.011774	1936.08	76291.2
803	2.000000	1.166544	7.37291e+06	-40289.1	1055.82	-29790.4	0.000000	0.000000	7.167383	29.3197	NaN	0.000000	0.001621	0.001700	28.0831	19.1221	0.001913	9996.89	10.2179	0.948674	28.8337	1.166144	0.016622	0.016222	29.3197	9996.89	0.014422	0.014523	2018.92	75790.9
803	2.000000	1.169047	7.37291e+06	-40289.1	1055.82	-29790.4	0.000000	0.000000	7.170047	33.2295	NaN	0.000000	0.001611	0.001728	28.0831	21.7453	0.002042	10646.8	11.788	178.597	33.2196	1.168641	0.019125	0.018719	33.2295	10646.8	0.016785	0.017739	1873.21	73033.7
803	2.000000	1.171502	7.37291e+06	-40289.1	1055.82	-29790.4	0.000000	0.000000	7.172765	39.6313	NaN	0.000000	0.001640	0.001696	28.0827	23.9754	0.001926	12448.4	5.634281	2.132479	37.8363	1.171142	0.021581	0.021221	39.6313	12448.4	0.019193	0.021290	1861.52	77947.1
803	2.000000	1.174021	7.37291e+06	-40289.1	1055.82	-29790.4	0.000000	0.000000	7.175596	47.2224	NaN	0.000000	0.001639	0.001695	28.0831	25.1898	0.001729	14572.1	1.309036	-174.48	46.4382	1.173662	0.024099	0.023740	47.2224	14572.1	0.021669	0.025233	1871.48	83813.4
803	2.000000	1.176501	7.37291e+06	-40289.1	1055.82	-29790.4	0.000000	0.000000	7.178361	54.1472	NaN	0.000000	0.001653	0.001694	28.0828	26.9219	0.001766	15247.1	4.025163	3.119027	52.3918	1.176136	0.026580	0.026215	54.1472	15247.1	0.023916	0.029073	1862.44	81698.5
803	2.000000	1.178999	7.37291e+06	-40289.1	1055.82	-29790.4	0.000000	0.000000	7.181074	59.4054	NaN	0.000000	0.001601	0.001665	28.0816	30.4497	0.001872	16264	5.754113	179.27	58.6774	1.178639	0.029077	0.028718	59.4054	16264	0.026338	0.033494	1773.61	81192.8
803	2.000000	1.181468	7.37291e+06	-40289.1	1055.82	-29790.4	0.000000	0.000000	7.183949	69.2628	NaN	0.000000	0.001602	0.001691	28.0816	31.5404	0.001676	18824.2	4.530514	-1.646933	67.1166	1.181088	0.031546	0.031166	69.2628	18824.2	0.028787	0.038266	1810.03	87918.8
803	2.000000	1.183958	7.37291e+06	-40289.1	1055.82	-29790.4	0.000000	0.000000	7.186591	72.9626	NaN	0.000000	0.001642	0.001742	28.0817	35.3684	0.001913	18483.9	4.405698	179.144	70.5717	1.183763	0.034036	0.033841	72.9626	18483.9	0.031076	0.043003	1696.7	81436.5
803	2.000000	1.186525	7.37291e+06	-40289.1	1055.82	-29790.4	0.000000	0.000000	7.189658	85.1253	NaN	0.000000	0.001621	0.001694	28.0816	37.0681	0.001795	20649.6	6.750785	-3.512181	84.0892	1.186114	0.036604	0.036192	85.1253	20649.6	0.033512	0.048338	1761.06	85810.9
803	2.000000	1.188997	7.37291e+06	-40289.1	1055.82	-29790.4	0.000000	0.000000	7.192442	92.7285	NaN	0.000000	0.001593	0.001695	28.0819	39.2124	0.001778	22051.8	5.457198	176.993	92.2397	1.188649	0.039076	0.038727	92.7285	22051.8	0.035922	0.053914	1719.93	86769.3
803	2.000000	1.191458	7.37291e+06	-40289.1	1055.82	-29790.4	0.000000	0.000000	7.195302	102.435	NaN	0.000000	0.001627	0.001697	28.0816	42.0449	0.001858	22632.3	3.555728	-2.212480	99.3897	1.191101	0.041537	0.041179	102.435	22632.3	0.038142	0.059315	1726.96	84902.2
803	2.000000	1.193939	7.37292e+06	-40289.1	1055.82	-29790.4	0.000000	0.000000	7.198277	114.469	NaN	0.000000	0.001588	0.001698	28.0818	45.1208	0.001764	25578.6	7.243934	173.61	112.55	1.193765	0.044017	0.043843	114.469	25578.6	0.040661	0.065748	1741.04	91140.4
803	2.000000	1.196524	7.37292e+06	-40289.1	1055.82	-29790.4	0.000000	0.000000	7.201379	127.039	NaN	0.000000	0.001601	0.001653	28.0815	46.9353	0.001735	27045.2	5.359247	-5.331472	125.796	1.196160	0.046602	0.046239	127.039	27045.2	0.043079	0.072228	1758.85	91941.2
803	2.000000	1.198927	7.37292e+06	-40289.1	1055.82	-29790.4	0.000000	0.000000	7.204322	140.178	NaN	0.000000	0.001603	0.001692	28.0824	49.0323	0.001721	28498.3	3.414814	176.301	136.586	1.198604	0.049005	0.048683	140.178	28498.3	0.045316	0.078487	1786	92937.7
803	2.000000	1.201409	7.37292e+06	-40289.1	1055.82	-29790.4	0.000000	0.000000	7.207172	149.143	NaN	0.000000	0.001577	0.001677	28.0816	52.5012	0.001804	29099.7	4.246760	-4.236901	144.989	1.201093	0.051487	0.051171	149.143	29099.7	0.047643	0.085267	1749.13	91048.2
803	2.000000	1.203865	7.37292e+06	-40289.1	1055.82	-29790.4	0.000000	0.000000	7.210157	162.004	NaN	0.000000	0.001580	0.001688	28.0822	54.6617	0.001828	29896.2	2.228568	177.538	157.965	1.203682	0.053943	0.053761	162.004	29896.2	0.049879	0.092039	1760.17	90033.1
803	2.000000	1.206520	7.37292e+06	-40289.1	1055.82	-29790.4	0.000000	0.000000	7.213382	175.889	NaN	0.000000	0.001567	0.001723	28.0814	56.8424	0.001766	32182	5.760590	-6.210498	177.059	1.206082	0.056598	0.056161	175.889	32182	0.052499	0.100294	1753.74	92843.2
803	2.000000	1.208945	7.37292e+06	-40289.1	1055.82	-29790.4	0.000000	0.000000	7.216587	194.874	NaN	0.000000	0.001607	0.001668	28.082	59.3572	0.001918	30942.5	8.855865	171.226	193.54	1.208525	0.059023	0.058604	194.874	30942.5	0.054299	0.106164	1835.59	86764.1
803	2.000000	1.211460	7.37292e+06	-40289.1	1055.82	-29790.4	0.000000	0.000000	7.219447	203.253	NaN	0.000000	0.001629	0.001685	28.0828	61.1127	0.001797	34015	7.071501	-8.169699	202.26	1.211002	0.061539	0.061081	203.253	34015	0.057057	0.115467	1760.27	91456.5
803	2.000000	1.213958	7.37292e+06	-40289.1	1055.82	-29790.4	0.000000	0.000000	7.222442	215.353	NaN	0.000000	0.001625	0.001706	28.0837	63.7281	0.001783	35747.5	1.461639	176.607	214.35	1.213726	0.064036	0.063804	215.353	35747.5	0.059518	0.124085	1735.52	92717
803	2.000000	1.216476	7.37292e+06	-40289.1	1055.82	-29790.4	0.000000	0.000000	7.225607	231.082	NaN	0.000000	0.001619	0.001700	28.0829	65.4405	0.001751	37378.2	3.396585	-5.091972	230.471	1.216122	0.066554	0.066200	231.082	37378.2	0.061918	0.132774	1740.41	93720.5
803	2.000000	1.218895	7.37292e+06	-40289.1	1055.82	-29790.4	0.000000	0.000000	7.228822	250.466	NaN	0.000000	0.001636	0.001673	28.083	67.9757	0.001841	36914	3.009283	175.215	247.919	1.218586	0.068973	0.068664	250.466	36914	0.063884	0.140103	1787.72	90103.1
803	2.000000	1.221393	7.37292e+06	-40289.1	1055.82	-29790.4	0.000000	0.000000	7.231846	263.266	NaN	0.000000	0.001680	0.001688	28.0829	70.6355	0.001707	41378.4	3.773385	-6.834397	258.4	1.221055	0.071471	0.071133	263.266	41378.4	0.066699	0.150921	1744.4	97313.3
803	2.000000	1.223916	7.37292e+06	-40289.1	1055.82	-29790.4	0.000000	0.000000	7.235010	278.856	NaN	0.000000	0.001647	0.001708	28.0833	73.9355	0.001737	42577.1	6.156683	170.711	279.292	1.223625	0.073995	0.073704	278.856	42577.1	0.069083	0.160376	1738.77	97136
803	2.000000	1.226469	7.37292e+06	-40289.1	1055.82	-29790.4	0.000000	0.000000	7.238404	299.317	NaN	0.000000	0.001649	0.001691	28.0827	75.6597	0.001842	41071.5	4.203093	-6.312553	297.856	1.225997	0.076547	0.076075	299.317	41071.5	0.071081	0.168514	1776.22	91410.5
803	2.000000	1.228856	7.37292e+06	-40289.1	1055.82	-29790.4	0.000000	0.000000	7.241556	317.929	NaN	0.000000	0.001614	0.001727	28.083	77.048	0.001797	42880.3	2.900901	174.306	313.639	1.228613	0.078934	0.078691	317.929	42880.3	0.073373	0.178081	1785.31	92837.2
803	2.000000	1.231430	7.37292e+06	-40289.1	1055.82	-29790.4	0.000000	0.000000	7.244924	337.25	NaN	0.000000	0.001616	0.001740	28.0828	79.779	0.001854	43037	4.693985	-7.590564	334.107	1.231065	0.081508	0.081143	337.25	43037	0.075631	0.187745	1796.32	90746.6
803	2.000000	1.233881	7.37292e+06	-40289.1	1055.82	-29790.4	0.000000	0.000000	7.248164	356.462	NaN	0.000000	0.001666	0.001734	28.0829	82.4472	0.001800	45797.3	4.579777	171.821	353.27	1.233530	0.083960	0.083609	356.462	45797.3	0.078122	0.198687	1794.09	93870.3
803	2.000000	1.236425	7.37292e+06	-40289.1	1055.82	-29790.4	0.000000	0.000000	7.251463	374.832	NaN	0.000000	0.001663	0.001764	28.0827	84.1818	0.001906	44160.3	5.215489	-7.890066	372.052	1.235969	0.086503	0.086048	374.832	44160.3	0.080137	0.207752	1804.23	88518.3
803	2.000000	1.238898	7.37292e+06	-40289.1	1055.82	-29790.4	0.000000	0.000000	7.254768	395.094	NaN	0.000000	0.001638	0.001749	28.0829	84.0274	0.001718	48917	1.875326	174.386	393.564	1.238587	0.088976	0.088665	395.094	48917	0.082918	0.220571	1791.23	95160.9
803	2.000000	1.241338	7.37292e+06	-40289.1	1055.82	-29790.4	0.000000	0.000000	7.257886	411.568	NaN	0.000000	0.001618	0.001728	28.083	88.1205	0.001766	49901.8	3.469119	-7.634517	405.113	1.240919	0.091416	0.090997	411.568	49901.8	0.085230	0.231502	1777.82	94757
803	2.000000	1.243903	7.37292e+06	-40289.1	1055.82	-29790.4	0.000000	0.000000	7.261285	431.855	NaN	0.000000	0.001620	0.001726	28.0828	91.4267	0.001867	48974.4	3.482326	173.132	430.506	1.243628	0.093982	0.093706	431.855	48974.4	0.087368	0.241828	1785.8	90989
803	2.000000	1.246441	7.37292e+06	-40289.1	1055.82	-29790.4	0.000000	0.000000	7.264703	453.265	NaN	0.000000	0.001669	0.001742	28.0815	92.8224	0.001833	50652.8	3.575981	-7.424645	450.689	1.246074	0.096520	0.096152	453.265	50652.8	0.089808	0.253872	1785.41	91847.9
803	2.000000	1.248872	7.37292e+06	-40289.1	1055.82	-29790.4	0.000000	0.000000	7.267944	472.974	NaN	0.000000	0.001648	0.001757	28.0816	96.6001	0.001882	51332.3	7.112810	168.694	468.012	1.248547	0.098951	0.098625	472.974	51332.3	0.092040	0.265127	1783.95	91083
803	2.000000	1.249374	7.37292e+06	-40289.1	1055.82	-29790.4	0.000000	0.000000	7.268667	478.37	NaN	0.000000	0.001675	0.001741	28.0815	96.7538	0.001796	53873.3	6.933251	-11.8703	474.218	1.249075	0.099452	0.099153	478.37	53873.3	0.092792	0.268971	1778.52	94906.1