File: remote_trans/data/nanoindenter/0828-1/data/Data_2025-08-06,11h17m57s/2025-07-22_16-23-58_1_1113.txt
2025-07-22, 16:23:58, 1
Index	Phase	Displacement	Time	Pos X	Pos Y	Pos Z	Rot A	Rot B	Piezo Z	Force A	Force B	Gripper	Voltage A	Voltage B	Temperature	Amplitude force	Amplitude pos	Stiffness	Phase shift	Phase excitation	Force A raw	Displacement raw	HMax	HMax raw	Real Force	Real Stiffness	Contact Depth	Area	Hardness	Reduced Mod.
[#]	[#]	[um]	[s]	[um]	[um]	[um]	[m°]	[m°]	[um]	[uN]	[uN]	[V]	[V]	[V]	[°C]	[uN]	[um]	[N/m]	[°]	[°]	[uN]	[um]	[um]	[um]	[uN]	[N/m]	[um]	[um^2]	[MPa]	[MPa]
1113	1.000000	0.002493	7.37594e+06	-55789.1	1055.82	-29740.7	0.000000	0.000000	6.002811	0.071668	NaN	0.000000	0.001539	0.001707	28.0826	0.050739	0.000869	58.3811	162.581	-161.74	0.073372	0.001231	-1.080375	-1.081637	0.071668	58.3811	-1.081295	-2.811363E+14	-2.549215E-16	NaN
1113	1.000000	0.012545	7.37594e+06	-55789.1	1055.82	-29740.7	0.000000	0.000000	6.012860	-0.008591	NaN	0.000000	0.001606	0.001758	28.0824	0.107678	0.001243	86.6163	-151.534	20.0233	-0.039417	0.011077	-1.070323	-1.071791	-0.008591	86.6163	-1.070249	-1.997690E+14	4.300669E-17	NaN
1113	1.000000	0.022417	7.37594e+06	-55789.1	1055.82	-29740.7	0.000000	0.000000	6.022732	0.005087	NaN	0.000000	0.001614	0.001761	28.0825	0.131358	0.001618	81.2052	-67.7252	-161.989	-0.054499	0.021161	-1.060451	-1.061707	0.005087	81.2052	-1.060498	-1.477455E+14	-3.443114E-17	NaN
1113	1.000000	0.032446	7.37594e+06	-55789.1	1055.82	-29740.7	0.000000	0.000000	6.032764	0.059943	NaN	0.000000	0.001616	0.001765	28.0823	0.088282	0.001970	44.8223	-102.647	17.6759	-0.008527	0.031053	-1.050422	-1.051815	0.059943	44.8223	-1.051425	-1.115745E+14	-5.372460E-16	NaN
1113	1.000000	0.042424	7.37594e+06	-55789.1	1055.82	-29740.7	0.000000	0.000000	6.042739	-0.001650	NaN	0.000000	0.001586	0.001754	28.0813	0.043308	0.001877	23.0756	164.571	-160.365	-0.075388	0.041194	-1.040444	-1.041674	-0.001650	23.0756	-1.040390	-7.928915E+13	2.081407E-17	NaN
1113	1.000000	0.052446	7.37594e+06	-55789.1	1055.82	-29740.7	0.000000	0.000000	6.052762	0.022066	NaN	0.000000	0.001563	0.001738	28.0811	0.117861	0.001951	60.4223	55.3866	15.4674	0.072056	0.051066	-1.030422	-1.031802	0.022066	60.4223	-1.030696	-5.872706E+13	-3.757335E-16	NaN
1113	1.000000	0.062423	7.37594e+06	-55789.1	1055.82	-29740.7	0.000000	0.000000	6.062740	0.050561	NaN	0.000000	0.001544	0.001768	28.081	0.073616	0.002007	36.6786	-146.81	-160.987	0.132173	0.061089	-1.020445	-1.021780	0.050561	36.6786	-1.021479	-4.414215E+13	-1.145412E-15	NaN
1113	1.000000	0.072464	7.37594e+06	-55789.1	1055.82	-29740.7	0.000000	0.000000	6.072779	0.026838	NaN	0.000000	0.001550	0.001739	28.0811	0.119962	0.002156	55.6432	-103.077	16.2431	0.011570	0.071074	-1.010405	-1.011794	0.026838	55.6432	-1.010766	-3.167343E+13	-8.473339E-16	NaN
1113	1.000000	0.082454	7.37594e+06	-55789.1	1055.82	-29740.7	0.000000	0.000000	6.082767	-0.032858	NaN	0.000000	0.001562	0.001741	28.0811	0.019403	0.002003	9.686305	-60.0806	-167.019	0.030810	0.081135	-1.000414	-1.001734	-0.032858	9.686305	-0.997870	-2.123696E+13	1.547209E-15	NaN
1113	1.000000	0.092431	7.37594e+06	-55789.1	1055.82	-29740.7	0.000000	0.000000	6.092744	-0.043786	NaN	0.000000	0.001564	0.001733	28.0809	0.004287	0.002006	2.137332	113.578	16.1502	-0.122838	0.091103	-0.990437	-0.991765	-0.043786	2.137332	-0.975073	-1.047185E+13	4.181284E-15	NaN
1113	1.000000	0.102418	7.37594e+06	-55789.1	1055.82	-29740.7	0.000000	0.000000	6.102734	0.043341	NaN	0.000000	0.001567	0.001732	28.0809	0.114460	0.002002	57.1628	44.2392	-165.305	-0.009781	0.101108	-0.980451	-0.981760	0.043341	57.1628	-0.981019	-1.259337E+13	-3.441577E-15	NaN
1113	1.000000	0.112458	7.37594e+06	-55789.1	1055.82	-29740.7	0.000000	0.000000	6.112773	-0.011060	NaN	0.000000	0.001546	0.001775	28.0813	0.068552	0.002036	33.6699	-23.621	13.7305	-0.002484	0.111090	-0.970410	-0.971779	-0.011060	33.6699	-0.970163	-8.992160E+12	1.229950E-15	NaN
1113	1.000000	0.122502	7.37594e+06	-55789.1	1055.82	-29740.7	0.000000	0.000000	6.122815	-0.032579	NaN	0.000000	0.001546	0.001756	28.0811	0.077967	0.002009	38.8059	28.2028	-167.081	-0.077880	0.121103	-0.960366	-0.961766	-0.032579	38.8059	-0.959737	-6.506041E+12	5.007552E-15	NaN
1113	1.000000	0.132443	7.37594e+06	-55789.1	1055.82	-29740.7	0.000000	0.000000	6.132756	-0.039656	NaN	0.000000	0.001529	0.001789	28.0816	0.074096	0.002046	36.2191	-169.508	14.3945	-0.032019	0.131126	-0.950425	-0.951742	-0.039656	36.2191	-0.949604	-4.749933E+12	8.348762E-15	NaN
1113	1.000000	0.142467	7.37594e+06	-55789.1	1055.82	-29740.7	0.000000	0.000000	6.142781	-0.030099	NaN	0.000000	0.001559	0.001756	28.0811	0.040554	0.002055	19.7322	76.8111	-165.13	0.026810	0.141107	-0.940401	-0.941761	-0.030099	19.7322	-0.939257	-3.444372E+12	8.738504E-15	NaN
1113	1.000000	0.152472	7.37594e+06	-55789.1	1055.82	-29740.7	0.000000	0.000000	6.152788	0.042601	NaN	0.000000	0.001534	0.001761	28.0814	0.095390	0.001983	48.1129	-130.991	14.4263	-0.046757	0.151106	-0.930397	-0.931762	0.042601	48.1129	-0.931061	-2.670007E+12	-1.595548E-14	NaN
1113	1.000000	0.162479	7.37594e+06	-55789.1	1055.82	-29740.7	0.000000	0.000000	6.162793	-0.017315	NaN	0.000000	0.001533	0.001805	28.0812	0.029331	0.001922	15.2567	169.624	-167.077	0.001163	0.161183	-0.920389	-0.921686	-0.017315	15.2567	-0.919538	-1.866249E+12	9.278047E-15	NaN
1113	1.000000	0.172507	7.37594e+06	-55789.1	1055.82	-29740.7	0.000000	0.000000	6.172819	-0.058806	NaN	0.000000	0.001581	0.001720	28.0827	0.053290	0.001930	27.6057	-33.0705	13.3116	0.039334	0.171179	-0.910361	-0.911689	-0.058806	27.6057	-0.908763	-1.334930E+12	4.405180E-14	NaN
1113	1.000000	0.182499	7.37594e+06	-55789.1	1055.82	-29740.7	0.000000	0.000000	6.182813	-0.018739	NaN	0.000000	0.001566	0.001748	28.0827	0.060567	0.001980	30.5959	-178.082	-166.964	0.004489	0.181177	-0.900369	-0.901691	-0.018739	30.5959	-0.899910	-1.013560E+12	1.848875E-14	NaN
1113	1.000000	0.192492	7.37594e+06	-55789.1	1055.82	-29740.7	0.000000	0.000000	6.192808	0.025451	NaN	0.000000	0.001527	0.001747	28.0826	0.110305	0.001987	55.5123	-164.113	14.5163	0.050261	0.191152	-0.890376	-0.891716	0.025451	55.5123	-0.890720	-7.614597E+11	-3.342408E-14	NaN
1113	1.000000	0.202521	7.37594e+06	-55789.1	1055.82	-29740.7	0.000000	0.000000	6.202834	-0.039303	NaN	0.000000	0.001543	0.001743	28.0827	0.020994	0.001967	10.6716	-151.894	-162.969	0.022740	0.201192	-0.880347	-0.881676	-0.039303	10.6716	-0.877585	-5.058777E+11	7.769290E-14	NaN
1113	1.000000	0.212521	7.37594e+06	-55789.1	1055.82	-29740.7	0.000000	0.000000	6.212837	0.010370	NaN	0.000000	0.001511	0.001750	28.0827	0.039549	0.001984	19.939	-136.098	16.5555	-0.046352	0.211133	-0.870347	-0.871735	0.010370	19.939	-0.870737	-4.087068E+11	-2.537239E-14	NaN
1113	1.000000	0.222513	7.37594e+06	-55789.1	1055.82	-29740.7	0.000000	0.000000	6.222827	-0.029976	NaN	0.000000	0.001493	0.001789	28.0829	0.057509	0.002079	27.6597	-71.6192	-163.223	-0.047972	0.221214	-0.860355	-0.861654	-0.029976	27.6597	-0.859542	-2.883512E+11	1.039570E-13	NaN
1113	1.000000	0.232516	7.37594e+06	-55789.1	1055.82	-29740.7	0.000000	0.000000	6.232833	0.056210	NaN	0.000000	0.001541	0.001774	28.0825	0.067339	0.002010	33.4973	-159.803	17.6337	-0.008078	0.231134	-0.850352	-0.851734	0.056210	33.4973	-0.851611	-2.251903E+11	-2.496109E-13	NaN
1113	1.000000	0.242510	7.37594e+06	-55789.1	1055.82	-29740.7	0.000000	0.000000	6.242827	0.048529	NaN	0.000000	0.001546	0.001764	28.0826	0.050630	0.002035	24.8808	38.8107	-166.793	0.108255	0.241206	-0.840358	-0.841662	0.048529	24.8808	-0.841821	-1.659436E+11	-2.924411E-13	NaN
1113	1.000000	0.252496	7.37594e+06	-55789.1	1055.82	-29740.7	0.000000	0.000000	6.252812	0.012133	NaN	0.000000	0.001514	0.001747	28.0826	0.116078	0.001929	60.1703	61.6265	12.2464	-0.071837	0.251137	-0.830372	-0.831731	0.012133	60.1703	-0.830523	-1.166469E+11	-1.040107E-13	NaN
1113	1.000000	0.262526	7.37594e+06	-55789.1	1055.82	-29740.7	0.000000	0.000000	6.262837	-0.085492	NaN	0.000000	0.001520	0.001770	28.0826	0.116401	0.002133	54.5805	-167.702	-165.427	-0.082940	0.261250	-0.820342	-0.821618	-0.085492	54.5805	-0.819167	-8.183155E+10	1.044736E-12	NaN
1113	1.000000	0.272521	7.37594e+06	-55789.1	1055.82	-29740.7	0.000000	0.000000	6.272836	0.002357	NaN	0.000000	0.001495	0.001755	28.0826	0.146913	0.001908	76.9862	-111.159	10.968	-0.034943	0.271213	-0.810347	-0.811655	0.002357	76.9862	-0.810370	-6.217085E+10	-3.791673E-14	NaN
1113	1.000000	0.282533	7.37594e+06	-55789.1	1055.82	-29740.7	0.000000	0.000000	6.282852	0.082497	NaN	0.000000	0.001569	0.001760	28.0825	0.172207	0.002033	84.6873	-128.803	-165.576	0.008477	0.281273	-0.800335	-0.801595	0.082497	84.6873	-0.801065	-4.648601E+10	-1.774654E-12	NaN
1113	1.000000	0.292559	7.37594e+06	-55789.1	1055.82	-29740.7	0.000000	0.000000	6.292873	-0.020024	NaN	0.000000	0.001594	0.001737	28.0827	0.051199	0.001978	25.8805	155.224	12.705	0.007449	0.291136	-0.790309	-0.791732	-0.020024	25.8805	-0.789729	-3.261341E+10	6.139715E-13	NaN
1113	1.000000	0.302538	7.37594e+06	-55789.1	1055.82	-29740.7	0.000000	0.000000	6.302852	-0.023352	NaN	0.000000	0.001566	0.001769	28.0825	0.078005	0.001948	40.0445	-118.998	-164.01	0.028521	0.301239	-0.780330	-0.781629	-0.023352	40.0445	-0.779892	-2.397556E+10	9.740059E-13	NaN
1113	1.000000	0.312519	7.37594e+06	-55789.1	1055.82	-29740.7	0.000000	0.000000	6.312837	0.067257	NaN	0.000000	0.001518	0.001740	28.0815	0.063372	0.002165	29.2742	-115.803	14.5512	-0.012942	0.311171	-0.770349	-0.771697	0.067257	29.2742	-0.772072	-1.877061E+10	-3.583121E-12	NaN
1113	1.000000	0.322530	7.37594e+06	-55789.1	1055.82	-29740.7	0.000000	0.000000	6.322846	0.034577	NaN	0.000000	0.001549	0.001674	28.0813	0.139338	0.001832	76.0659	-74.1118	-161.777	0.074756	0.321203	-0.760339	-0.761665	0.034577	76.0659	-0.760679	-1.313849E+10	-2.631702E-12	NaN
1113	1.000000	0.332565	7.37594e+06	-55789.1	1055.82	-29740.7	0.000000	0.000000	6.332879	-0.002787	NaN	0.000000	0.001551	0.001721	28.0813	0.025004	0.001839	13.5964	178.982	17.5063	0.066594	0.331184	-0.750303	-0.751684	-0.002787	13.5964	-0.750150	-9.446224E+9	2.950764E-13	NaN
1113	1.000000	0.342571	7.37594e+06	-55789.1	1055.82	-29740.7	0.000000	0.000000	6.342884	-0.043061	NaN	0.000000	0.001540	0.001697	28.0813	0.085079	0.001959	43.4311	-142.411	-165.421	-0.059358	0.341246	-0.740297	-0.741622	-0.043061	43.4311	-0.739553	-6.776008E+9	6.354890E-12	NaN
1113	1.000000	0.352572	7.37594e+06	-55789.1	1055.82	-29740.7	0.000000	0.000000	6.352885	-0.045039	NaN	0.000000	0.001491	0.001768	28.0812	0.103295	0.002061	50.1157	-121.387	14.9324	0.011847	0.351233	-0.730296	-0.731635	-0.045039	50.1157	-0.729622	-4.962041E+9	9.076698E-12	NaN
1113	1.000000	0.362592	7.37594e+06	-55789.1	1055.82	-29740.7	0.000000	0.000000	6.362905	-0.032283	NaN	0.000000	0.001519	0.001745	28.0816	0.065345	0.001916	34.1029	32.2301	-159.982	0.067128	0.361298	-0.720276	-0.721570	-0.032283	34.1029	-0.719567	-3.618772E+9	8.920990E-12	NaN
1113	1.000000	0.372584	7.37594e+06	-55789.1	1055.82	-29740.7	0.000000	0.000000	6.372898	-0.009094	NaN	0.000000	0.001471	0.001720	28.081	0.076344	0.002065	36.979	86.3359	14.0573	-0.002237	0.371277	-0.710284	-0.711591	-0.009094	36.979	-0.710100	-2.687904E+9	3.383307E-12	NaN
1113	1.000000	0.382557	7.37594e+06	-55789.1	1055.82	-29740.7	0.000000	0.000000	6.382873	0.009637	NaN	0.000000	0.001510	0.001735	28.0812	0.031212	0.001986	15.715	112.203	-162.952	0.046541	0.381254	-0.700311	-0.701614	0.009637	15.715	-0.700771	-2.004723E+9	-4.807030E-12	NaN
1113	1.000000	0.392606	7.37594e+06	-55789.1	1055.82	-29740.7	0.000000	0.000000	6.392920	-0.021694	NaN	0.000000	0.001544	0.001692	28.0811	0.088262	0.002034	43.3983	159.212	16.3663	-0.006265	0.391187	-0.690262	-0.691681	-0.021694	43.3983	-0.689887	-1.423557E+9	1.523931E-11	NaN
1113	1.000000	0.402598	7.37594e+06	-55789.1	1055.82	-29740.7	0.000000	0.000000	6.402914	0.044036	NaN	0.000000	0.001581	0.001714	28.0811	0.026220	0.002018	12.9929	-87.5758	-167.278	0.026161	0.401226	-0.680271	-0.681642	0.044036	12.9929	-0.682813	-1.139374E+9	-3.864889E-11	NaN
1113	1.000000	0.412602	7.37594e+06	-55789.1	1055.82	-29740.7	0.000000	0.000000	6.412918	0.025469	NaN	0.000000	0.001646	0.001694	28.081	0.103301	0.001951	52.9344	-151.364	14.6939	0.042817	0.411185	-0.670266	-0.671683	0.025469	52.9344	-0.670627	-7.761864E+8	-3.281283E-11	NaN
1113	1.000000	0.422611	7.37594e+06	-55789.1	1055.82	-29740.7	0.000000	0.000000	6.422927	0.024263	NaN	0.000000	0.001604	0.001717	28.081	0.068060	0.002144	31.7437	167.626	-164.601	0.031791	0.421299	-0.660257	-0.661569	0.024263	31.7437	-0.660831	-5.699600E+8	-4.256920E-11	NaN
1113	1.000000	0.432619	7.37594e+06	-55789.1	1055.82	-29740.7	0.000000	0.000000	6.432936	0.053534	NaN	0.000000	0.001608	0.001708	28.0811	0.072768	0.002000	36.3785	49.1298	15.021	-0.040081	0.431252	-0.650249	-0.651616	0.053534	36.3785	-0.651353	-4.226515E+8	-1.266618E-10	NaN
1113	1.000000	0.442572	7.37594e+06	-55789.1	1055.82	-29740.7	0.000000	0.000000	6.442887	0.008700	NaN	0.000000	0.001544	0.001699	28.0812	0.144481	0.001935	74.6513	48.0452	-164.762	0.075124	0.441239	-0.640296	-0.641629	0.008700	74.6513	-0.640384	-2.989213E+8	-2.910470E-11	NaN
1113	1.000000	0.452625	7.37594e+06	-55789.1	1055.82	-29740.7	0.000000	0.000000	6.452934	-0.123733	NaN	0.000000	0.001550	0.001696	28.0823	0.057385	0.001966	29.1909	39.0727	17.2509	-0.180259	0.451272	-0.630243	-0.631596	-0.123733	29.1909	-0.627064	-1.962013E+8	6.306406E-10	NaN
1113	1.000000	0.462591	7.37594e+06	-55789.1	1055.82	-29740.7	0.000000	0.000000	6.462905	-0.024213	NaN	0.000000	0.001510	0.001725	28.0822	0.075242	0.001962	38.3575	128.896	-164.357	-0.003229	0.461274	-0.620277	-0.621594	-0.024213	38.3575	-0.619804	-1.559325E+8	1.552786E-10	NaN
1113	1.000000	0.472620	7.37594e+06	-55789.1	1055.82	-29740.7	0.000000	0.000000	6.472933	-0.039845	NaN	0.000000	0.001505	0.001712	28.0826	0.030686	0.002008	15.2838	171.598	16.5434	0.025454	0.471234	-0.610249	-0.611634	-0.039845	15.2838	-0.608293	-1.083005E+8	3.679104E-10	NaN
1113	1.000000	0.482636	7.37594e+06	-55789.1	1055.82	-29740.7	0.000000	0.000000	6.482954	0.083029	NaN	0.000000	0.001496	0.001756	28.0822	0.036597	0.002004	18.2649	-169.62	-168.11	-0.002934	0.481340	-0.600232	-0.601528	0.083029	18.2649	-0.603641	-9.345489E+7	-8.884379E-10	NaN
1113	1.000000	0.492602	7.37594e+06	-55789.1	1055.82	-29740.7	0.000000	0.000000	6.492916	-0.032864	NaN	0.000000	0.001501	0.001725	28.0823	0.026122	0.002011	12.9895	41.356	18.7548	-0.026913	0.491214	-0.590266	-0.591654	-0.032864	12.9895	-0.588368	-5.756608E+7	5.708940E-10	NaN
1113	1.000000	0.502619	7.37594e+06	-55789.1	1055.82	-29740.7	0.000000	0.000000	6.502934	0.000806	NaN	0.000000	0.001524	0.001728	28.0824	0.112988	0.001987	56.8778	-21.0705	-164.101	0.093051	0.501299	-0.580249	-0.581569	0.000806	56.8778	-0.580260	-4.449516E+7	-1.810920E-11	NaN
1113	1.000000	0.512600	7.37594e+06	-55789.1	1055.82	-29740.7	0.000000	0.000000	6.512915	0.011620	NaN	0.000000	0.001580	0.001733	28.0828	0.020635	0.002074	9.947839	153.436	13.1695	-0.019701	0.511284	-0.570268	-0.571584	0.011620	9.947839	-0.571144	-3.329984E+7	-3.489378E-10	NaN
1113	1.000000	0.522642	7.37594e+06	-55789.1	1055.82	-29740.7	0.000000	0.000000	6.522957	-0.008299	NaN	0.000000	0.001563	0.001708	28.0824	0.034608	0.002042	16.9469	-15.2652	-161.493	0.017597	0.521274	-0.560226	-0.561594	-0.008299	16.9469	-0.559859	-2.324998E+7	3.569520E-10	NaN
1113	1.000000	0.532641	7.37594e+06	-55789.1	1055.82	-29740.7	0.000000	0.000000	6.532956	0.030724	NaN	0.000000	0.001573	0.001703	28.0822	0.074228	0.001956	37.9507	62.6519	16.9855	-0.038388	0.531285	-0.550228	-0.551583	0.030724	37.9507	-0.550835	-1.743884E+7	-1.761786E-9	NaN
1113	1.000000	0.542642	7.37594e+06	-55789.1	1055.82	-29740.7	0.000000	0.000000	6.542954	-0.058809	NaN	0.000000	0.001570	0.001721	28.0824	0.042112	0.002019	20.8587	-35.3806	-162.324	-0.059498	0.541307	-0.540226	-0.541561	-0.058809	20.8587	-0.538112	-1.161886E+7	5.061535E-9	NaN
1113	1.000000	0.552644	7.37594e+06	-55789.1	1055.82	-29740.7	0.000000	0.000000	6.552957	-0.043076	NaN	0.000000	0.001544	0.001703	28.0823	0.014808	0.002029	7.297488	-127.669	18.8787	-0.007573	0.551302	-0.530224	-0.531566	-0.043076	7.297488	-0.525796	-7.83753e+06	5.496170E-9	NaN
1113	1.000000	0.562644	7.37594e+06	-55789.1	1055.82	-29740.7	0.000000	0.000000	6.562958	-0.031996	NaN	0.000000	0.001544	0.001713	28.0822	0.128394	0.002079	61.7628	123.951	-165.358	0.080610	0.561365	-0.520224	-0.521503	-0.031996	61.7628	-0.519835	-6.47598e+06	4.940657E-9	NaN
1113	1.000000	0.572669	7.37594e+06	-55789.1	1055.82	-29740.7	0.000000	0.000000	6.572986	0.063577	NaN	0.000000	0.001620	0.001722	28.0824	0.034455	0.002017	17.0787	-97.3055	18.1738	0.093805	0.571297	-0.510200	-0.511571	0.063577	17.0787	-0.512992	-5.20085e+06	-1.222430E-8	NaN
1113	1.000000	0.582661	7.37594e+06	-55789.1	1055.82	-29740.7	0.000000	0.000000	6.582973	-0.063922	NaN	0.000000	0.001587	0.001711	28.0813	0.059575	0.002120	28.105	-67.5751	-166.303	-0.012709	0.581303	-0.500207	-0.501565	-0.063922	28.105	-0.498501	-3.26667e+06	1.956796E-8	NaN
1113	1.000000	0.592649	7.37594e+06	-55789.1	1055.82	-29740.7	0.000000	0.000000	6.592962	-0.018893	NaN	0.000000	0.001616	0.001733	28.0811	0.052805	0.001992	26.5023	5.899248	14.9827	-0.001755	0.591310	-0.490220	-0.491558	-0.018893	26.5023	-0.489685	-2.46031e+06	7.679046E-9	NaN
1113	1.000000	0.602661	7.37594e+06	-55789.1	1055.82	-29740.7	0.000000	0.000000	6.602976	-0.009263	NaN	0.000000	0.001611	0.001718	28.081	0.043924	0.002062	21.302	-65.9092	-161.666	0.006122	0.601410	-0.480207	-0.481459	-0.009263	21.302	-0.479881	-1.79414e+06	5.163113E-9	NaN
1113	1.000000	0.612671	7.37594e+06	-55789.1	1055.82	-29740.7	0.000000	0.000000	6.612984	-0.038176	NaN	0.000000	0.001633	0.001714	28.0813	0.040991	0.002043	20.0679	41.4959	14.8345	-0.017585	0.611334	-0.470197	-0.471534	-0.038176	20.0679	-0.468770	-1.25359e+06	3.045375E-8	NaN
1113	1.000000	0.622702	7.37594e+06	-55789.1	1055.82	-29740.7	0.000000	0.000000	6.623018	0.021335	NaN	0.000000	0.001612	0.001691	28.0812	0.101307	0.002117	47.843	-121.926	-162.443	0.074094	0.621343	-0.460166	-0.461525	0.021335	47.843	-0.460501	-959516	-2.223485E-8	NaN
1113	1.000000	0.632675	7.37594e+06	-55789.1	1055.82	-29740.7	0.000000	0.000000	6.632989	-0.003145	NaN	0.000000	0.001616	0.001733	28.0813	0.042882	0.001899	22.5846	-104.928	13.9997	-0.054485	0.631306	-0.450193	-0.451562	-0.003145	22.5846	-0.450089	-684847	4.592445E-9	NaN
1113	1.000000	0.642676	7.37594e+06	-55789.1	1055.82	-29740.7	0.000000	0.000000	6.642991	-0.002692	NaN	0.000000	0.001637	0.001727	28.0812	0.081476	0.001944	41.9072	64.7821	-161.515	-0.015938	0.641364	-0.440192	-0.441505	-0.002692	41.9072	-0.440144	-495898	5.428952E-9	NaN
1113	1.000000	0.652667	7.37594e+06	-55789.1	1055.82	-29740.7	0.000000	0.000000	6.652981	-0.026530	NaN	0.000000	0.001645	0.001720	28.0815	0.060774	0.001967	30.9034	-69.1313	15.2222	-0.041111	0.651298	-0.430201	-0.431570	-0.026530	30.9034	-0.429557	-351398	7.549762E-8	NaN
1113	1.000000	0.662686	7.37594e+06	-55789.1	1055.82	-29740.7	0.000000	0.000000	6.663001	0.012846	NaN	0.000000	0.001545	0.001733	28.0811	0.078934	0.002000	39.4595	113.884	-167.895	0.009033	0.661371	-0.420182	-0.421497	0.012846	39.4595	-0.420427	-260894	-4.923933E-8	NaN
1113	1.000000	0.672663	7.37594e+06	-55789.1	1055.82	-29740.7	0.000000	0.000000	6.672979	0.043281	NaN	0.000000	0.001528	0.001713	28.0811	0.084182	0.002056	40.946	-175.872	15.16	-0.035942	0.671371	-0.410205	-0.411497	0.043281	40.946	-0.410998	-191688	-2.257882E-7	NaN
1113	1.000000	0.682719	7.37594e+06	-55789.1	1055.82	-29740.7	0.000000	0.000000	6.683034	0.012059	NaN	0.000000	0.001513	0.001748	28.0811	0.040083	0.002088	19.1982	31.7013	-162.882	0.029231	0.681384	-0.400149	-0.401485	0.012059	19.1982	-0.400620	-136407	-8.840728E-8	NaN
1113	1.000000	0.692717	7.37594e+06	-55789.1	1055.82	-29740.7	0.000000	0.000000	6.693033	0.027004	NaN	0.000000	0.001521	0.001746	28.0813	0.092994	0.002089	44.5226	166.005	14.6437	0.042881	0.691363	-0.390151	-0.391505	0.027004	44.5226	-0.390606	-98136.7	-2.751637E-7	NaN
1113	1.000000	0.702709	7.37594e+06	-55789.1	1055.82	-29740.7	0.000000	0.000000	6.703023	-0.008536	NaN	0.000000	0.001517	0.001728	28.0811	0.054843	0.001957	28.0221	-28.0197	-163.268	-0.015028	0.701403	-0.380159	-0.381466	-0.008536	28.0221	-0.379931	-69008	1.236925E-7	NaN
1113	1.000000	0.712705	7.37594e+06	-55789.1	1055.82	-29740.7	0.000000	0.000000	6.713020	0.009198	NaN	0.000000	0.001546	0.001724	28.0811	0.126780	0.001985	63.8634	-89.4896	14.2857	-0.009600	0.711365	-0.370163	-0.371503	0.009198	63.8634	-0.370271	-50122.7	-1.835126E-7	NaN
1113	1.000000	0.722701	7.37594e+06	-55789.1	1055.82	-29740.7	0.000000	0.000000	6.723017	0.053194	NaN	0.000000	0.001540	0.001748	28.0824	0.140392	0.001941	72.3122	-171.955	-164.546	0.045815	0.721401	-0.360168	-0.361467	0.053194	72.3122	-0.360719	-36495.7	-1.457551E-6	NaN
1113	1.000000	0.732719	7.37594e+06	-55789.1	1055.82	-29740.7	0.000000	0.000000	6.733033	-0.017885	NaN	0.000000	0.001538	0.001736	28.082	0.021349	0.001955	10.9219	-159.907	18.7097	0.001538	0.731364	-0.350149	-0.351504	-0.017885	10.9219	-0.348921	-24622.9	7.263399E-7	NaN
1113	1.000000	0.742727	7.37594e+06	-55789.1	1055.82	-29740.7	0.000000	0.000000	6.743043	0.023304	NaN	0.000000	0.001554	0.001740	28.0822	0.114114	0.002065	55.2536	12.0409	-167.216	0.007586	0.741418	-0.340141	-0.341450	0.023304	55.2536	-0.340457	-18544.5	-1.256636E-6	NaN
1113	1.000000	0.752716	7.37594e+06	-55789.1	1055.82	-29740.7	0.000000	0.000000	6.753031	0.027512	NaN	0.000000	0.001547	0.001780	28.0823	0.081040	0.001980	40.9236	-10.5946	14.3668	0.045030	0.751343	-0.330153	-0.331525	0.027512	40.9236	-0.330657	-13337.3	-2.062801E-6	NaN
1113	1.000000	0.762737	7.37594e+06	-55789.1	1055.82	-29740.7	0.000000	0.000000	6.763051	-0.018272	NaN	0.000000	0.001555	0.001724	28.0825	0.019785	0.002039	9.702994	-62.0667	-166.97	0.000635	0.761430	-0.320131	-0.321438	-0.018272	9.702994	-0.318719	-8907.82	2.051279E-6	NaN
1113	1.000000	0.772756	7.37594e+06	-55789.1	1055.82	-29740.7	0.000000	0.000000	6.773070	-0.019904	NaN	0.000000	0.001563	0.001723	28.0822	0.040776	0.001977	20.6277	128.626	15.221	-0.010447	0.771415	-0.310112	-0.311453	-0.019904	20.6277	-0.309388	-6486.41	3.068505E-6	NaN
1113	1.000000	0.782730	7.37594e+06	-55789.1	1055.82	-29740.7	0.000000	0.000000	6.783042	-0.062904	NaN	0.000000	0.001515	0.001706	28.0822	0.100172	0.002076	48.2549	-36.1011	-164.503	-0.043677	0.781486	-0.300138	-0.301382	-0.062904	48.2549	-0.299161	-4572.33	1.375749E-5	NaN
1113	1.000000	0.792742	7.37594e+06	-55789.1	1055.82	-29740.7	0.000000	0.000000	6.793056	-0.007051	NaN	0.000000	0.001533	0.001681	28.0824	0.042456	0.002063	20.5819	154.146	15.6295	0.029779	0.791399	-0.290127	-0.291469	-0.007051	20.5819	-0.289870	-3321.62	2.122786E-6	NaN
1113	1.000000	0.802744	7.37594e+06	-55789.1	1055.82	-29740.7	0.000000	0.000000	6.803057	-0.046959	NaN	0.000000	0.001531	0.001693	28.0825	0.122588	0.002075	59.0686	144.021	-164.727	-0.058289	0.801466	-0.280124	-0.281402	-0.046959	59.0686	-0.279528	-2321.89	2.022450E-5	NaN
1113	1.000000	0.812781	7.37594e+06	-55789.1	1055.82	-29740.7	0.000000	0.000000	6.813095	-0.021991	NaN	0.000000	0.001568	0.001714	28.0824	0.009858	0.002036	4.842402	66.1694	13.0524	0.022303	0.811418	-0.270087	-0.271450	-0.021991	4.842402	-0.266681	-1482.61	1.483286E-5	NaN
1113	1.000000	0.822754	7.37594e+06	-55789.1	1055.82	-29740.7	0.000000	0.000000	6.823070	0.036459	NaN	0.000000	0.001523	0.001720	28.0825	0.182312	0.002128	85.6599	117.704	-164.423	-0.024020	0.821490	-0.260115	-0.261378	0.036459	85.6599	-0.260434	-1190.05	-3.063665E-5	NaN
1113	1.000000	0.832755	7.37594e+06	-55789.1	1055.82	-29740.7	0.000000	0.000000	6.833068	-0.026417	NaN	0.000000	0.001539	0.001720	28.0826	0.060050	0.001967	30.5262	-9.563629	19.4552	0.029344	0.831417	-0.250113	-0.251451	-0.026417	30.5262	-0.249464	-806.641	3.274943E-5	NaN
1113	1.000000	0.842797	7.37594e+06	-55789.1	1055.82	-29740.7	0.000000	0.000000	6.843113	0.034128	NaN	0.000000	0.001520	0.001704	28.0827	0.065688	0.001909	34.4068	-168.349	-164.376	0.046369	0.841419	-0.240071	-0.241449	0.034128	34.4068	-0.240815	-591.943	-5.765437E-5	NaN
1113	1.000000	0.852753	7.37594e+06	-55789.1	1055.82	-29740.7	0.000000	0.000000	6.853068	0.014246	NaN	0.000000	0.001537	0.001712	28.0822	0.090002	0.001855	48.514	-28.7745	11.2043	0.035884	0.851435	-0.230115	-0.231433	0.014246	48.514	-0.230335	-405.331	-3.514585E-5	NaN
1113	1.000000	0.862758	7.37594e+06	-55789.1	1055.82	-29740.7	0.000000	0.000000	6.863071	-0.052938	NaN	0.000000	0.001541	0.001704	28.0813	0.013984	0.001886	7.413159	179.038	-163.719	-0.044404	0.861466	-0.220110	-0.221402	-0.052938	7.413159	-0.214754	-228.854	0.000231	NaN
1113	1.000000	0.872768	7.37594e+06	-55789.1	1055.82	-29740.7	0.000000	0.000000	6.873085	0.053111	NaN	0.000000	0.001568	0.001718	28.0814	0.101143	0.001935	52.2821	98.8124	13.4652	0.015344	0.871390	-0.210100	-0.211478	0.053111	52.2821	-0.210862	-198.049	-0.000268	NaN
1113	1.000000	0.882783	7.37594e+06	-55789.1	1055.82	-29740.7	0.000000	0.000000	6.883099	0.028756	NaN	0.000000	0.001539	0.001736	28.0815	0.052758	0.001893	27.8678	-127.003	-165.944	0.042226	0.881465	-0.200085	-0.201403	0.028756	27.8678	-0.200859	-136.083	-0.000211	NaN
1113	1.000000	0.892772	7.37594e+06	-55789.1	1055.82	-29740.7	0.000000	0.000000	6.893087	0.006960	NaN	0.000000	0.001553	0.001720	28.0811	0.103309	0.001998	51.71	-111.912	15.3385	-0.038272	0.891444	-0.190096	-0.191424	0.006960	51.71	-0.190197	-90.6409	-7.678596E-5	NaN
1113	1.000000	0.902777	7.37594e+06	-55789.1	1055.82	-29740.7	0.000000	0.000000	6.903090	-0.033709	NaN	0.000000	0.001560	0.001682	28.0812	0.073367	0.001997	36.7391	-74.0118	-162.239	-0.065059	0.901460	-0.180092	-0.181408	-0.033709	36.7391	-0.179403	-59.6089	0.000566	NaN
1113	1.000000	0.912779	7.37594e+06	-55789.1	1055.82	-29740.7	0.000000	0.000000	6.913093	3.806950E-5	NaN	0.000000	0.001546	0.001740	28.0814	0.025148	0.002064	12.1845	143.284	15.713	0.039495	0.911432	-0.170089	-0.171436	3.806950E-5	12.1845	-0.170092	-41.2294	-9.233569E-7	NaN
1113	1.000000	0.922796	7.37594e+06	-55789.1	1055.82	-29740.7	0.000000	0.000000	6.923111	0.011565	NaN	0.000000	0.001573	0.001736	28.0815	0.094516	0.001982	47.6925	-176.111	-163.007	0.064086	0.921503	-0.160072	-0.161365	0.011565	47.6925	-0.160254	-27.7009	-0.000417	NaN
1113	1.000000	0.932814	7.37594e+06	-55789.1	1055.82	-29740.7	0.000000	0.000000	6.933131	0.059354	NaN	0.000000	0.001548	0.001734	28.0813	0.044853	0.001928	23.2688	7.766343	15.8221	-0.000435	0.931422	-0.150055	-0.151446	0.059354	23.2688	-0.151968	-19.6695	-0.003018	NaN
1113	1.000000	0.942786	7.37594e+06	-55789.1	1055.82	-29740.7	0.000000	0.000000	6.943104	0.057957	NaN	0.000000	0.001561	0.001739	28.0813	0.048939	0.001907	25.669	-2.475796	-162.143	0.105458	0.941515	-0.140082	-0.141354	0.057957	25.669	-0.141775	-12.7708	-0.004538	NaN
1113	1.000000	0.952808	7.37594e+06	-55789.1	1055.82	-29740.7	0.000000	0.000000	6.953122	-0.014295	NaN	0.000000	0.001557	0.001746	28.0817	0.057078	0.002009	28.417	26.6615	15.4897	0.040465	0.951421	-0.130060	-0.131447	-0.014295	28.417	-0.129683	-7.513642	0.001903	NaN
1113	1.000000	0.962803	7.37594e+06	-55789.1	1055.82	-29740.7	0.000000	0.000000	6.963119	0.036064	NaN	0.000000	0.001576	0.001734	28.0812	0.021597	0.002185	9.885131	144.163	-161.266	0.007852	0.961451	-0.120065	-0.121417	0.036064	9.885131	-0.122801	-5.499268	-0.006558	NaN
1113	1.000000	0.972794	7.37594e+06	-55789.1	1055.82	-29740.7	0.000000	0.000000	6.973111	0.057214	NaN	0.000000	0.001529	0.001694	28.0813	0.104565	0.002094	49.9381	-141.046	11.3502	0.020777	0.971462	-0.110074	-0.111406	0.057214	49.9381	-0.110933	-3.144173	-0.018197	NaN
1113	1.000000	0.982817	7.37594e+06	-55789.1	1055.82	-29740.7	0.000000	0.000000	6.983131	-0.020501	NaN	0.000000	0.001549	0.001746	28.0814	0.093025	0.001918	48.4949	163.007	-165.274	-0.004780	0.981511	-0.100051	-0.101358	-0.020501	48.4949	-0.099734	-1.802516	0.011374	NaN
1113	1.000000	0.992844	7.37594e+06	-55789.1	1055.82	-29740.7	0.000000	0.000000	6.993159	0.010088	NaN	0.000000	0.001561	0.001777	28.0826	0.041572	0.001884	22.0705	-118.061	12.5345	0.037042	0.991508	-0.090024	-0.091360	0.010088	22.0705	-0.090367	-1.102580	-0.009149	NaN
1113	1.000000	1.002813	7.37594e+06	-55789.1	1055.82	-29740.7	0.000000	0.000000	7.003128	0.009872	NaN	0.000000	0.001597	0.001737	28.0823	0.104621	0.002034	51.4246	50.1177	-170.552	-0.004914	1.001530	-0.080055	-0.081338	0.009872	51.4246	-0.080199	-0.626113	-0.015768	NaN
1113	1.000000	1.012842	7.37594e+06	-55789.1	1055.82	-29740.7	0.000000	0.000000	7.013160	0.086282	NaN	0.000000	0.001593	0.001774	28.0824	0.026738	0.001954	13.6871	-44.1941	11.7874	0.052502	1.011517	-0.070026	-0.071351	0.086282	13.6871	-0.074754	-0.455155	-0.189567	NaN
1113	1.000000	1.022843	7.37594e+06	-55789.1	1055.82	-29740.7	0.000000	0.000000	7.023157	-0.004228	NaN	0.000000	0.001592	0.001733	28.0825	0.052388	0.002030	25.8102	35.208	-164.403	-0.020951	1.021511	-0.060025	-0.061357	-0.004228	25.8102	-0.059902	-0.178937	0.023630	NaN
1113	1.000000	1.032820	7.37594e+06	-55789.1	1055.82	-29740.7	0.000000	0.000000	7.033135	0.013878	NaN	0.000000	0.001602	0.001719	28.0825	0.054780	0.001999	27.4102	-33.1372	16.7469	-0.021146	1.031433	-0.050048	-0.051435	0.013878	27.4102	-0.050428	-0.094010	-0.147622	NaN
1113	1.000000	1.042833	7.37594e+06	-55789.1	1055.82	-29740.7	0.000000	0.000000	7.043150	0.062805	NaN	0.000000	0.001565	0.001720	28.0823	0.037264	0.001977	18.8505	17.4566	-161.349	0.071561	1.041550	-0.040035	-0.041318	0.062805	18.8505	-0.042534	-0.054024	-1.162550	NaN
1113	1.000000	1.052851	7.37594e+06	-55789.1	1055.82	-29740.7	0.000000	0.000000	7.053166	0.005390	NaN	0.000000	0.001499	0.001721	28.0823	0.086969	0.002026	42.9162	142.846	12.3657	-0.080344	1.051524	-0.030017	-0.031344	0.005390	42.9162	-0.030111	-0.023177	-0.232547	NaN
1113	1.000000	1.062846	7.37594e+06	-55789.1	1055.82	-29740.7	0.000000	0.000000	7.063160	-0.033076	NaN	0.000000	0.001520	0.001692	28.0826	0.112548	0.002135	52.7168	-119.569	-165.602	-0.053951	1.061594	-0.020022	-0.021274	-0.033076	52.7168	-0.019551	-0.012235	2.703456	NaN
1113	1.000000	1.072865	7.37594e+06	-55789.1	1055.82	-29740.7	0.000000	0.000000	7.073181	0.039996	NaN	0.000000	0.001596	0.001706	28.0825	0.123320	0.001993	61.8627	144.336	12.9939	0.025013	1.071481	-0.010003	-0.011387	0.039996	61.8627	-0.010488	-0.006666	-5.999816	NaN
1113	1.000000	1.082854	7.37594e+06	-55789.1	1055.82	-29740.7	0.000000	0.000000	7.083171	0.066685	NaN	0.000000	0.001561	0.001700	28.0821	0.047077	0.001954	24.0885	-37.8116	-165.95	0.063310	1.081559	-1.449165E-5	-0.001309	0.066685	24.0885	-0.002091	-0.001502	-44.3933	NaN
1113	1.000000	1.092846	7.37594e+06	-55789.1	1055.82	-29740.7	0.000000	0.000000	7.093375	5.220614	NaN	0.000000	0.001551	0.001722	28.0825	5.972838	0.001746	3420.5	14.6509	8.505799	3.977856	1.091427	0.009978	0.008559	5.220614	3420.5	0.008833	0.007913	659.72	35130.3
1113	2.000000	1.097484	7.37594e+06	-55789.1	1055.82	-29740.7	0.000000	0.000000	7.098140	8.305734	NaN	0.000000	0.001572	0.001714	28.0827	9.480637	0.001531	6193.21	5.914726	-171.042	7.761251	1.097175	0.014616	0.014307	8.305734	6193.21	0.013610	0.013476	616.329	48742.4
1113	2.000000	1.099993	7.37594e+06	-55789.1	1055.82	-29740.7	0.000000	0.000000	7.100765	11.1367	NaN	0.000000	0.001577	0.001752	28.0824	12.4249	0.001766	7036.34	10.1578	6.552396	12.8952	1.099651	0.017124	0.016783	11.1367	7036.34	0.015937	0.016556	672.678	49962.6
1113	2.000000	1.102503	7.37594e+06	-55789.1	1055.82	-29740.7	0.000000	0.000000	7.103368	13.3655	NaN	0.000000	0.001590	0.001728	28.0823	15.4026	0.001899	8110.64	9.931768	-174.749	14.4212	1.102101	0.019635	0.019233	13.3655	8110.64	0.018399	0.020089	665.31	52281.4
1113	2.000000	1.104969	7.37594e+06	-55789.1	1055.82	-29740.7	0.000000	0.000000	7.106014	17.7409	NaN	0.000000	0.001600	0.001738	28.0814	17.7063	0.001838	9632.79	10.6386	2.948884	16.9718	1.104601	0.022101	0.021733	17.7409	9632.79	0.020720	0.023686	748.991	57184.2
1113	2.000000	1.107364	7.37594e+06	-55789.1	1055.82	-29740.7	0.000000	0.000000	7.108509	20.1847	NaN	0.000000	0.001591	0.001752	28.0813	18.8441	0.001611	11700.7	4.565099	-175.409	17.9476	1.107169	0.024496	0.024301	20.1847	11700.7	0.023202	0.027826	725.402	64086.1
1113	2.000000	1.109936	7.37594e+06	-55789.1	1055.82	-29740.7	0.000000	0.000000	7.111346	26.6271	NaN	0.000000	0.001603	0.001737	28.0815	22.8047	0.001772	12871.6	4.943701	5.913592	25.0309	1.109530	0.027067	0.026662	26.6271	12871.6	0.025516	0.031961	833.118	65780.3
1113	2.000000	1.112424	7.37594e+06	-55789.1	1055.82	-29740.7	0.000000	0.000000	7.114069	32.3557	NaN	0.000000	0.001575	0.001744	28.0811	25.8512	0.001842	14037.3	4.291113	-175.672	30.8208	1.112095	0.029556	0.029227	32.3557	14037.3	0.027827	0.036360	889.876	67258.3
1113	2.000000	1.114916	7.37594e+06	-55789.1	1055.82	-29740.7	0.000000	0.000000	7.116766	37.3172	NaN	0.000000	0.001579	0.001767	28.0813	27.745	0.001866	14866.1	7.491939	1.567359	35.001	1.114470	0.032048	0.031602	37.3172	14866.1	0.030166	0.041088	908.232	67005.9
1113	2.000000	1.117422	7.37594e+06	-55789.1	1055.82	-29740.7	0.000000	0.000000	7.119513	43.178	NaN	0.000000	0.001567	0.001718	28.0811	31.032	0.001737	17868.4	9.002421	178.33	43.4734	1.117044	0.034554	0.034175	43.178	17868.4	0.032742	0.046619	926.196	75609.9
1113	2.000000	1.119897	7.37594e+06	-55789.1	1055.82	-29740.7	0.000000	0.000000	7.122210	48.5737	NaN	0.000000	0.001586	0.001722	28.0816	33.513	0.001724	19434.5	5.101962	0.269162	47.2987	1.119598	0.037029	0.036730	48.5737	19434.5	0.035154	0.052106	932.217	77786.7
1113	2.000000	1.122375	7.37594e+06	-55789.1	1055.82	-29740.7	0.000000	0.000000	7.124846	52.4005	NaN	0.000000	0.001570	0.001732	28.0811	37.1927	0.001800	20661.1	7.929162	176.693	52.9085	1.122173	0.039507	0.039305	52.4005	20661.1	0.037605	0.057985	903.688	78391.5
1113	2.000000	1.124949	7.37594e+06	-55789.1	1055.82	-29740.7	0.000000	0.000000	7.127856	63.0202	NaN	0.000000	0.001580	0.001727	28.0813	39.3025	0.001783	22037.9	12.8631	-7.642260	65.042	1.124459	0.042081	0.041591	63.0202	22037.9	0.039936	0.063863	986.8	79674.3
1113	2.000000	1.127443	7.37594e+06	-55789.1	1055.82	-29740.7	0.000000	0.000000	7.130845	75.0418	NaN	0.000000	0.001571	0.001731	28.0813	40.7431	0.001944	20955.3	7.398286	179.161	77.2957	1.127049	0.044575	0.044180	75.0418	20955.3	0.041889	0.069002	1087.54	72885
1113	2.000000	1.129876	7.37594e+06	-55789.1	1055.82	-29740.7	0.000000	0.000000	7.133389	77.7542	NaN	0.000000	0.001560	0.001696	28.0809	43.9243	0.001805	24333	4.335691	-1.652483	74.8876	1.129532	0.047008	0.046664	77.7542	24333	0.044611	0.076487	1016.57	80385
1113	2.000000	1.132358	7.37594e+06	-55789.1	1055.82	-29740.7	0.000000	0.000000	7.136396	90.5167	NaN	0.000000	0.001556	0.001702	28.0808	45.9946	0.001872	24571.2	7.064305	176.895	88.7907	1.131939	0.049490	0.049071	90.5167	24571.2	0.046727	0.082565	1096.3	78126.9
1113	2.000000	1.134793	7.37594e+06	-55789.1	1055.82	-29740.7	0.000000	0.000000	7.139263	101.009	NaN	0.000000	0.001591	0.001727	28.0812	47.5053	0.001778	26712.3	4.111261	-1.425288	95.2344	1.134433	0.051925	0.051565	101.009	26712.3	0.049089	0.089617	1127.13	81524.9
1113	2.000000	1.137330	7.37594e+06	-55789.1	1055.82	-29740.7	0.000000	0.000000	7.142569	119.699	NaN	0.000000	0.001605	0.001738	28.0816	51.2052	0.001823	28091.7	7.837718	174.427	116.398	1.136985	0.054462	0.054117	119.699	28091.7	0.051266	0.096366	1242.13	82677.6
1113	2.000000	1.139858	7.37594e+06	-55789.1	1055.82	-29740.7	0.000000	0.000000	7.145421	127.562	NaN	0.000000	0.001635	0.001692	28.0823	52.5102	0.001677	31303.6	3.286698	-1.630713	126.618	1.139455	0.056990	0.056587	127.562	31303.6	0.053934	0.104960	1215.34	88278.8
1113	2.000000	1.142374	7.37594e+06	-55789.1	1055.82	-29740.7	0.000000	0.000000	7.148431	139.586	NaN	0.000000	0.001597	0.001727	28.0823	56.9554	0.001733	32867.6	3.564539	176.711	138.469	1.142159	0.059506	0.059291	139.586	32867.6	0.056320	0.112945	1235.87	89352.6
1113	2.000000	1.144761	7.37594e+06	-55789.1	1055.82	-29740.7	0.000000	0.000000	7.151371	153.05	NaN	0.000000	0.001603	0.001750	28.0825	58.1688	0.001650	35260.3	4.217529	-4.389840	144.707	1.144479	0.061892	0.061611	153.05	35260.3	0.058637	0.120966	1265.23	92624.8
1113	2.000000	1.147279	7.37594e+06	-55789.1	1055.82	-29740.7	0.000000	0.000000	7.154750	173.955	NaN	0.000000	0.001554	0.001722	28.0825	59.8944	0.001760	34031.9	6.167437	174.477	169.459	1.147024	0.064411	0.064156	173.955	34031.9	0.060577	0.127886	1360.23	86945.8
1113	2.000000	1.149754	7.37594e+06	-55789.1	1055.82	-29740.7	0.000000	0.000000	7.158049	193.994	NaN	0.000000	0.001561	0.001706	28.0823	62.4565	0.001748	35739.5	9.086556	-9.346743	187.108	1.149409	0.066886	0.066541	193.994	35739.5	0.062815	0.136094	1425.44	88511.8
1113	2.000000	1.152345	7.37594e+06	-55789.1	1055.82	-29740.7	0.000000	0.000000	7.161323	210.601	NaN	0.000000	0.001558	0.001694	28.0824	65.8939	0.001783	36956.7	4.809251	175.903	209.778	1.152023	0.069477	0.069155	210.601	36956.7	0.065203	0.145123	1451.19	88633.7
1113	2.000000	1.154896	7.37594e+06	-55789.1	1055.82	-29740.7	0.000000	0.000000	7.164526	226.444	NaN	0.000000	0.001538	0.001695	28.0825	67.8463	0.001792	37860.8	2.942838	-2.867895	224.667	1.154562	0.072028	0.071694	226.444	37860.8	0.067542	0.154233	1468.2	88079.4
1113	2.000000	1.157335	7.37594e+06	-55789.1	1055.82	-29740.7	0.000000	0.000000	7.167794	246.58	NaN	0.000000	0.001542	0.001696	28.0824	71.2051	0.001830	38909.8	8.278677	172.006	246.662	1.156952	0.074467	0.074084	246.58	38909.8	0.069714	0.162926	1513.45	88071.8
1113	2.000000	1.159797	7.37594e+06	-55789.1	1055.82	-29740.7	0.000000	0.000000	7.170945	263.353	NaN	0.000000	0.001570	0.001687	28.0824	73.1927	0.001813	40376.7	3.429733	-4.077054	258.211	1.159492	0.076928	0.076624	263.353	40376.7	0.072037	0.172472	1526.93	88827.1
1113	2.000000	1.162376	7.37594e+06	-55789.1	1055.82	-29740.7	0.000000	0.000000	7.174454	285.933	NaN	0.000000	0.001553	0.001679	28.0825	75.2306	0.001893	39748	0.100603	179.368	286.56	1.162041	0.079508	0.079172	285.933	39748	0.074113	0.181221	1577.82	85306.9
1113	2.000000	1.164881	7.37594e+06	-55789.1	1055.82	-29740.7	0.000000	0.000000	7.177633	302.331	NaN	0.000000	0.001568	0.001673	28.0827	78.2952	0.001777	44064	5.435636	-6.793068	302.843	1.164536	0.082013	0.081668	302.331	44064	0.076867	0.193137	1565.37	91606.1
1113	2.000000	1.167273	7.37594e+06	-55789.1	1055.82	-29740.7	0.000000	0.000000	7.181037	326.916	NaN	0.000000	0.001561	0.001688	28.0824	79.8779	0.001912	41777.4	3.081572	176.218	322.743	1.166943	0.084405	0.084075	326.916	41777.4	0.078536	0.200536	1630.21	85235
1113	2.000000	1.169820	7.37594e+06	-55789.1	1055.82	-29740.7	0.000000	0.000000	7.184181	341.447	NaN	0.000000	0.001559	0.001711	28.0825	83.6679	0.001818	46022.8	4.483596	-6.380712	338.512	1.169389	0.086952	0.086521	341.447	46022.8	0.081387	0.213470	1599.51	91007.5
1113	2.000000	1.172322	7.37594e+06	-55789.1	1055.82	-29740.7	0.000000	0.000000	7.187629	364.432	NaN	0.000000	0.001598	0.001699	28.0811	85.1622	0.001807	47116.8	0.306758	177.291	363.158	1.172062	0.089454	0.089194	364.432	47116.8	0.083653	0.224016	1626.82	90951.4
1113	2.000000	1.174830	7.37594e+06	-55789.1	1055.82	-29740.7	0.000000	0.000000	7.191091	387.613	NaN	0.000000	0.001569	0.001690	28.0816	86.8406	0.001851	46924.9	4.340646	-6.061990	384.759	1.174479	0.091962	0.091611	387.613	46924.9	0.085767	0.234072	1655.96	88613.9
1113	2.000000	1.177313	7.37594e+06	-55789.1	1055.82	-29740.7	0.000000	0.000000	7.194130	401.132	NaN	0.000000	0.001574	0.001715	28.081	88.3984	0.001729	51123.9	3.710289	173.557	400.137	1.176981	0.094445	0.094113	401.132	51123.9	0.088560	0.247678	1619.57	93854.2
1113	2.000000	1.179855	7.37594e+06	-55789.1	1055.82	-29740.7	0.000000	0.000000	7.197386	418.505	NaN	0.000000	0.001565	0.001678	28.0813	91.1981	0.001741	52368.6	6.702100	-9.720544	419.132	1.179607	0.096986	0.096739	418.505	52368.6	0.090993	0.259816	1610.77	93866.6
1113	2.000000	1.182333	7.37594e+06	-55789.1	1055.82	-29740.7	0.000000	0.000000	7.201106	448.685	NaN	0.000000	0.001573	0.001729	28.0813	94.806	0.001792	52906.7	7.405144	169.925	449.035	1.181918	0.099465	0.099050	448.685	52906.7	0.093105	0.270574	1658.27	92926.7
1113	2.000000	1.184753	7.37594e+06	-55789.1	1055.82	-29740.7	0.000000	0.000000	7.204271	466.786	NaN	0.000000	0.001542	0.001740	28.0815	95.0815	0.001776	53527	0.461240	-3.313477	459.4	1.184321	0.101885	0.101453	466.786	53527	0.095345	0.282210	1654.04	92057.7
1113	2.000000	1.187192	7.37594e+06	-55789.1	1055.82	-29740.7	0.000000	0.000000	7.207706	490.997	NaN	0.000000	0.001542	0.001750	28.0813	96.8172	0.001749	55340	0.887230	176.042	482.999	1.186993	0.104324	0.104125	490.997	55340	0.097670	0.294526	1667.08	93164.6
1113	2.000000	1.189747	7.37594e+06	-55789.1	1055.82	-29740.7	0.000000	0.000000	7.209654	476.248	NaN	0.000000	0.001556	0.001734	28.0814	100.319	0.001836	54651.3	2.548041	-6.173464	470.289	1.189538	0.106879	0.106670	476.248	54651.3	0.100343	0.308994	1541.29	89825.3
1113	2.000000	1.192196	7.37594e+06	-55789.1	1055.82	-29740.7	0.000000	0.000000	7.214394	531.942	NaN	0.000000	0.001561	0.001711	28.0814	103.219	0.001771	58292.1	3.443804	173.253	526.353	1.191953	0.109328	0.109085	531.942	58292.1	0.102483	0.320811	1658.12	94028.2
1113	2.000000	1.194237	7.37594e+06	-55789.1	1055.82	-29740.7	0.000000	0.000000	7.217320	553.47	NaN	0.000000	0.001560	0.001700	28.0812	103.299	0.001777	58127.2	3.911350	172.763	547.745	1.193932	0.111368	0.111064	553.47	58127.2	0.104227	0.330592	1674.18	92364.8