File: remote_trans/data/nanoindenter/0828-1/data/Data_2025-08-06,11h17m57s/2025-07-22_16-23-58_1_445.txt
2025-07-22, 16:23:58, 1
Index	Phase	Displacement	Time	Pos X	Pos Y	Pos Z	Rot A	Rot B	Piezo Z	Force A	Force B	Gripper	Voltage A	Voltage B	Temperature	Amplitude force	Amplitude pos	Stiffness	Phase shift	Phase excitation	Force A raw	Displacement raw	HMax	HMax raw	Real Force	Real Stiffness	Contact Depth	Area	Hardness	Reduced Mod.
[#]	[#]	[um]	[s]	[um]	[um]	[um]	[m°]	[m°]	[um]	[uN]	[uN]	[V]	[V]	[V]	[°C]	[uN]	[um]	[N/m]	[°]	[°]	[uN]	[um]	[um]	[um]	[uN]	[N/m]	[um]	[um^2]	[MPa]	[MPa]
445	1.000000	0.002834	7.36941e+06	-54839.1	1005.82	-29742.9	0.000000	0.000000	6.002791	-0.026333	NaN	0.000000	0.001618	0.001681	28.0805	0.064887	0.000995	65.1972	-95.3952	-162.887	-0.021040	0.001593	-1.099808	-1.101049	-0.026333	65.1972	-1.099505	-4.936543E+14	5.334299E-17	NaN
445	1.000000	0.012912	7.36941e+06	-54839.1	1005.82	-29742.9	0.000000	0.000000	6.012866	-0.080465	NaN	0.000000	0.001608	0.001663	28.0803	0.104907	0.001151	91.1275	66.1946	20.6649	-0.041747	0.011423	-1.089731	-1.091219	-0.080465	91.1275	-1.089068	-3.575219E+14	2.250639E-16	NaN
445	1.000000	0.022780	7.36941e+06	-54839.1	1005.82	-29742.9	0.000000	0.000000	6.022735	-0.062316	NaN	0.000000	0.001608	0.001686	28.0805	0.053937	0.001712	31.5119	115.783	-166.873	0.028538	0.021502	-1.079863	-1.081140	-0.062316	31.5119	-1.078379	-2.568931E+14	2.425755E-16	NaN
445	1.000000	0.032805	7.36941e+06	-54839.1	1005.82	-29742.9	0.000000	0.000000	6.032764	0.016569	NaN	0.000000	0.001599	0.001693	28.0813	0.069040	0.001918	36.0045	-52.8824	17.5494	0.009840	0.031435	-1.069837	-1.071207	0.016569	36.0045	-1.070182	-1.993587E+14	-8.311224E-17	NaN
445	1.000000	0.042803	7.36941e+06	-54839.1	1005.82	-29742.9	0.000000	0.000000	6.042759	-0.029330	NaN	0.000000	0.001582	0.001694	28.0814	0.053071	0.001913	27.744	-46.2375	-162.757	-0.008894	0.041444	-1.059839	-1.061198	-0.029330	27.744	-1.059047	-1.412563E+14	2.076353E-16	NaN
445	1.000000	0.052802	7.36941e+06	-54839.1	1005.82	-29742.9	0.000000	0.000000	6.052758	-0.050033	NaN	0.000000	0.001627	0.001655	28.0817	0.104861	0.001938	54.1144	15.3732	11.9521	-0.041715	0.051420	-1.049840	-1.051222	-0.050033	54.1144	-1.049147	-1.039788E+14	4.811880E-16	NaN
445	1.000000	0.062794	7.36941e+06	-54839.1	1005.82	-29742.9	0.000000	0.000000	6.062750	-0.036655	NaN	0.000000	0.001607	0.001687	28.0818	0.110231	0.001960	56.2469	-141.64	-163.561	-0.009767	0.061492	-1.039848	-1.041150	-0.036655	56.2469	-1.039359	-7.679851E+13	4.772814E-16	NaN
445	1.000000	0.072797	7.36941e+06	-54839.1	1005.82	-29742.9	0.000000	0.000000	6.072751	-0.102795	NaN	0.000000	0.001594	0.001656	28.0816	0.081370	0.002115	38.4795	-136.957	13.9243	-0.065800	0.071447	-1.029845	-1.031195	-0.102795	38.4795	-1.027841	-5.375824E+13	1.912178E-15	NaN
445	1.000000	0.082793	7.36941e+06	-54839.1	1005.82	-29742.9	0.000000	0.000000	6.082749	-0.054271	NaN	0.000000	0.001617	0.001681	28.0815	0.101331	0.002048	49.4826	-80.6882	-165.731	-0.049757	0.081524	-1.019849	-1.021118	-0.054271	49.4826	-1.019026	-4.091221E+13	1.326512E-15	NaN
445	1.000000	0.092795	7.36941e+06	-54839.1	1005.82	-29742.9	0.000000	0.000000	6.092754	0.019139	NaN	0.000000	0.001673	0.001685	28.0817	0.057652	0.001975	29.1835	167.362	14.0624	-0.026147	0.091472	-1.009847	-1.011170	0.019139	29.1835	-1.010339	-3.125692E+13	-6.123219E-16	NaN
445	1.000000	0.102809	7.36941e+06	-54839.1	1005.82	-29742.9	0.000000	0.000000	6.102764	-0.053785	NaN	0.000000	0.001679	0.001689	28.0817	0.028268	0.002067	13.6756	37.8359	-169.232	-0.001827	0.101533	-0.999834	-1.001109	-0.053785	13.6756	-0.996884	-2.059748E+13	2.611245E-15	NaN
445	1.000000	0.112812	7.36941e+06	-54839.1	1005.82	-29742.9	0.000000	0.000000	6.112767	-0.057252	NaN	0.000000	0.001662	0.001688	28.0817	0.049903	0.001870	26.6823	-16.8736	15.2698	-0.055821	0.111422	-0.989831	-0.991220	-0.057252	26.6823	-0.988221	-1.574551E+13	3.636087E-15	NaN
445	1.000000	0.122819	7.36941e+06	-54839.1	1005.82	-29742.9	0.000000	0.000000	6.122773	-0.085264	NaN	0.000000	0.001681	0.001701	28.0818	0.060177	0.001963	30.6518	-82.4306	-170.164	-0.039453	0.121520	-0.979824	-0.981122	-0.085264	30.6518	-0.977737	-1.137431E+13	7.496230E-15	NaN
445	1.000000	0.132844	7.36941e+06	-54839.1	1005.82	-29742.9	0.000000	0.000000	6.132797	-0.134002	NaN	0.000000	0.001649	0.001686	28.0817	0.076544	0.001923	39.796	-10.4366	12.925	-0.080521	0.131467	-0.969798	-0.971175	-0.134002	39.796	-0.967272	-8.220577E+12	1.630081E-14	NaN
445	1.000000	0.142837	7.36941e+06	-54839.1	1005.82	-29742.9	0.000000	0.000000	6.142796	0.020519	NaN	0.000000	0.001650	0.001682	28.0818	0.064423	0.002080	30.9664	94.6328	-164.988	0.022090	0.141501	-0.959805	-0.961141	0.020519	30.9664	-0.960302	-6.621276E+12	-3.098932E-15	NaN
445	1.000000	0.152824	7.36941e+06	-54839.1	1005.82	-29742.9	0.000000	0.000000	6.152780	-0.040051	NaN	0.000000	0.001604	0.001663	28.082	0.091792	0.001945	47.1977	-164.122	11.766	-0.043619	0.151420	-0.949818	-0.951222	-0.040051	47.1977	-0.949182	-4.688054E+12	8.543106E-15	NaN
445	1.000000	0.162834	7.36941e+06	-54839.1	1005.82	-29742.9	0.000000	0.000000	6.162788	-0.075219	NaN	0.000000	0.001676	0.001708	28.0813	0.046653	0.002133	21.8702	32.7281	-168.788	-0.008816	0.161556	-0.939808	-0.941086	-0.075219	21.8702	-0.937229	-3.234068E+12	2.325838E-14	NaN
445	1.000000	0.172838	7.36941e+06	-54839.1	1005.82	-29742.9	0.000000	0.000000	6.172795	-0.021922	NaN	0.000000	0.001566	0.001701	28.0805	0.024134	0.001915	12.6044	-89.5348	10.986	-0.116495	0.171469	-0.929804	-0.931173	-0.021922	12.6044	-0.928499	-2.465720E+12	8.890898E-15	NaN
445	1.000000	0.182823	7.36941e+06	-54839.1	1005.82	-29742.9	0.000000	0.000000	6.182779	-0.035405	NaN	0.000000	0.001580	0.001694	28.0803	0.102617	0.001994	51.4697	100.911	-167.859	-0.082359	0.181517	-0.919819	-0.921125	-0.035405	51.4697	-0.919303	-1.852670E+12	1.911026E-14	NaN
445	1.000000	0.192859	7.36941e+06	-54839.1	1005.82	-29742.9	0.000000	0.000000	6.192817	-0.002296	NaN	0.000000	0.001580	0.001637	28.0802	0.047804	0.002044	23.3833	110.225	15.0091	0.096697	0.191486	-0.909783	-0.911156	-0.002296	23.3833	-0.909710	-1.374802E+12	1.669998E-15	NaN
445	1.000000	0.202836	7.36941e+06	-54839.1	1005.82	-29742.9	0.000000	0.000000	6.202793	-0.023202	NaN	0.000000	0.001575	0.001692	28.0801	0.118907	0.001973	60.2798	101.159	-168.415	-0.028426	0.201581	-0.899806	-0.901061	-0.023202	60.2798	-0.899517	-1.001250E+12	2.317257E-14	NaN
445	1.000000	0.212848	7.36941e+06	-54839.1	1005.82	-29742.9	0.000000	0.000000	6.212803	-0.072827	NaN	0.000000	0.001553	0.001720	28.0804	0.067833	0.002103	32.257	-72.1114	14.2711	-0.022008	0.211560	-0.889794	-0.891082	-0.072827	32.257	-0.888101	-7.018423E+11	1.037659E-13	NaN
445	1.000000	0.222859	7.36941e+06	-54839.1	1005.82	-29742.9	0.000000	0.000000	6.222814	-0.063766	NaN	0.000000	0.001520	0.001649	28.0802	0.061770	0.001985	31.1115	143.392	-166.497	-0.050713	0.221546	-0.879783	-0.881097	-0.063766	31.1115	-0.878246	-5.163970E+11	1.234832E-13	NaN
445	1.000000	0.232900	7.36941e+06	-54839.1	1005.82	-29742.9	0.000000	0.000000	6.232858	-0.001888	NaN	0.000000	0.001553	0.001681	28.08	0.083984	0.002020	41.5744	-75.2237	14.2174	-0.027339	0.231539	-0.869742	-0.871104	-0.001888	41.5744	-0.869708	-3.958153E+11	4.770788E-15	NaN
445	1.000000	0.242882	7.36941e+06	-54839.1	1005.82	-29742.9	0.000000	0.000000	6.242837	-0.070348	NaN	0.000000	0.001556	0.001685	28.0804	0.036233	0.001943	18.6455	-6.757923	-163.449	-0.071793	0.241581	-0.859761	-0.861061	-0.070348	18.6455	-0.856931	-2.658128E+11	2.646517E-13	NaN
445	1.000000	0.252900	7.36941e+06	-54839.1	1005.82	-29742.9	0.000000	0.000000	6.252854	-0.071726	NaN	0.000000	0.001580	0.001700	28.0802	0.092609	0.002012	46.0363	-70.5575	14.4269	-0.096919	0.251478	-0.849743	-0.851164	-0.071726	46.0363	-0.848574	-2.048466E+11	3.501450E-13	NaN
445	1.000000	0.262883	7.36941e+06	-54839.1	1005.82	-29742.9	0.000000	0.000000	6.262836	-0.100490	NaN	0.000000	0.001589	0.001675	28.0804	0.079605	0.002054	38.7615	166.991	-165.711	-0.137975	0.261574	-0.839760	-0.841068	-0.100490	38.7615	-0.837815	-1.464508E+11	6.861685E-13	NaN
445	1.000000	0.272883	7.36941e+06	-54839.1	1005.82	-29742.9	0.000000	0.000000	6.272841	0.009461	NaN	0.000000	0.001596	0.001676	28.0802	0.045109	0.001908	23.6398	6.484419	13.1173	0.019189	0.271520	-0.829759	-0.831122	0.009461	23.6398	-0.830059	-1.149702E+11	-8.229018E-14	NaN
445	1.000000	0.282904	7.36941e+06	-54839.1	1005.82	-29742.9	0.000000	0.000000	6.282863	0.031423	NaN	0.000000	0.001610	0.001656	28.0805	0.094526	0.002086	45.3214	98.0042	-167.343	0.013305	0.281562	-0.819738	-0.821080	0.031423	45.3214	-0.820258	-8.466690E+10	-3.711383E-13	NaN
445	1.000000	0.292878	7.36941e+06	-54839.1	1005.82	-29742.9	0.000000	0.000000	6.292836	-0.001208	NaN	0.000000	0.001625	0.001689	28.0805	0.065281	0.002110	30.9366	113.274	12.1065	-0.015690	0.291504	-0.809764	-0.811138	-0.001208	30.9366	-0.809735	-6.095010E+10	1.982078E-14	NaN
445	1.000000	0.302866	7.36941e+06	-54839.1	1005.82	-29742.9	0.000000	0.000000	6.302822	-0.031827	NaN	0.000000	0.001598	0.001704	28.0816	0.120715	0.001984	60.8429	-27.3977	-162.957	-0.032479	0.301598	-0.799777	-0.801045	-0.031827	60.8429	-0.799384	-4.410665E+10	7.215922E-13	NaN
445	1.000000	0.312908	7.36941e+06	-54839.1	1005.82	-29742.9	0.000000	0.000000	6.312865	-0.000835	NaN	0.000000	0.001592	0.001696	28.0816	0.153379	0.002027	75.6631	113.066	14.2535	0.032425	0.311536	-0.789735	-0.791106	-0.000835	75.6631	-0.789726	-3.261121E+10	2.559268E-14	NaN
445	1.000000	0.322923	7.36941e+06	-54839.1	1005.82	-29742.9	0.000000	0.000000	6.322880	-0.033632	NaN	0.000000	0.001548	0.001675	28.0818	0.058637	0.001905	30.7884	-18.8029	-167.354	-0.096340	0.321616	-0.779719	-0.781027	-0.033632	30.7884	-0.778899	-2.324215E+10	1.447006E-12	NaN
445	1.000000	0.332900	7.36941e+06	-54839.1	1005.82	-29742.9	0.000000	0.000000	6.332857	-0.025669	NaN	0.000000	0.001604	0.001685	28.0814	0.071512	0.001911	37.4303	115.68	16.284	-0.022294	0.331606	-0.769742	-0.771036	-0.025669	37.4303	-0.769228	-1.717155E+10	1.494884E-12	NaN
445	1.000000	0.342937	7.36941e+06	-54839.1	1005.82	-29742.9	0.000000	0.000000	6.342893	-0.061281	NaN	0.000000	0.001598	0.001649	28.0814	0.092756	0.002122	43.7181	-103.734	-165.699	-0.069706	0.341582	-0.759705	-0.761061	-0.061281	43.7181	-0.758654	-1.233065E+10	4.969851E-12	NaN
445	1.000000	0.352902	7.36941e+06	-54839.1	1005.82	-29742.9	0.000000	0.000000	6.352857	-0.067360	NaN	0.000000	0.001609	0.001674	28.0816	0.168070	0.001836	91.561	-24.2789	16.5584	-0.096769	0.351556	-0.749740	-0.751086	-0.067360	91.561	-0.749188	-9.165808E+9	7.349013E-12	NaN
445	1.000000	0.362905	7.36941e+06	-54839.1	1005.82	-29742.9	0.000000	0.000000	6.362861	-0.022504	NaN	0.000000	0.001591	0.001686	28.0812	0.040513	0.001937	20.9106	-82.6359	-165.706	-0.003543	0.361624	-0.739738	-0.741018	-0.022504	20.9106	-0.738931	-6.644908E+9	3.386628E-12	NaN
445	1.000000	0.372926	7.36941e+06	-54839.1	1005.82	-29742.9	0.000000	0.000000	6.372878	-0.120192	NaN	0.000000	0.001585	0.001671	28.0812	0.106999	0.002168	49.3453	-98.0275	13.2096	-0.120424	0.371580	-0.729717	-0.731063	-0.120192	49.3453	-0.727890	-4.699443E+9	2.557575E-11	NaN
445	1.000000	0.382931	7.36941e+06	-54839.1	1005.82	-29742.9	0.000000	0.000000	6.382886	-0.053421	NaN	0.000000	0.001601	0.001637	28.0812	0.060813	0.002040	29.805	167.433	-164.807	-0.064175	0.381651	-0.719711	-0.720991	-0.053421	29.805	-0.718367	-3.485009E+9	1.532886E-11	NaN
445	1.000000	0.392936	7.36941e+06	-54839.1	1005.82	-29742.9	0.000000	0.000000	6.392895	0.029268	NaN	0.000000	0.001564	0.001682	28.0816	0.057012	0.002017	28.2685	-30.2335	11.5813	-0.003334	0.391559	-0.709707	-0.711083	0.029268	28.2685	-0.710483	-2.720450E+9	-1.075845E-11	NaN
445	1.000000	0.402946	7.36941e+06	-54839.1	1005.82	-29742.9	0.000000	0.000000	6.402905	0.044315	NaN	0.000000	0.001677	0.001681	28.0811	0.060727	0.002024	30.0042	158.656	-167.796	-0.045606	0.401620	-0.699697	-0.701022	0.044315	30.0042	-0.700804	-2.006852E+9	-2.208187E-11	NaN
445	1.000000	0.412949	7.36941e+06	-54839.1	1005.82	-29742.9	0.000000	0.000000	6.412906	-0.034546	NaN	0.000000	0.001641	0.001691	28.0814	0.055363	0.001964	28.1954	60.9002	14.4794	-0.087127	0.411597	-0.689693	-0.691045	-0.034546	28.1954	-0.688774	-1.374554E+9	2.513257E-11	NaN
445	1.000000	0.422967	7.36941e+06	-54839.1	1005.82	-29742.9	0.000000	0.000000	6.422925	0.014848	NaN	0.000000	0.001677	0.001675	28.0814	0.142377	0.002046	69.5768	-110.486	-162.769	0.055223	0.421625	-0.679676	-0.681017	0.014848	69.5768	-0.679836	-1.037430E+9	-1.431230E-11	NaN
445	1.000000	0.432974	7.36941e+06	-54839.1	1005.82	-29742.9	0.000000	0.000000	6.432929	-0.063839	NaN	0.000000	0.001677	0.001651	28.0815	0.024929	0.001835	13.582	-172.527	16.4737	-0.158754	0.431603	-0.669668	-0.671039	-0.063839	13.582	-0.666143	-6.738951E+8	9.473151E-11	NaN
445	1.000000	0.442962	7.36941e+06	-54839.1	1005.82	-29742.9	0.000000	0.000000	6.442920	0.006346	NaN	0.000000	0.001641	0.001704	28.08	0.015836	0.001870	8.469021	58.1748	-165.459	-0.036397	0.441648	-0.659680	-0.660994	0.006346	8.469021	-0.660242	-5.594800E+8	-1.134324E-11	NaN
445	1.000000	0.452959	7.36941e+06	-54839.1	1005.82	-29742.9	0.000000	0.000000	6.452915	-0.043930	NaN	0.000000	0.001648	0.001670	28.08	0.091145	0.001841	49.5158	74.1589	13.8394	-0.034432	0.451562	-0.649683	-0.651080	-0.043930	49.5158	-0.649018	-3.926152E+8	1.118917E-10	NaN
445	1.000000	0.462951	7.36941e+06	-54839.1	1005.82	-29742.9	0.000000	0.000000	6.462909	0.003946	NaN	0.000000	0.001622	0.001662	28.0801	0.108269	0.002060	52.5532	-90.9541	-164.642	0.028128	0.461568	-0.639691	-0.641074	0.003946	52.5532	-0.639748	-2.929716E+8	-1.346866E-11	NaN
445	1.000000	0.472981	7.36941e+06	-54839.1	1005.82	-29742.9	0.000000	0.000000	6.472935	-0.092743	NaN	0.000000	0.001619	0.001688	28.0803	0.041555	0.001918	21.6704	-87.6335	10.5928	-0.041868	0.471648	-0.629661	-0.630995	-0.092743	21.6704	-0.626451	-1.924322E+8	4.819540E-10	NaN
445	1.000000	0.482968	7.36941e+06	-54839.1	1005.82	-29742.9	0.000000	0.000000	6.482923	-0.058323	NaN	0.000000	0.001631	0.001662	28.0801	0.075295	0.002103	35.8078	27.2082	-163.91	-0.064593	0.481650	-0.619674	-0.620992	-0.058323	35.8078	-0.618453	-1.494052E+8	3.903674E-10	NaN
445	1.000000	0.492956	7.36941e+06	-54839.1	1005.82	-29742.9	0.000000	0.000000	6.492910	-0.084271	NaN	0.000000	0.001650	0.001694	28.0802	0.117031	0.002195	53.3288	144.73	17.6754	-0.067190	0.491639	-0.609687	-0.611003	-0.084271	53.3288	-0.608502	-1.090174E+8	7.730010E-10	NaN
445	1.000000	0.502977	7.36941e+06	-54839.1	1005.82	-29742.9	0.000000	0.000000	6.502933	-0.028615	NaN	0.000000	0.001660	0.001689	28.0802	0.023580	0.001954	12.0676	82.5492	-166.362	-0.017372	0.501706	-0.599665	-0.600937	-0.028615	12.0676	-0.597887	-7.786745E+7	3.674830E-10	NaN
445	1.000000	0.512992	7.36941e+06	-54839.1	1005.82	-29742.9	0.000000	0.000000	6.512952	0.067831	NaN	0.000000	0.001667	0.001662	28.0801	0.113263	0.001936	58.5133	88.815	11.306	0.035155	0.511593	-0.589650	-0.591049	0.067831	58.5133	-0.590520	-6.163565E+7	-1.100515E-9	NaN
445	1.000000	0.522984	7.36941e+06	-54839.1	1005.82	-29742.9	0.000000	0.000000	6.522941	-0.019954	NaN	0.000000	0.001655	0.001689	28.0801	0.052004	0.001971	26.3797	-58.7327	-165.629	-0.068608	0.521713	-0.579659	-0.580929	-0.019954	26.3797	-0.579091	-4.287301E+7	4.654097E-10	NaN
445	1.000000	0.533024	7.36941e+06	-54839.1	1005.82	-29742.9	0.000000	0.000000	6.532980	-0.042225	NaN	0.000000	0.001657	0.001666	28.0803	0.057255	0.001915	29.9005	89.9554	11.6819	-0.034295	0.531628	-0.569618	-0.571014	-0.042225	29.9005	-0.568559	-3.067036E+7	1.376745E-9	NaN
445	1.000000	0.542983	7.36941e+06	-54839.1	1005.82	-29742.9	0.000000	0.000000	6.542938	-0.064785	NaN	0.000000	0.001615	0.001669	28.0802	0.113794	0.001944	58.5419	143.654	-163.476	4.244630E-5	0.541691	-0.559660	-0.560951	-0.064785	58.5419	-0.558830	-2.250017E+7	2.879324E-9	NaN
445	1.000000	0.552999	7.36941e+06	-54839.1	1005.82	-29742.9	0.000000	0.000000	6.552957	0.002746	NaN	0.000000	0.001604	0.001647	28.0805	0.099965	0.002063	48.4477	164.521	13.2418	-0.077617	0.551706	-0.549644	-0.550936	0.002746	48.4477	-0.549686	-1.681153E+7	-1.633400E-10	NaN
445	1.000000	0.563008	7.36941e+06	-54839.1	1005.82	-29742.9	0.000000	0.000000	6.562964	-0.036346	NaN	0.000000	0.001587	0.001674	28.0803	0.029543	0.001977	14.9462	-59.1871	-167.767	-0.073395	0.561691	-0.539634	-0.540951	-0.036346	14.9462	-0.537810	-1.150756E+7	3.158427E-9	NaN
445	1.000000	0.572986	7.36941e+06	-54839.1	1005.82	-29742.9	0.000000	0.000000	6.572940	-0.096596	NaN	0.000000	0.001592	0.001690	28.0807	0.042035	0.001956	21.489	-63.0015	17.3776	-0.040459	0.571674	-0.529656	-0.530968	-0.096596	21.489	-0.526285	-7.96097e+06	1.213365E-8	NaN
445	1.000000	0.583005	7.36941e+06	-54839.1	1005.82	-29742.9	0.000000	0.000000	6.582960	-0.079197	NaN	0.000000	0.001630	0.001653	28.0814	0.029671	0.002059	14.4105	93.4868	-165.446	-0.134498	0.581705	-0.519637	-0.520937	-0.079197	14.4105	-0.515515	-5.63902e+06	1.404454E-8	NaN
445	1.000000	0.593018	7.36941e+06	-54839.1	1005.82	-29742.9	0.000000	0.000000	6.592972	-0.086626	NaN	0.000000	0.001607	0.001663	28.0813	0.068094	0.002004	33.9819	-156.779	10.7828	-0.097266	0.591683	-0.509624	-0.510959	-0.086626	33.9819	-0.507712	-4.39079e+06	1.972899E-8	NaN
445	1.000000	0.603014	7.36941e+06	-54839.1	1005.82	-29742.9	0.000000	0.000000	6.602970	-0.052874	NaN	0.000000	0.001585	0.001680	28.0815	0.107487	0.002139	50.2465	-43.4738	-165.606	-0.043711	0.601707	-0.499628	-0.500935	-0.052874	50.2465	-0.498839	-3.30228e+06	1.601139E-8	NaN
445	1.000000	0.613043	7.36941e+06	-54839.1	1005.82	-29742.9	0.000000	0.000000	6.612997	-0.089811	NaN	0.000000	0.001592	0.001676	28.0816	0.144828	0.002044	70.8572	-34.3671	14.674	-0.014605	0.611663	-0.489599	-0.490979	-0.089811	70.8572	-0.488648	-2.37958e+06	3.774238E-8	NaN
445	1.000000	0.623052	7.36941e+06	-54839.1	1005.82	-29742.9	0.000000	0.000000	6.623011	0.038924	NaN	0.000000	0.001555	0.001651	28.0814	0.048701	0.002017	24.1462	44.5317	-166.325	-0.015084	0.621779	-0.479590	-0.480863	0.038924	24.1462	-0.480799	-1.84806e+06	-2.106215E-8	NaN
445	1.000000	0.633045	7.36941e+06	-54839.1	1005.82	-29742.9	0.000000	0.000000	6.633002	-0.016714	NaN	0.000000	0.001568	0.001665	28.0814	0.075330	0.001947	38.6994	160.116	11.6053	-0.104321	0.631697	-0.469597	-0.470946	-0.016714	38.6994	-0.469273	-1.27412e+06	1.311841E-8	NaN
445	1.000000	0.643040	7.36941e+06	-54839.1	1005.82	-29742.9	0.000000	0.000000	6.642996	-0.046212	NaN	0.000000	0.001570	0.001666	28.0815	0.093304	0.002037	45.8067	72.0699	-166.359	-0.083175	0.641714	-0.459602	-0.460929	-0.046212	45.8067	-0.458846	-909480	5.081153E-8	NaN
445	1.000000	0.653046	7.36941e+06	-54839.1	1005.82	-29742.9	0.000000	0.000000	6.653000	-0.097521	NaN	0.000000	0.001621	0.001666	28.0815	0.054633	0.002057	26.5599	-164.446	12.0307	-0.086199	0.651653	-0.449596	-0.450989	-0.097521	26.5599	-0.446842	-616392	1.582120E-7	NaN
445	1.000000	0.663040	7.36941e+06	-54839.1	1005.82	-29742.9	0.000000	0.000000	6.662996	-0.027985	NaN	0.000000	0.001587	0.001642	28.0814	0.079686	0.002038	39.0997	159.67	-164.265	0.027472	0.661751	-0.439602	-0.440891	-0.027985	39.0997	-0.439066	-478823	5.844556E-8	NaN
445	1.000000	0.673055	7.36941e+06	-54839.1	1005.82	-29742.9	0.000000	0.000000	6.673012	-0.018531	NaN	0.000000	0.001598	0.001656	28.0812	0.062412	0.002090	29.8588	93.7671	19.9426	-0.130488	0.671741	-0.429588	-0.430902	-0.018531	29.8588	-0.429122	-346451	5.348826E-8	NaN
445	1.000000	0.683057	7.36941e+06	-54839.1	1005.82	-29742.9	0.000000	0.000000	6.683011	-0.095513	NaN	0.000000	0.001574	0.001667	28.0817	0.081429	0.002143	37.9899	118.655	-164.61	-0.091884	0.681721	-0.419585	-0.420921	-0.095513	37.9899	-0.417700	-238660	4.002048E-7	NaN
445	1.000000	0.693076	7.36941e+06	-54839.1	1005.82	-29742.9	0.000000	0.000000	6.693033	-0.018591	NaN	0.000000	0.001655	0.001688	28.0815	0.025609	0.001903	13.4559	2.849204	11.6696	-0.056929	0.691692	-0.409566	-0.410950	-0.018591	13.4559	-0.408530	-176802	1.051487E-7	NaN
445	1.000000	0.703062	7.36941e+06	-54839.1	1005.82	-29742.9	0.000000	0.000000	6.703016	-0.095210	NaN	0.000000	0.001666	0.001664	28.0815	0.059719	0.001938	30.8125	-12.7596	-167.969	-0.076686	0.701749	-0.399580	-0.400893	-0.095210	30.8125	-0.397262	-122162	7.793718E-7	NaN
445	1.000000	0.713066	7.36941e+06	-54839.1	1005.82	-29742.9	0.000000	0.000000	6.713021	-0.069498	NaN	0.000000	0.001576	0.001679	28.0802	0.161443	0.002035	79.3174	-70.7554	15.4463	-0.009869	0.711744	-0.389577	-0.390898	-0.069498	79.3174	-0.388919	-92833.8	7.486312E-7	NaN
445	1.000000	0.723057	7.36941e+06	-54839.1	1005.82	-29742.9	0.000000	0.000000	6.723012	-0.058812	NaN	0.000000	0.001597	0.001666	28.0803	0.130749	0.001921	68.0504	141.863	-164.907	-0.055632	0.721770	-0.379585	-0.380872	-0.058812	68.0504	-0.378937	-66777.6	8.807085E-7	NaN
445	1.000000	0.733076	7.36941e+06	-54839.1	1005.82	-29742.9	0.000000	0.000000	6.733034	0.015098	NaN	0.000000	0.001602	0.001687	28.0803	0.059249	0.001931	30.6897	-123.099	16.1476	-0.021956	0.731790	-0.369567	-0.370852	0.015098	30.6897	-0.369936	-49567.8	-3.045916E-7	NaN
445	1.000000	0.743062	7.36941e+06	-54839.1	1005.82	-29742.9	0.000000	0.000000	6.743015	-0.106261	NaN	0.000000	0.001614	0.001689	28.0803	0.075347	0.002064	36.4977	-16.9692	-165.568	-0.100971	0.741805	-0.359581	-0.360837	-0.106261	36.4977	-0.357397	-32673.7	3.252186E-6	NaN
445	1.000000	0.753062	7.36941e+06	-54839.1	1005.82	-29742.9	0.000000	0.000000	6.753018	-0.060388	NaN	0.000000	0.001620	0.001682	28.0807	0.061880	0.001958	31.6103	104.649	13.864	-0.099955	0.751718	-0.349580	-0.350925	-0.060388	31.6103	-0.348147	-23993.9	2.516808E-6	NaN
445	1.000000	0.763069	7.36941e+06	-54839.1	1005.82	-29742.9	0.000000	0.000000	6.763025	-0.033417	NaN	0.000000	0.001619	0.001676	28.0804	0.016673	0.002062	8.084589	4.526716	-163.09	0.036529	0.761775	-0.339573	-0.340867	-0.033417	8.084589	-0.336473	-16222.1	2.059980E-6	NaN
445	1.000000	0.773116	7.36941e+06	-54839.1	1005.82	-29742.9	0.000000	0.000000	6.773069	-0.116922	NaN	0.000000	0.001566	0.001636	28.0803	0.106750	0.002030	52.5847	-70.7647	16.9181	-0.043563	0.771768	-0.329526	-0.330874	-0.116922	52.5847	-0.327858	-12135.8	9.634478E-6	NaN
445	1.000000	0.783110	7.36941e+06	-54839.1	1005.82	-29742.9	0.000000	0.000000	6.783064	-0.080506	NaN	0.000000	0.001591	0.001690	28.0803	0.126812	0.002022	62.7215	-132.368	-166.524	-0.044721	0.781801	-0.319532	-0.320841	-0.080506	62.7215	-0.318570	-8862.9	9.083507E-6	NaN
445	1.000000	0.793104	7.36941e+06	-54839.1	1005.82	-29742.9	0.000000	0.000000	6.793059	-0.051167	NaN	0.000000	0.001584	0.001700	28.0803	0.085692	0.002003	42.7746	58.2805	15.69	-0.116669	0.791743	-0.309539	-0.310899	-0.051167	42.7746	-0.308642	-6323.3	8.091767E-6	NaN
445	1.000000	0.803098	7.36941e+06	-54839.1	1005.82	-29742.9	0.000000	0.000000	6.803053	-0.070114	NaN	0.000000	0.001582	0.001669	28.0805	0.091519	0.002087	43.8454	143.623	-166.955	-0.117295	0.801810	-0.299544	-0.300832	-0.070114	43.8454	-0.298345	-4446.14	1.576960E-5	NaN
445	1.000000	0.813106	7.36941e+06	-54839.1	1005.82	-29742.9	0.000000	0.000000	6.813062	-0.043588	NaN	0.000000	0.001555	0.001676	28.0802	0.046397	0.002024	22.9219	75.6333	14.7157	0.005730	0.811796	-0.289536	-0.290846	-0.043588	22.9219	-0.288110	-3125.88	1.394418E-5	NaN
445	1.000000	0.823122	7.36941e+06	-54839.1	1005.82	-29742.9	0.000000	0.000000	6.823078	-0.048730	NaN	0.000000	0.001592	0.001684	28.0804	0.106392	0.001917	55.4861	-143.588	-164.619	0.035468	0.821820	-0.279520	-0.280822	-0.048730	55.4861	-0.278862	-2268.76	2.147880E-5	NaN
445	1.000000	0.833117	7.36941e+06	-54839.1	1005.82	-29742.9	0.000000	0.000000	6.833073	-0.040232	NaN	0.000000	0.001629	0.001701	28.0804	0.037324	0.001863	20.0333	-91.9266	14.2423	-0.073731	0.831753	-0.269526	-0.270889	-0.040232	20.0333	-0.268019	-1553.87	2.589140E-5	NaN
445	1.000000	0.843124	7.36941e+06	-54839.1	1005.82	-29742.9	0.000000	0.000000	6.843081	-0.019682	NaN	0.000000	0.001632	0.001668	28.0804	0.139128	0.002153	64.6312	115.051	-165.93	-0.029951	0.841810	-0.259518	-0.260832	-0.019682	64.6312	-0.259290	-1142.96	1.722000E-5	NaN
445	1.000000	0.853132	7.36941e+06	-54839.1	1005.82	-29742.9	0.000000	0.000000	6.853087	-0.062178	NaN	0.000000	0.001639	0.001628	28.0815	0.087727	0.002018	43.4618	-44.6133	11.7858	-0.041753	0.851770	-0.249510	-0.250872	-0.062178	43.4618	-0.248437	-777.643	7.995757E-5	NaN
445	1.000000	0.863142	7.36941e+06	-54839.1	1005.82	-29742.9	0.000000	0.000000	6.863100	0.010255	NaN	0.000000	0.001656	0.001686	28.0815	0.051686	0.002059	25.1037	146.42	-166.284	-0.049746	0.861834	-0.239500	-0.240808	0.010255	25.1037	-0.239807	-570.866	-1.796356E-5	NaN
445	1.000000	0.873128	7.36941e+06	-54839.1	1005.82	-29742.9	0.000000	0.000000	6.873081	-0.122142	NaN	0.000000	0.001584	0.001663	28.0817	0.040791	0.002007	20.3256	-177.501	13.9288	-0.129453	0.871795	-0.229514	-0.230847	-0.122142	20.3256	-0.225007	-333.767	0.000366	NaN
445	1.000000	0.883132	7.36941e+06	-54839.1	1005.82	-29742.9	0.000000	0.000000	6.883089	-0.009433	NaN	0.000000	0.001576	0.001659	28.0816	0.041816	0.001960	21.337	-149.504	-164.795	0.077100	0.881846	-0.219510	-0.220796	-0.009433	21.337	-0.219179	-269.491	3.500278E-5	NaN
445	1.000000	0.893151	7.36941e+06	-54839.1	1005.82	-29742.9	0.000000	0.000000	6.893109	-0.010113	NaN	0.000000	0.001577	0.001702	28.0814	0.114782	0.001989	57.7007	-149.128	11.8809	-0.138386	0.891766	-0.209491	-0.210876	-0.010113	57.7007	-0.209359	-187.258	5.400720E-5	NaN
445	1.000000	0.903111	7.36941e+06	-54839.1	1005.82	-29742.9	0.000000	0.000000	6.903069	-0.007363	NaN	0.000000	0.001606	0.001656	28.0813	0.065067	0.001990	32.696	71.2917	-167.389	-0.056276	0.901837	-0.199531	-0.200805	-0.007363	32.696	-0.199362	-128.591	5.725580E-5	NaN
445	1.000000	0.913157	7.36941e+06	-54839.1	1005.82	-29742.9	0.000000	0.000000	6.913111	-0.094876	NaN	0.000000	0.001532	0.001706	28.0818	0.049844	0.002104	23.6879	-120.558	13.4471	-0.087262	0.911827	-0.189485	-0.190815	-0.094876	23.6879	-0.186481	-78.535	0.001208	NaN
445	1.000000	0.923128	7.36942e+06	-54839.1	1005.82	-29742.9	0.000000	0.000000	6.923081	-0.126671	NaN	0.000000	0.001538	0.001716	28.0818	0.092585	0.001920	48.2202	-129.815	-163.262	-0.100783	0.921862	-0.179514	-0.180780	-0.126671	48.2202	-0.177544	-55.4092	0.002286	NaN
445	1.000000	0.933142	7.36942e+06	-54839.1	1005.82	-29742.9	0.000000	0.000000	6.933101	0.018377	NaN	0.000000	0.001557	0.001734	28.0813	0.103405	0.002026	51.0428	117.105	11.3836	0.051838	0.931776	-0.169500	-0.170866	0.018377	51.0428	-0.169770	-40.7025	-0.000451	NaN
445	1.000000	0.943135	7.36942e+06	-54839.1	1005.82	-29742.9	0.000000	0.000000	6.943091	-0.046356	NaN	0.000000	0.001523	0.001728	28.0817	0.019777	0.001877	10.5376	-71.307	-165.458	-0.018001	0.941865	-0.159507	-0.160778	-0.046356	10.5376	-0.156208	-23.4578	0.001976	NaN
445	1.000000	0.953153	7.36942e+06	-54839.1	1005.82	-29742.9	0.000000	0.000000	6.953106	-0.109450	NaN	0.000000	0.001550	0.001711	28.0818	0.035823	0.002077	17.2439	-86.6656	15.8643	-0.042948	0.951811	-0.149489	-0.150832	-0.109450	17.2439	-0.144729	-14.4928	0.007552	NaN
445	1.000000	0.963181	7.36942e+06	-54839.1	1005.82	-29742.9	0.000000	0.000000	6.963139	0.016281	NaN	0.000000	0.001584	0.001711	28.0814	0.058862	0.001969	29.8975	-111.479	-170.059	-0.036458	0.961852	-0.139461	-0.140791	0.016281	29.8975	-0.139870	-11.7631	-0.001384	NaN
445	1.000000	0.973182	7.36942e+06	-54839.1	1005.82	-29742.9	0.000000	0.000000	6.973138	-0.047683	NaN	0.000000	0.001548	0.001699	28.0817	0.080932	0.001971	41.0648	158.308	13.9638	-0.048487	0.971843	-0.129460	-0.130799	-0.047683	41.0648	-0.128590	-7.153943	0.006665	NaN
445	1.000000	0.983165	7.36942e+06	-54839.1	1005.82	-29742.9	0.000000	0.000000	6.983120	-0.051643	NaN	0.000000	0.001555	0.001671	28.0814	0.014249	0.001987	7.171027	-130.877	-165.257	-0.018123	0.981912	-0.119478	-0.120730	-0.051643	7.171027	-0.114076	-3.656191	0.014125	NaN
445	1.000000	0.993157	7.36942e+06	-54839.1	1005.82	-29742.9	0.000000	0.000000	6.993118	0.060827	NaN	0.000000	0.001572	0.001676	28.0805	0.085339	0.001996	42.7564	-78.2996	12.5563	-0.013102	0.991830	-0.109485	-0.110813	0.060827	42.7564	-0.110552	-3.086711	-0.019706	NaN
445	1.000000	1.003182	7.36942e+06	-54839.1	1005.82	-29742.9	0.000000	0.000000	7.003135	-0.120331	NaN	0.000000	0.001571	0.001711	28.0805	0.100926	0.001987	50.802	76.5778	-167.489	-0.079420	1.001867	-0.099460	-0.100776	-0.120331	50.802	-0.097683	-1.622191	0.074178	NaN
445	1.000000	1.013213	7.36942e+06	-54839.1	1005.82	-29742.9	0.000000	0.000000	7.013170	-0.001954	NaN	0.000000	0.001569	0.001691	28.0807	0.070528	0.001982	35.584	90.462	14.9371	-0.026170	1.011827	-0.089429	-0.090815	-0.001954	35.584	-0.089388	-1.045775	0.001869	NaN
445	1.000000	1.023183	7.36942e+06	-54839.1	1005.82	-29742.9	0.000000	0.000000	7.023140	-0.020841	NaN	0.000000	0.001563	0.001698	28.0806	0.013240	0.002001	6.617187	-126.96	-159.346	0.005957	1.021936	-0.079459	-0.080706	-0.020841	6.617187	-0.077097	-0.522844	0.039862	NaN
445	1.000000	1.033198	7.36942e+06	-54839.1	1005.82	-29742.9	0.000000	0.000000	7.033153	-0.074566	NaN	0.000000	0.001581	0.001713	28.0806	0.035286	0.002060	17.1304	90.5664	10.6062	-0.089320	1.031859	-0.069444	-0.070784	-0.074566	17.1304	-0.066180	-0.268638	0.277569	NaN
445	1.000000	1.043209	7.36942e+06	-54839.1	1005.82	-29742.9	0.000000	0.000000	7.043163	-0.099877	NaN	0.000000	0.001544	0.001717	28.0803	0.078562	0.001976	39.7658	-173.43	-164.207	-0.127147	1.041908	-0.059433	-0.060734	-0.099877	39.7658	-0.057549	-0.152984	0.652861	NaN
445	1.000000	1.053202	7.36942e+06	-54839.1	1005.82	-29742.9	0.000000	0.000000	7.053159	-0.032580	NaN	0.000000	0.001576	0.001716	28.081	0.029770	0.001972	15.093	-63.8679	15.2848	-0.022479	1.051782	-0.049440	-0.050860	-0.032580	15.093	-0.047821	-0.078363	0.415765	NaN
445	1.000000	1.063210	7.36942e+06	-54839.1	1005.82	-29742.9	0.000000	0.000000	7.063164	-0.072488	NaN	0.000000	0.001586	0.001722	28.0805	0.138320	0.002087	66.2895	30.0225	-165.914	-0.074263	1.061903	-0.039433	-0.040739	-0.072488	66.2895	-0.038612	-0.041051	1.765785	NaN
445	1.000000	1.073232	7.36942e+06	-54839.1	1005.82	-29742.9	0.000000	0.000000	7.073192	0.047032	NaN	0.000000	0.001605	0.001674	28.0807	0.047728	0.002043	23.3614	95.3553	15.2047	-0.039722	1.071875	-0.029410	-0.030767	0.047032	23.3614	-0.030920	-0.024420	-1.925952	NaN
445	1.000000	1.083217	7.36942e+06	-54839.1	1005.82	-29742.9	0.000000	0.000000	7.083174	-0.016188	NaN	0.000000	0.001597	0.001726	28.0805	0.057786	0.001951	29.6179	-7.817659	-164.299	0.018258	1.081945	-0.019425	-0.020697	-0.016188	29.6179	-0.019015	-0.011855	1.365514	NaN
445	1.000000	1.093242	7.36942e+06	-54839.1	1005.82	-29742.9	0.000000	0.000000	7.093196	-0.084786	NaN	0.000000	0.001581	0.001740	28.0807	0.056659	0.002095	27.0447	-27.5977	17.187	-0.098792	1.091860	-0.009400	-0.010782	-0.084786	27.0447	-0.007049	-0.004670	18.1565	NaN
445	1.000000	1.103189	7.36942e+06	-54839.1	1005.82	-29742.9	0.000000	0.000000	7.103160	0.309475	NaN	0.000000	0.001573	0.001794	28.0805	0.483837	0.001926	251.235	12.6719	-165.911	-0.022633	1.101912	0.000547	-0.000730	0.309475	251.235	-0.000377	-0.000279	-1107.51	NaN
445	2.000000	1.112884	7.36942e+06	-54839.1	1005.82	-29742.9	0.000000	0.000000	7.113252	9.977283	NaN	0.000000	0.001553	0.001635	28.0805	8.507810	0.001498	5678	4.063284	11.9925	7.513607	1.111861	0.010242	0.009219	9.977283	5678	0.008924	0.008010	1245.59	57962.8
445	2.000000	1.115772	7.36942e+06	-54839.1	1005.82	-29742.9	0.000000	0.000000	7.116238	12.3535	NaN	0.000000	0.001563	0.001662	28.0818	11.833	0.001703	6946.88	4.567093	-172.052	12.5753	1.115531	0.013130	0.012888	12.3535	6946.88	0.011796	0.011247	1098.41	59847.9
445	2.000000	1.118286	7.36942e+06	-54839.1	1005.82	-29742.9	0.000000	0.000000	7.118834	14.3431	NaN	0.000000	0.001574	0.001632	28.0821	14.0012	0.001693	8269.81	7.996756	3.856081	14.2566	1.117921	0.015644	0.015278	14.3431	8269.81	0.014343	0.014419	994.741	62921.8
445	2.000000	1.120728	7.36942e+06	-54839.1	1005.82	-29742.9	0.000000	0.000000	7.121602	22.2623	NaN	0.000000	0.001568	0.001628	28.0818	16.7112	0.001704	9808.63	7.986918	-177.238	21.9387	1.120387	0.018086	0.017745	22.2623	9808.63	0.016384	0.017176	1296.17	68379.6
445	2.000000	1.123202	7.36942e+06	-54839.1	1005.82	-29742.9	0.000000	0.000000	7.124065	22.0125	NaN	0.000000	0.001576	0.001632	28.0821	19.4025	0.001674	11589.2	8.945982	-0.790209	21.0771	1.122804	0.020560	0.020161	22.0125	11589.2	0.019135	0.021202	1038.25	72718.5
445	2.000000	1.125700	7.36942e+06	-54839.1	1005.82	-29742.9	0.000000	0.000000	7.126777	27.1982	NaN	0.000000	0.001612	0.001614	28.082	22.2028	0.001941	11437.2	3.899969	-174.174	26.9935	1.125429	0.023058	0.022786	27.1982	11437.2	0.021275	0.024585	1106.3	66643.7
445	2.000000	1.128176	7.36942e+06	-54839.1	1005.82	-29742.9	0.000000	0.000000	7.129536	34.0899	NaN	0.000000	0.001582	0.001608	28.082	24.071	0.001720	13996	5.587112	1.066870	32.3008	1.127792	0.025534	0.025149	34.0899	13996	0.023707	0.028705	1187.59	75474.2
445	2.000000	1.130650	7.36942e+06	-54839.1	1005.82	-29742.9	0.000000	0.000000	7.132083	35.869	NaN	0.000000	0.001587	0.001630	28.0818	26.3324	0.001769	14889	4.776184	-178.091	34.1041	1.130402	0.028008	0.027760	35.869	14889	0.026201	0.033237	1079.2	74615.5
445	2.000000	1.133150	7.36942e+06	-54839.1	1005.82	-29742.9	0.000000	0.000000	7.135010	46.2369	NaN	0.000000	0.001587	0.001645	28.0817	28.8921	0.001730	16698.7	5.569335	0.244152	43.7763	1.132847	0.030508	0.030204	46.2369	16698.7	0.028431	0.037555	1231.17	78726.3
445	2.000000	1.135672	7.36942e+06	-54839.1	1005.82	-29742.9	0.000000	0.000000	7.137614	48.2389	NaN	0.000000	0.001582	0.001651	28.082	31.4359	0.001818	17287.8	3.222610	-177.998	46.5843	1.135383	0.033030	0.032741	48.2389	17287.8	0.030937	0.042708	1129.51	76429.1
445	2.000000	1.138169	7.36942e+06	-54839.1	1005.82	-29742.9	0.000000	0.000000	7.140641	61.1272	NaN	0.000000	0.001583	0.001603	28.0818	33.7267	0.001891	17833.5	8.151925	-1.579995	60.1292	1.137745	0.035526	0.035103	61.1272	17833.5	0.032956	0.047093	1298.02	75081.5
445	2.000000	1.140658	7.36942e+06	-54839.1	1005.82	-29742.9	0.000000	0.000000	7.143388	67.389	NaN	0.000000	0.001623	0.001630	28.0816	36.356	0.001714	21205.2	6.415959	177.064	67.0429	1.140267	0.038016	0.037624	67.389	21205.2	0.035633	0.053230	1266.01	83973.1
445	2.000000	1.143178	7.36942e+06	-54839.1	1005.82	-29742.9	0.000000	0.000000	7.146196	74.4133	NaN	0.000000	0.001590	0.001603	28.0817	38.6064	0.001909	20224.9	6.620899	-1.788170	73.6369	1.142813	0.040535	0.040171	74.4133	20224.9	0.037776	0.058407	1274.05	76458.8
445	2.000000	1.145648	7.36942e+06	-54839.1	1005.82	-29742.9	0.000000	0.000000	7.149053	83.8012	NaN	0.000000	0.001520	0.001661	28.0819	41.655	0.001828	22781.4	7.099538	175.782	82.344	1.145345	0.043006	0.042703	83.8012	22781.4	0.040247	0.064668	1295.87	81848.4
445	2.000000	1.148181	7.36942e+06	-54839.1	1005.82	-29742.9	0.000000	0.000000	7.152038	94.7834	NaN	0.000000	0.001550	0.001615	28.0826	43.2025	0.001817	23774.9	4.802048	-1.014506	92.364	1.147797	0.045539	0.045155	94.7834	23774.9	0.042549	0.070782	1339.08	81644.9
445	2.000000	1.150698	7.36942e+06	-54839.1	1005.82	-29742.9	0.000000	0.000000	7.154793	100.571	NaN	0.000000	0.001559	0.001626	28.0807	46.4225	0.001777	26121.5	7.288629	174.899	105.109	1.150379	0.048056	0.047737	100.571	26121.5	0.045168	0.078066	1288.28	85416.4
445	2.000000	1.153160	7.36942e+06	-54839.1	1005.82	-29742.9	0.000000	0.000000	7.157597	108.898	NaN	0.000000	0.001576	0.001634	28.0809	49.7732	0.001778	28000.4	6.150139	-4.963835	107.741	1.152763	0.050517	0.050121	108.898	28000.4	0.047601	0.085141	1279.03	87673.3
445	2.000000	1.155664	7.36942e+06	-54839.1	1005.82	-29742.9	0.000000	0.000000	7.160279	113.212	NaN	0.000000	0.001577	0.001664	28.0806	51.9693	0.001736	29939.1	4.667645	175.329	113.179	1.155468	0.053022	0.052826	113.212	29939.1	0.050186	0.092989	1217.47	89700.6
445	2.000000	1.158144	7.36942e+06	-54839.1	1005.82	-29742.9	0.000000	0.000000	7.163523	131.79	NaN	0.000000	0.001581	0.001658	28.0812	53.138	0.001724	30829.2	3.956493	-3.022918	129.822	1.157811	0.055501	0.055169	131.79	30829.2	0.052295	0.099639	1322.66	89231.8
445	2.000000	1.160579	7.36942e+06	-54839.1	1005.82	-29742.9	0.000000	0.000000	7.166539	145.91	NaN	0.000000	0.001599	0.001645	28.0806	55.9871	0.001770	31622.6	5.842019	174.349	143.548	1.160316	0.057936	0.057674	145.91	31622.6	0.054476	0.106748	1366.87	88428.1
445	2.000000	1.163204	7.36942e+06	-54839.1	1005.82	-29742.9	0.000000	0.000000	7.169372	150.966	NaN	0.000000	0.001564	0.001648	28.081	59.4858	0.001777	33483.5	7.276285	-7.771772	152.263	1.162861	0.060562	0.060219	150.966	33483.5	0.057181	0.115893	1302.62	89861.7
445	2.000000	1.165673	7.36942e+06	-54839.1	1005.82	-29742.9	0.000000	0.000000	7.172677	171.289	NaN	0.000000	0.001575	0.001682	28.0807	62.0064	0.001772	34985.6	8.222089	172.327	173.057	1.165237	0.063031	0.062595	171.289	34985.6	0.059359	0.123520	1386.73	90948
445	2.000000	1.168172	7.36942e+06	-54839.1	1005.82	-29742.9	0.000000	0.000000	7.175746	185.16	NaN	0.000000	0.001600	0.001680	28.0807	63.4312	0.001741	36430.8	4.954129	-4.879260	184.664	1.167780	0.065530	0.065138	185.16	36430.8	0.061718	0.132041	1402.3	91598.4
445	2.000000	1.170573	7.36942e+06	-54839.1	1005.82	-29742.9	0.000000	0.000000	7.178850	202.24	NaN	0.000000	0.001587	0.001612	28.0809	65.1343	0.001670	38991	4.708105	174.022	199.656	1.170267	0.067931	0.067624	202.24	38991	0.064040	0.140694	1437.45	94972.9
445	2.000000	1.173046	7.36942e+06	-54839.1	1005.82	-29742.9	0.000000	0.000000	7.181973	218.03	NaN	0.000000	0.001583	0.001628	28.0811	68.7194	0.001943	35359.7	2.945985	-3.337315	212.674	1.172728	0.070404	0.070086	218.03	35359.7	0.065779	0.147344	1479.74	84161.9
445	2.000000	1.175568	7.36942e+06	-54839.1	1005.82	-29742.9	0.000000	0.000000	7.184879	227.363	NaN	0.000000	0.001599	0.001681	28.0806	70.6196	0.001838	38420.5	2.102022	176.829	224.932	1.175322	0.072926	0.072680	227.363	38420.5	0.068488	0.157990	1439.1	88312.5
445	2.000000	1.178041	7.36942e+06	-54839.1	1005.82	-29742.9	0.000000	0.000000	7.188245	249.072	NaN	0.000000	0.001538	0.001653	28.0808	72.2006	0.001765	40909.4	3.478395	-4.660326	242.494	1.177629	0.075399	0.074987	249.072	40909.4	0.070833	0.167493	1487.06	91326.8
445	2.000000	1.180549	7.36942e+06	-54839.1	1005.82	-29742.9	0.000000	0.000000	7.191222	260.484	NaN	0.000000	0.001555	0.001618	28.0809	74.0384	0.001775	41704	4.656316	174.281	255.887	1.180221	0.077907	0.077578	260.484	41704	0.073222	0.177443	1467.99	90452.7
445	2.000000	1.183066	7.36942e+06	-54839.1	1005.82	-29742.9	0.000000	0.000000	7.194307	274.303	NaN	0.000000	0.001536	0.001611	28.0816	77.8876	0.001733	44953.9	6.500342	-9.400719	270.519	1.182776	0.080423	0.080133	274.303	44953.9	0.075847	0.188683	1453.78	94552.8
445	2.000000	1.185636	7.36942e+06	-54839.1	1005.82	-29742.9	0.000000	0.000000	7.197434	287.839	NaN	0.000000	0.001549	0.001620	28.0819	81.2947	0.001747	46529.8	3.842571	173.283	287.877	1.185229	0.082994	0.082587	287.839	46529.8	0.078354	0.199721	1441.2	95124.5
445	2.000000	1.188091	7.36942e+06	-54839.1	1005.82	-29742.9	0.000000	0.000000	7.200715	307.919	NaN	0.000000	0.001531	0.001612	28.0821	83.8835	0.001834	45740.4	9.230560	-11.6574	304.808	1.187666	0.085449	0.085024	307.919	45740.4	0.080400	0.208947	1473.67	91423
445	2.000000	1.190486	7.36942e+06	-54839.1	1005.82	-29742.9	0.000000	0.000000	7.203939	328.048	NaN	0.000000	0.001522	0.001636	28.082	84.8274	0.001790	47381.5	6.578880	170.46	320.338	1.190133	0.087844	0.087491	328.048	47381.5	0.082652	0.219326	1495.71	92435
445	2.000000	1.193010	7.36942e+06	-54839.1	1005.82	-29742.9	0.000000	0.000000	7.207312	348.689	NaN	0.000000	0.001524	0.001634	28.082	87.8714	0.001800	48824.6	6.036226	-9.023539	342.024	1.192685	0.090368	0.090042	348.689	48824.6	0.085012	0.230458	1513.02	92921.4
445	2.000000	1.195466	7.36942e+06	-54839.1	1005.82	-29742.9	0.000000	0.000000	7.210466	365.666	NaN	0.000000	0.001554	0.001624	28.0818	90.3025	0.001840	49069.2	3.373670	173.897	358.722	1.195178	0.092824	0.092536	365.666	49069.2	0.087235	0.241180	1516.15	91287.7
445	2.000000	1.198060	7.36942e+06	-54839.1	1005.82	-29742.9	0.000000	0.000000	7.213738	382.142	NaN	0.000000	0.001532	0.001688	28.0821	92.0936	0.001820	50605.6	1.610040	-4.550613	378.423	1.197797	0.095418	0.095155	382.142	50605.6	0.089755	0.253604	1506.85	91810.8
445	2.000000	1.200755	7.36942e+06	-54839.1	1005.82	-29742.9	0.000000	0.000000	7.217104	398.459	NaN	0.000000	0.001563	0.001639	28.082	95.339	0.001911	49899.8	4.654838	172.441	406.949	1.200411	0.098113	0.097769	398.459	49899.8	0.092124	0.265553	1500.49	88470.1
445	2.000000	1.203011	7.36942e+06	-54839.1	1005.82	-29742.9	0.000000	0.000000	7.220261	420.36	NaN	0.000000	0.001542	0.001676	28.0819	97.6608	0.001831	53347.2	7.273394	-10.7269	415.854	1.202797	0.100369	0.100155	420.36	53347.2	0.094459	0.277583	1514.36	92510
445	2.000000	1.205516	7.36942e+06	-54839.1	1005.82	-29742.9	0.000000	0.000000	7.223849	446.7	NaN	0.000000	0.001553	0.001629	28.0821	99.1528	0.001738	57062.5	2.616001	173.361	441.87	1.205251	0.102874	0.102609	446.7	57062.5	0.097003	0.290968	1535.22	96650
445	2.000000	1.208154	7.36942e+06	-54839.1	1005.82	-29742.9	0.000000	0.000000	7.227060	460.633	NaN	0.000000	0.001555	0.001643	28.0822	101.921	0.001821	55965.9	4.671579	-7.995540	461.726	1.207868	0.105511	0.105226	460.633	55965.9	0.099338	0.303519	1517.64	92811.9
445	2.000000	1.210452	7.36942e+06	-54839.1	1005.82	-29742.9	0.000000	0.000000	7.230437	486.851	NaN	0.000000	0.001567	0.001603	28.0823	104.449	0.001783	58581.4	3.351313	172.626	479.678	1.210149	0.107810	0.107507	486.851	58581.4	0.101577	0.315779	1541.75	95244.8
445	2.000000	1.211511	7.36942e+06	-54839.1	1005.82	-29742.9	0.000000	0.000000	7.232097	501.476	NaN	0.000000	0.001607	0.001604	28.0825	105.609	0.001685	62667.6	5.016430	170.521	495.794	1.211231	0.108869	0.108589	501.476	62667.6	0.102867	0.322951	1552.8	100751