File: remote_trans/data/nanoindenter/0828-1/data/Data_2025-08-06,11h17m57s/2025-07-22_16-23-58_1_306.txt
2025-07-22, 16:23:58, 1
Index	Phase	Displacement	Time	Pos X	Pos Y	Pos Z	Rot A	Rot B	Piezo Z	Force A	Force B	Gripper	Voltage A	Voltage B	Temperature	Amplitude force	Amplitude pos	Stiffness	Phase shift	Phase excitation	Force A raw	Displacement raw	HMax	HMax raw	Real Force	Real Stiffness	Contact Depth	Area	Hardness	Reduced Mod.
[#]	[#]	[um]	[s]	[um]	[um]	[um]	[m°]	[m°]	[um]	[uN]	[uN]	[V]	[V]	[V]	[°C]	[uN]	[um]	[N/m]	[°]	[°]	[uN]	[um]	[um]	[um]	[uN]	[N/m]	[um]	[um^2]	[MPa]	[MPa]
306	1.000000	0.002268	7.36806e+06	-53939.1	955.819	-29745.1	0.000000	0.000000	6.002828	0.006612	NaN	0.000000	0.001562	0.001773	28.0797	0.170703	0.000882	193.47	54.0734	-157.831	-0.093866	0.001000	-1.039171	-1.040439	0.006612	193.47	-1.039197	-7.641310E+13	-8.652644E-17	NaN
306	1.000000	0.010228	7.36806e+06	-53939.1	955.819	-29745.1	0.000000	0.000000	6.010786	-0.056498	NaN	0.000000	0.001588	0.001711	28.0796	0.022569	0.000930	24.2795	-122.885	-164.87	-0.017170	0.008860	-1.031211	-1.032579	-0.056498	24.2795	-1.029466	-5.653180E+13	9.994065E-16	NaN
306	1.000000	0.018171	7.36806e+06	-53939.1	955.819	-29745.1	0.000000	0.000000	6.018729	-0.045050	NaN	0.000000	0.001572	0.001665	28.0797	0.074061	0.001744	42.4587	-138.246	-168.939	0.019840	0.016907	-1.023268	-1.024532	-0.045050	42.4587	-1.022473	-4.552184E+13	9.896292E-16	NaN
306	1.000000	0.026216	7.36806e+06	-53939.1	955.818	-29745.2	0.000000	0.000000	6.026778	0.044166	NaN	0.000000	0.001622	0.001725	28.0803	0.020117	0.001827	11.0129	143.575	-161.394	0.029741	0.024895	-1.015223	-1.016544	0.044166	11.0129	-1.018231	-3.991588E+13	-1.106481E-15	NaN
306	1.000000	0.034205	7.36806e+06	-53939.1	955.818	-29745.2	0.000000	0.000000	6.034767	0.026350	NaN	0.000000	0.001628	0.001709	28.0796	0.002242	0.001962	1.142849	147.08	-164.028	0.082872	0.032921	-1.007234	-1.008518	0.026350	1.142849	-1.024526	-4.851097E+13	-5.431695E-16	NaN
306	1.000000	0.042185	7.36806e+06	-53939.1	955.819	-29745.2	0.000000	0.000000	6.042745	-0.010121	NaN	0.000000	0.001591	0.001735	28.0801	0.099121	0.001936	51.1917	166.53	-164.917	-0.025926	0.040864	-0.999254	-1.000575	-0.010121	51.1917	-0.999105	-2.206600E+13	4.586860E-16	NaN
306	1.000000	0.050227	7.36806e+06	-53939.1	955.818	-29745.2	0.000000	0.000000	6.050782	-0.105095	NaN	0.000000	0.001577	0.001725	28.0805	0.033590	0.001928	17.4252	-130.924	-162.516	-0.048517	0.048879	-0.991212	-0.992560	-0.105095	17.4252	-0.986689	-1.501471E+13	6.999468E-15	NaN
306	1.000000	0.058222	7.36806e+06	-53939.1	955.818	-29745.2	0.000000	0.000000	6.058782	0.005475	NaN	0.000000	0.001609	0.001660	28.0811	0.063536	0.002110	30.1072	-174.103	-164.298	0.082333	0.056873	-0.983217	-0.984566	0.005475	30.1072	-0.983354	-1.353909E+13	-4.043498E-16	NaN
306	1.000000	0.066201	7.36806e+06	-53939.1	955.819	-29745.2	0.000000	0.000000	6.066761	-0.019380	NaN	0.000000	0.001628	0.001702	28.0811	0.004457	0.001963	2.270388	-1.591656	-165.188	-0.072248	0.064909	-0.975238	-0.976530	-0.019380	2.270388	-0.968836	-8.629200E+12	2.245849E-15	NaN
306	1.000000	0.074183	7.36806e+06	-53939.1	955.819	-29745.2	0.000000	0.000000	6.074743	-0.000127	NaN	0.000000	0.001615	0.001711	28.081	0.098939	0.001890	52.3368	91.1431	-165.548	0.037109	0.072905	-0.967256	-0.968534	-0.000127	52.3368	-0.967255	-8.216025E+12	1.546463E-17	NaN
306	1.000000	0.082201	7.36806e+06	-53939.1	955.819	-29745.2	0.000000	0.000000	6.082760	-0.023991	NaN	0.000000	0.001612	0.001716	28.0814	0.071336	0.001862	38.3151	-98.3162	-163.308	0.007076	0.080888	-0.959238	-0.960551	-0.023991	38.3151	-0.958768	-6.313415E+12	3.799992E-15	NaN
306	1.000000	0.090205	7.36806e+06	-53939.1	955.818	-29745.2	0.000000	0.000000	6.090762	-0.075411	NaN	0.000000	0.001620	0.001697	28.0811	0.083533	0.001968	42.4381	-101.959	-167.422	-0.144998	0.088911	-0.951234	-0.952528	-0.075411	42.4381	-0.949901	-4.793993E+12	1.573029E-14	NaN
306	1.000000	0.098221	7.36806e+06	-53939.1	955.819	-29745.2	0.000000	0.000000	6.098779	-0.061570	NaN	0.000000	0.001611	0.001728	28.0811	0.127638	0.002034	62.7651	-148.662	-161.746	-0.022075	0.096915	-0.943218	-0.944524	-0.061570	62.7651	-0.942482	-3.807340E+12	1.617149E-14	NaN
306	1.000000	0.106148	7.36806e+06	-53939.1	955.819	-29745.2	0.000000	0.000000	6.106706	-0.063829	NaN	0.000000	0.001607	0.001718	28.081	0.081452	0.001990	40.9386	136.778	-161.682	-0.107377	0.104941	-0.935291	-0.936498	-0.063829	40.9386	-0.934121	-2.936407E+12	2.173723E-14	NaN
306	1.000000	0.114197	7.36806e+06	-53939.1	955.819	-29745.2	0.000000	0.000000	6.114756	-0.014457	NaN	0.000000	0.001626	0.001772	28.0809	0.075648	0.001976	38.28	61.5149	-164.157	-0.180850	0.112898	-0.927242	-0.928541	-0.014457	38.28	-0.926959	-2.350463E+12	6.150840E-15	NaN
306	1.000000	0.122216	7.36806e+06	-53939.1	955.819	-29745.2	0.000000	0.000000	6.122774	-0.054635	NaN	0.000000	0.001623	0.001774	28.0813	0.083894	0.001999	41.9777	37.7598	-164.089	-0.070511	0.120933	-0.919223	-0.920506	-0.054635	41.9777	-0.918247	-1.792817E+12	3.047454E-14	NaN
306	1.000000	0.130228	7.36806e+06	-53939.1	955.818	-29745.2	0.000000	0.000000	6.130788	0.022505	NaN	0.000000	0.001617	0.001718	28.0811	0.039654	0.001990	19.928	49.3938	-165.385	-0.000364	0.128922	-0.911211	-0.912517	0.022505	19.928	-0.912058	-1.478990E+12	-1.521633E-14	NaN
306	1.000000	0.138252	7.36806e+06	-53939.1	955.819	-29745.2	0.000000	0.000000	6.138812	-0.010048	NaN	0.000000	0.001610	0.001699	28.0811	0.104528	0.002074	50.411	-72.5955	-164.094	-0.040466	0.136936	-0.903187	-0.904503	-0.010048	50.411	-0.903037	-1.117133E+12	8.994151E-15	NaN
306	1.000000	0.146221	7.36806e+06	-53939.1	955.818	-29745.2	0.000000	0.000000	6.146782	0.005430	NaN	0.000000	0.001636	0.001668	28.081	0.098828	0.002162	45.713	89.9455	-164.559	0.064943	0.144898	-0.895218	-0.896541	0.005430	45.713	-0.895307	-8.783023E+11	-6.182230E-15	NaN
306	1.000000	0.154235	7.36806e+06	-53939.1	955.819	-29745.2	0.000000	0.000000	6.154795	-0.002251	NaN	0.000000	0.001609	0.001692	28.081	0.114453	0.001992	57.4578	27.9921	-164.036	-0.035009	0.152962	-0.887204	-0.888477	-0.002251	57.4578	-0.887175	-6.819004E+11	3.300742E-15	NaN
306	1.000000	0.162217	7.36806e+06	-53939.1	955.82	-29745.2	0.000000	0.000000	6.162777	-0.024141	NaN	0.000000	0.001643	0.001691	28.081	0.027930	0.001994	14.0047	-50.3205	-164.161	-0.033932	0.160958	-0.879222	-0.880481	-0.024141	14.0047	-0.877929	-5.113237E+11	4.721200E-14	NaN
306	1.000000	0.170264	7.36806e+06	-53939.1	955.819	-29745.2	0.000000	0.000000	6.170824	0.011777	NaN	0.000000	0.001641	0.001697	28.0811	0.102441	0.001969	52.0274	79.8389	-167.331	-0.059926	0.168906	-0.871175	-0.872533	0.011777	52.0274	-0.871345	-4.165268E+11	-2.827425E-14	NaN
306	1.000000	0.178243	7.36806e+06	-53939.1	955.818	-29745.2	0.000000	0.000000	6.178802	-0.034216	NaN	0.000000	0.001602	0.001707	28.0814	0.080316	0.001962	40.9425	31.5495	-166.561	0.030506	0.177003	-0.863196	-0.864436	-0.034216	40.9425	-0.862569	-3.168798E+11	1.079790E-13	NaN
306	1.000000	0.186246	7.36806e+06	-53939.1	955.817	-29745.2	0.000000	0.000000	6.186804	-0.057316	NaN	0.000000	0.001564	0.001715	28.0804	0.077557	0.002053	37.7706	-171.429	-164.37	-0.043985	0.184953	-0.855193	-0.856486	-0.057316	37.7706	-0.854055	-2.430189E+11	2.358505E-13	NaN
306	1.000000	0.194300	7.36806e+06	-53939.1	955.818	-29745.2	0.000000	0.000000	6.194859	-0.039755	NaN	0.000000	0.001617	0.001710	28.0801	0.154016	0.002077	74.1388	-146.669	-165.001	0.007215	0.192970	-0.847139	-0.848469	-0.039755	74.1388	-0.846736	-1.934379E+11	2.055185E-13	NaN
306	1.000000	0.202237	7.36806e+06	-53939.1	955.818	-29745.2	0.000000	0.000000	6.202798	0.026038	NaN	0.000000	0.001652	0.001731	28.0798	0.095911	0.001988	48.2437	90.816	-166.014	0.103618	0.200959	-0.839202	-0.840480	0.026038	48.2437	-0.839607	-1.548703E+11	-1.681264E-13	NaN
306	1.000000	0.210273	7.36806e+06	-53939.1	955.819	-29745.2	0.000000	0.000000	6.210832	-0.023161	NaN	0.000000	0.001619	0.001705	28.08	0.100765	0.001924	52.3619	-24.2166	-168.22	0.007539	0.208940	-0.831166	-0.832499	-0.023161	52.3619	-0.830834	-1.177859E+11	1.966391E-13	NaN
306	1.000000	0.218259	7.36806e+06	-53939.1	955.818	-29745.2	0.000000	0.000000	6.218820	0.020475	NaN	0.000000	0.001603	0.001743	28.0801	0.084566	0.002105	40.1757	-53.6385	-168.414	0.005012	0.216899	-0.823180	-0.824540	0.020475	40.1757	-0.823562	-9.386666E+10	-2.181327E-13	NaN
306	1.000000	0.226241	7.36806e+06	-53939.1	955.819	-29745.2	0.000000	0.000000	6.226800	-0.020439	NaN	0.000000	0.001659	0.001719	28.08	0.069579	0.002089	33.3085	14.8564	-163.696	-0.005487	0.224992	-0.815198	-0.816447	-0.020439	33.3085	-0.814738	-7.125898E+10	2.868261E-13	NaN
306	1.000000	0.234299	7.36806e+06	-53939.1	955.819	-29745.2	0.000000	0.000000	6.234859	-0.006444	NaN	0.000000	0.001597	0.001737	28.0804	0.080816	0.002062	39.202	31.1201	-164.111	0.008241	0.232910	-0.807140	-0.808529	-0.006444	39.202	-0.807017	-5.598817E+10	1.150941E-13	NaN
306	1.000000	0.242281	7.36806e+06	-53939.1	955.818	-29745.2	0.000000	0.000000	6.242841	-0.008068	NaN	0.000000	0.001612	0.001696	28.0797	0.126196	0.002018	62.5328	-157.884	-163.192	0.039112	0.240955	-0.799158	-0.800484	-0.008068	62.5328	-0.799061	-4.366380E+10	1.847823E-13	NaN
306	1.000000	0.250256	7.36806e+06	-53939.1	955.819	-29745.2	0.000000	0.000000	6.250813	-0.071282	NaN	0.000000	0.001621	0.001641	28.0799	0.057246	0.002123	26.9699	-73.4985	-167.086	-0.064575	0.248970	-0.791183	-0.792469	-0.071282	26.9699	-0.789201	-3.207957E+10	2.222030E-12	NaN
306	1.000000	0.258277	7.36806e+06	-53939.1	955.818	-29745.2	0.000000	0.000000	6.258838	0.005198	NaN	0.000000	0.001592	0.001651	28.0799	0.072513	0.001993	36.3899	-152.804	-166.017	0.019417	0.256960	-0.783162	-0.784479	0.005198	36.3899	-0.783269	-2.664694E+10	-1.950544E-13	NaN
306	1.000000	0.266261	7.36806e+06	-53939.1	955.819	-29745.2	0.000000	0.000000	6.266819	-0.044621	NaN	0.000000	0.001544	0.001651	28.0798	0.061432	0.002009	30.5752	156.951	-161.587	-0.061692	0.264935	-0.775178	-0.776504	-0.044621	30.5752	-0.774084	-1.999050E+10	2.232103E-12	NaN
306	1.000000	0.274317	7.36806e+06	-53939.1	955.818	-29745.2	0.000000	0.000000	6.274877	0.006510	NaN	0.000000	0.001631	0.001663	28.0801	0.048110	0.002012	23.9117	-121.551	-165.493	-0.048365	0.272971	-0.767122	-0.768468	0.006510	23.9117	-0.767327	-1.617904E+10	-4.023883E-13	NaN
306	1.000000	0.282290	7.36806e+06	-53939.1	955.818	-29745.2	0.000000	0.000000	6.282850	-0.009512	NaN	0.000000	0.001590	0.001641	28.0796	0.134509	0.002005	67.0864	-64.7852	-167.062	-0.017509	0.280978	-0.759149	-0.760461	-0.009512	67.0864	-0.759042	-1.248168E+10	7.620538E-13	NaN
306	1.000000	0.290286	7.36806e+06	-53939.1	955.819	-29745.2	0.000000	0.000000	6.290846	-0.009884	NaN	0.000000	0.001604	0.001639	28.0801	0.066795	0.002050	32.5833	-120.648	-164.956	0.027236	0.288926	-0.751153	-0.752513	-0.009884	32.5833	-0.750925	-9.678620E+9	1.021202E-12	NaN
306	1.000000	0.298285	7.36806e+06	-53939.1	955.819	-29745.2	0.000000	0.000000	6.298843	-0.062893	NaN	0.000000	0.001631	0.001677	28.0798	0.021906	0.001990	11.0058	165.856	-165.253	-0.001748	0.296993	-0.743154	-0.744446	-0.062893	11.0058	-0.738868	-6.631867E+9	9.483464E-12	NaN
306	1.000000	0.306293	7.36806e+06	-53939.1	955.818	-29745.2	0.000000	0.000000	6.306852	-0.025171	NaN	0.000000	0.001619	0.001650	28.0798	0.086144	0.001846	46.6661	-145.74	-165.468	-0.052197	0.304971	-0.735146	-0.736468	-0.025171	46.6661	-0.734741	-5.826658E+9	4.319977E-12	NaN
306	1.000000	0.314296	7.36806e+06	-53939.1	955.819	-29745.2	0.000000	0.000000	6.314856	0.001369	NaN	0.000000	0.001603	0.001666	28.08	0.055173	0.001980	27.8588	151.223	-164.276	-0.009765	0.313039	-0.727143	-0.728400	0.001369	27.8588	-0.727180	-4.595935E+9	-2.978842E-13	NaN
306	1.000000	0.322297	7.36806e+06	-53939.1	955.819	-29745.2	0.000000	0.000000	6.322855	-0.050534	NaN	0.000000	0.001635	0.001640	28.0802	0.089898	0.001967	45.6922	-168.036	-167.616	-0.126922	0.320995	-0.719142	-0.720444	-0.050534	45.6922	-0.718313	-3.479067E+9	1.452504E-11	NaN
306	1.000000	0.330309	7.36806e+06	-53939.1	955.819	-29745.2	0.000000	0.000000	6.330872	0.059558	NaN	0.000000	0.001630	0.001650	28.0814	0.056784	0.001929	29.4445	68.766	-162.815	0.013000	0.328978	-0.711130	-0.712461	0.059558	29.4445	-0.712647	-2.911849E+9	-2.045355E-11	NaN
306	1.000000	0.338297	7.36806e+06	-53939.1	955.82	-29745.2	0.000000	0.000000	6.338856	-0.028290	NaN	0.000000	0.001673	0.001630	28.0812	0.028762	0.001836	15.6678	-23.1857	-163.783	-0.041776	0.337034	-0.703142	-0.704405	-0.028290	15.6678	-0.701788	-2.069859E+9	1.366770E-11	NaN
306	1.000000	0.346305	7.36806e+06	-53939.1	955.818	-29745.2	0.000000	0.000000	6.346864	-0.015999	NaN	0.000000	0.001632	0.001621	28.0812	0.062606	0.002014	31.0788	-154.962	-162.459	-0.071903	0.345009	-0.695134	-0.696430	-0.015999	31.0788	-0.694748	-1.658798E+9	9.644706E-12	NaN
306	1.000000	0.354336	7.36806e+06	-53939.1	955.82	-29745.2	0.000000	0.000000	6.354895	-0.037364	NaN	0.000000	0.001620	0.001607	28.0813	0.109540	0.002104	52.0521	-171.699	-168.576	0.024665	0.352979	-0.687102	-0.688460	-0.037364	52.0521	-0.686564	-1.282203E+9	2.914066E-11	NaN
306	1.000000	0.362312	7.36806e+06	-53939.1	955.819	-29745.2	0.000000	0.000000	6.362868	-0.098670	NaN	0.000000	0.001609	0.001605	28.0814	0.118849	0.001854	64.1114	-147.941	-163.846	-0.121907	0.361046	-0.679127	-0.680393	-0.098670	64.1114	-0.677972	-9.783021E+8	1.008588E-10	NaN
306	1.000000	0.370337	7.36806e+06	-53939.1	955.819	-29745.2	0.000000	0.000000	6.370896	-0.028377	NaN	0.000000	0.001591	0.001626	28.0818	0.116438	0.001995	58.371	-124.837	-165.206	0.036029	0.369033	-0.671102	-0.672406	-0.028377	58.371	-0.670738	-7.789076E+8	3.643126E-11	NaN
306	1.000000	0.378335	7.36806e+06	-53939.1	955.819	-29745.2	0.000000	0.000000	6.378890	-0.108203	NaN	0.000000	0.001569	0.001595	28.0817	0.031178	0.002061	15.1292	13.904	-165.116	-0.101648	0.377013	-0.663104	-0.664426	-0.108203	15.1292	-0.657740	-5.170290E+8	2.092778E-10	NaN
306	1.000000	0.386327	7.36806e+06	-53939.1	955.819	-29745.2	0.000000	0.000000	6.386885	-0.053557	NaN	0.000000	0.001597	0.001630	28.0816	0.095127	0.002053	46.3301	-34.5535	-165.949	-0.130040	0.384969	-0.655112	-0.656470	-0.053557	46.3301	-0.654245	-4.630413E+8	1.156627E-10	NaN
306	1.000000	0.394350	7.36806e+06	-53939.1	955.819	-29745.2	0.000000	0.000000	6.394910	-0.016362	NaN	0.000000	0.001572	0.001633	28.0812	0.111772	0.002006	55.7277	-178.125	-161.366	-0.085164	0.393022	-0.647089	-0.648417	-0.016362	55.7277	-0.646868	-3.668605E+8	4.460132E-11	NaN
306	1.000000	0.402330	7.36806e+06	-53939.1	955.819	-29745.2	0.000000	0.000000	6.402888	-0.052424	NaN	0.000000	0.001644	0.001622	28.0814	0.055762	0.001946	28.6537	67.6172	-165.513	-0.011095	0.400994	-0.639109	-0.640445	-0.052424	28.6537	-0.637736	-2.749345E+8	1.906796E-10	NaN
306	1.000000	0.410334	7.36806e+06	-53939.1	955.819	-29745.2	0.000000	0.000000	6.410891	-0.069594	NaN	0.000000	0.001592	0.001650	28.0816	0.030895	0.002000	15.4495	-31.9889	-166.14	-0.082213	0.409018	-0.631105	-0.632421	-0.069594	15.4495	-0.627726	-2.003543E+8	3.473563E-10	NaN
306	1.000000	0.418347	7.36806e+06	-53939.1	955.819	-29745.2	0.000000	0.000000	6.418906	-0.026126	NaN	0.000000	0.001636	0.001672	28.0815	0.080267	0.002073	38.7209	17.0555	-165.716	-0.064094	0.417006	-0.623092	-0.624433	-0.026126	38.7209	-0.622585	-1.702815E+8	1.534268E-10	NaN
306	1.000000	0.426348	7.36806e+06	-53939.1	955.819	-29745.2	0.000000	0.000000	6.426908	0.003469	NaN	0.000000	0.001588	0.001649	28.0816	0.059240	0.002152	27.5264	-171.789	-163.638	0.097289	0.425078	-0.615091	-0.616361	0.003469	27.5264	-0.615185	-1.347223E+8	-2.575125E-11	NaN
306	1.000000	0.434335	7.36806e+06	-53939.1	955.819	-29745.2	0.000000	0.000000	6.434893	-0.050377	NaN	0.000000	0.001600	0.001657	28.0813	0.068496	0.002144	31.9487	-131.656	-167.489	-0.070276	0.432975	-0.607104	-0.608464	-0.050377	31.9487	-0.605921	-1.004583E+8	5.014756E-10	NaN
306	1.000000	0.442348	7.36806e+06	-53939.1	955.819	-29745.2	0.000000	0.000000	6.442906	-0.040000	NaN	0.000000	0.001571	0.001651	28.0814	0.081511	0.002050	39.7651	42.1356	-162.649	-0.076855	0.441055	-0.599091	-0.600384	-0.040000	39.7651	-0.598337	-7.898605E+7	5.064247E-10	NaN
306	1.000000	0.450370	7.36806e+06	-53939.1	955.819	-29745.2	0.000000	0.000000	6.450926	-0.091259	NaN	0.000000	0.001600	0.001643	28.0814	0.032302	0.001973	16.3713	-124.035	-165.046	-0.075758	0.449048	-0.591069	-0.592391	-0.091259	16.3713	-0.586889	-5.492441E+7	1.661534E-9	NaN
306	1.000000	0.458333	7.36806e+06	-53939.1	955.82	-29745.2	0.000000	0.000000	6.458893	0.007713	NaN	0.000000	0.001584	0.001605	28.0815	0.111163	0.001979	56.1672	-126.592	-163.736	-0.074289	0.457000	-0.583106	-0.584439	0.007713	56.1672	-0.583209	-4.886651E+7	-1.578326E-10	NaN
306	1.000000	0.466394	7.36806e+06	-53939.1	955.819	-29745.2	0.000000	0.000000	6.466953	-0.029195	NaN	0.000000	0.001617	0.001627	28.0799	0.010298	0.002101	4.900674	90.8276	-166.624	0.009354	0.465087	-0.575045	-0.576352	-0.029195	4.900674	-0.570577	-3.270410E+7	8.926877E-10	NaN
306	1.000000	0.474373	7.36806e+06	-53939.1	955.818	-29745.2	0.000000	0.000000	6.474934	0.029256	NaN	0.000000	0.001599	0.001649	28.0799	0.056174	0.002101	26.7394	-104.501	-163.503	-0.075184	0.473046	-0.567066	-0.568393	0.029256	26.7394	-0.567887	-3.002125E+7	-9.745237E-10	NaN
306	1.000000	0.482381	7.36806e+06	-53939.1	955.819	-29745.2	0.000000	0.000000	6.482939	-0.048844	NaN	0.000000	0.001598	0.001620	28.0802	0.056828	0.002110	26.9348	-50.9494	-166.621	-0.102349	0.481111	-0.559058	-0.560328	-0.048844	26.9348	-0.557698	-2.170316E+7	2.250531E-9	NaN
306	1.000000	0.490355	7.36806e+06	-53939.1	955.818	-29745.2	0.000000	0.000000	6.490912	-0.080159	NaN	0.000000	0.001630	0.001634	28.0801	0.131046	0.002043	64.1485	-88.9875	-165.72	-0.058620	0.489105	-0.551084	-0.552334	-0.080159	64.1485	-0.550147	-1.706028E+7	4.698593E-9	NaN
306	1.000000	0.498396	7.36806e+06	-53939.1	955.818	-29745.2	0.000000	0.000000	6.498956	-0.009456	NaN	0.000000	0.001605	0.001637	28.08	0.087321	0.001953	44.7133	-121.004	-165.288	-0.008260	0.497093	-0.543043	-0.544346	-0.009456	44.7133	-0.542884	-1.353166E+7	6.988205E-10	NaN
306	1.000000	0.506394	7.36806e+06	-53939.1	955.817	-29745.2	0.000000	0.000000	6.506953	-0.015492	NaN	0.000000	0.001596	0.001630	28.0801	0.073916	0.001913	38.6452	-109.274	-167.41	-0.081722	0.505107	-0.535045	-0.536332	-0.015492	38.6452	-0.534744	-1.043383E+7	1.484745E-9	NaN
306	1.000000	0.514390	7.36806e+06	-53939.1	955.819	-29745.2	0.000000	0.000000	6.514951	0.009415	NaN	0.000000	0.001614	0.001609	28.0798	0.104593	0.002017	51.8513	147.346	-159.771	-0.048464	0.513067	-0.527049	-0.528372	0.009415	51.8513	-0.527185	-8.19353e+06	-1.149065E-9	NaN
306	1.000000	0.522379	7.36806e+06	-53939.1	955.819	-29745.2	0.000000	0.000000	6.522937	-0.045045	NaN	0.000000	0.001603	0.001613	28.08	0.152393	0.001911	79.7297	-18.921	-165.398	0.015809	0.521044	-0.519060	-0.520395	-0.045045	79.7297	-0.518636	-6.23203e+06	7.227976E-9	NaN
306	1.000000	0.530382	7.36806e+06	-53939.1	955.819	-29745.2	0.000000	0.000000	6.530942	-0.010490	NaN	0.000000	0.001581	0.001636	28.08	0.049984	0.001954	25.5797	-23.4603	-168.491	0.023560	0.529084	-0.511057	-0.512355	-0.010490	25.5797	-0.510749	-4.84002e+06	2.167303E-9	NaN
306	1.000000	0.538415	7.36806e+06	-53939.1	955.819	-29745.2	0.000000	0.000000	6.538972	-0.072411	NaN	0.000000	0.001547	0.001667	28.0801	0.117784	0.001998	58.9425	153.351	-165.627	-0.068276	0.537071	-0.503024	-0.504368	-0.072411	58.9425	-0.502103	-3.66733e+06	1.974477E-8	NaN
306	1.000000	0.546400	7.36806e+06	-53939.1	955.819	-29745.2	0.000000	0.000000	6.546957	-0.079108	NaN	0.000000	0.001604	0.001610	28.0803	0.057279	0.002064	27.7484	-85.4037	-162.522	-0.054663	0.545054	-0.495039	-0.496385	-0.079108	27.7484	-0.492901	-2.72848e+06	2.899325E-8	NaN
306	1.000000	0.554387	7.36806e+06	-53939.1	955.819	-29745.2	0.000000	0.000000	6.554945	-0.054698	NaN	0.000000	0.001602	0.001654	28.0801	0.172170	0.002150	80.074	-164.708	-164.086	-0.138426	0.553108	-0.487052	-0.488331	-0.054698	80.074	-0.486540	-2.22343e+06	2.460052E-8	NaN
306	1.000000	0.562397	7.36806e+06	-53939.1	955.818	-29745.2	0.000000	0.000000	6.562957	-0.008280	NaN	0.000000	0.001585	0.001604	28.0802	0.068619	0.001884	36.4263	153.855	-162.883	0.013313	0.561094	-0.479042	-0.480345	-0.008280	36.4263	-0.478871	-1.73669e+06	4.767853E-9	NaN
306	1.000000	0.570391	7.36806e+06	-53939.1	955.819	-29745.2	0.000000	0.000000	6.570947	-0.076638	NaN	0.000000	0.001610	0.001641	28.0801	0.045691	0.001938	23.5774	178.435	-166.381	-0.105728	0.569099	-0.471048	-0.472340	-0.076638	23.5774	-0.468611	-1.24715e+06	6.145076E-8	NaN
306	1.000000	0.578416	7.36806e+06	-53939.1	955.819	-29745.2	0.000000	0.000000	6.578976	-0.008266	NaN	0.000000	0.001569	0.001666	28.0802	0.076851	0.001997	38.4801	-3.116827	-164.934	0.038505	0.577085	-0.463023	-0.464354	-0.008266	38.4801	-0.462862	-1.03567e+06	7.981640E-9	NaN
306	1.000000	0.586421	7.36806e+06	-53939.1	955.819	-29745.2	0.000000	0.000000	6.586981	0.015964	NaN	0.000000	0.001634	0.001655	28.0801	0.039664	0.001982	20.0123	-59.4074	-163.415	-0.027262	0.585101	-0.455018	-0.456338	0.015964	20.0123	-0.455617	-819206	-1.948726E-8	NaN
306	1.000000	0.594430	7.36806e+06	-53939.1	955.819	-29745.2	0.000000	0.000000	6.594989	-0.017462	NaN	0.000000	0.001599	0.001686	28.0802	0.054745	0.002131	25.6879	151.78	-165.209	-0.051051	0.593093	-0.447009	-0.448346	-0.017462	25.6879	-0.446500	-609580	2.864520E-8	NaN
306	1.000000	0.602426	7.36806e+06	-53939.1	955.819	-29745.2	0.000000	0.000000	6.602984	-0.051097	NaN	0.000000	0.001522	0.001655	28.0814	0.055120	0.001784	30.8985	58.8608	-167.853	-0.012496	0.601104	-0.439013	-0.440335	-0.051097	30.8985	-0.437773	-459111	1.112959E-7	NaN
306	1.000000	0.610415	7.36806e+06	-53939.1	955.818	-29745.2	0.000000	0.000000	6.610973	-0.062100	NaN	0.000000	0.001540	0.001703	28.0811	0.085970	0.001915	44.9023	73.6674	-168.027	-0.047962	0.609134	-0.431024	-0.432305	-0.062100	44.9023	-0.429987	-356347	1.742684E-7	NaN
306	1.000000	0.618425	7.36806e+06	-53939.1	955.818	-29745.2	0.000000	0.000000	6.618984	-0.035455	NaN	0.000000	0.001531	0.001660	28.0809	0.071811	0.001814	39.577	-80.9526	-165.736	0.037906	0.617125	-0.423014	-0.424314	-0.035455	39.577	-0.422342	-277729	1.276604E-7	NaN
306	1.000000	0.626442	7.36806e+06	-53939.1	955.818	-29745.2	0.000000	0.000000	6.627002	-0.002292	NaN	0.000000	0.001527	0.001631	28.0811	0.106970	0.001928	55.4682	74.5478	-167.176	-0.003746	0.625145	-0.414997	-0.416294	-0.002292	55.4682	-0.414966	-218262	1.050321E-8	NaN
306	1.000000	0.634402	7.36806e+06	-53939.1	955.818	-29745.2	0.000000	0.000000	6.634961	-0.025659	NaN	0.000000	0.001559	0.001656	28.0811	0.070141	0.002104	33.3372	177.727	-168.82	-0.011466	0.633161	-0.407037	-0.408278	-0.025659	33.3372	-0.406460	-165207	1.553112E-7	NaN
306	1.000000	0.642448	7.36806e+06	-53939.1	955.819	-29745.2	0.000000	0.000000	6.643009	0.018358	NaN	0.000000	0.001583	0.001651	28.081	0.025866	0.001926	13.4319	-45.6597	-164.903	-0.049959	0.641149	-0.398991	-0.400290	0.018358	13.4319	-0.400016	-133726	-1.372800E-7	NaN
306	1.000000	0.650451	7.36806e+06	-53939.1	955.818	-29745.2	0.000000	0.000000	6.651010	-0.033167	NaN	0.000000	0.001583	0.001661	28.0809	0.118866	0.002049	57.9986	-163.128	-163.558	0.026209	0.649121	-0.390988	-0.392318	-0.033167	57.9986	-0.390559	-97986.3	3.384903E-7	NaN
306	1.000000	0.658479	7.36806e+06	-53939.1	955.819	-29745.2	0.000000	0.000000	6.659035	-0.092578	NaN	0.000000	0.001582	0.001648	28.0809	0.047814	0.001972	24.2522	-164.856	-163.858	-0.033839	0.657174	-0.382960	-0.384265	-0.092578	24.2522	-0.380097	-69387	1.334223E-6	NaN
306	1.000000	0.666430	7.36806e+06	-53939.1	955.82	-29745.2	0.000000	0.000000	6.666991	0.024773	NaN	0.000000	0.001605	0.001627	28.0807	0.131074	0.001957	66.9897	108.151	-163.489	0.006050	0.665125	-0.375009	-0.376314	0.024773	66.9897	-0.375287	-59182.1	-4.185956E-7	NaN
306	1.000000	0.674485	7.36806e+06	-53939.1	955.818	-29745.2	0.000000	0.000000	6.675041	-0.101756	NaN	0.000000	0.001625	0.001646	28.0811	0.087553	0.002032	43.0787	131.352	-162.86	-0.007892	0.673143	-0.366954	-0.368296	-0.101756	43.0787	-0.365182	-42333.6	2.403673E-6	NaN
306	1.000000	0.682463	7.36806e+06	-53939.1	955.818	-29745.2	0.000000	0.000000	6.683019	-0.081160	NaN	0.000000	0.001636	0.001657	28.0808	0.069587	0.002003	34.7493	-131.613	-162.747	-0.114137	0.681135	-0.358976	-0.360304	-0.081160	34.7493	-0.357225	-32486.6	2.498268E-6	NaN
306	1.000000	0.690474	7.36806e+06	-53939.1	955.819	-29745.2	0.000000	0.000000	6.691031	-0.061600	NaN	0.000000	0.001611	0.001652	28.081	0.058908	0.001934	30.4643	-47.8183	-164.2	-0.086494	0.689209	-0.350965	-0.352230	-0.061600	30.4643	-0.349449	-25061	2.458011E-6	NaN
306	1.000000	0.698474	7.36806e+06	-53939.1	955.818	-29745.2	0.000000	0.000000	6.699036	0.038187	NaN	0.000000	0.001636	0.001626	28.0809	0.085029	0.002037	41.7462	-24.2021	-165.977	0.061947	0.697171	-0.342965	-0.344268	0.038187	41.7462	-0.343651	-20641	-1.850064E-6	NaN
306	1.000000	0.706439	7.36806e+06	-53939.1	955.818	-29745.2	0.000000	0.000000	6.706998	-0.035687	NaN	0.000000	0.001659	0.001664	28.0809	0.029364	0.002141	13.7182	160.042	-166.77	-0.026903	0.705146	-0.335000	-0.336293	-0.035687	13.7182	-0.333049	-14456.6	2.468551E-6	NaN
306	1.000000	0.714454	7.36806e+06	-53939.1	955.819	-29745.2	0.000000	0.000000	6.715016	0.030535	NaN	0.000000	0.001654	0.001655	28.0809	0.084616	0.001982	42.6898	-137.318	-167.41	0.010923	0.713158	-0.326985	-0.328281	0.030535	42.6898	-0.327521	-11998.5	-2.544944E-6	NaN
306	1.000000	0.722485	7.36806e+06	-53939.1	955.818	-29745.2	0.000000	0.000000	6.723044	-0.039453	NaN	0.000000	0.001692	0.001640	28.0809	0.071895	0.001869	38.474	134.022	-166.806	-0.023169	0.721096	-0.318954	-0.320343	-0.039453	38.474	-0.318185	-8747.98	4.509959E-6	NaN
306	1.000000	0.730503	7.36806e+06	-53939.1	955.817	-29745.2	0.000000	0.000000	6.731061	-0.047485	NaN	0.000000	0.001685	0.001620	28.0811	0.153821	0.001952	78.7827	23.0228	-164.878	-0.058785	0.729129	-0.310936	-0.312310	-0.047485	78.7827	-0.310484	-6733.21	7.052408E-6	NaN
306	1.000000	0.738490	7.36806e+06	-53939.1	955.819	-29745.2	0.000000	0.000000	6.739050	0.017621	NaN	0.000000	0.001661	0.001663	28.0797	0.136832	0.001950	70.1599	135.882	-165.887	-0.061432	0.737195	-0.302949	-0.304244	0.017621	70.1599	-0.303138	-5239.62	-3.363007E-6	NaN
306	1.000000	0.746463	7.36806e+06	-53939.1	955.819	-29745.2	0.000000	0.000000	6.747022	-0.012383	NaN	0.000000	0.001697	0.001618	28.0796	0.043432	0.001828	23.762	139.316	-163.034	-0.016439	0.745142	-0.294976	-0.296297	-0.012383	23.762	-0.294586	-3907.49	3.168935E-6	NaN
306	1.000000	0.754513	7.36806e+06	-53939.1	955.818	-29745.2	0.000000	0.000000	6.755072	-0.023608	NaN	0.000000	0.001695	0.001602	28.0797	0.071883	0.002025	35.5026	-176.666	-163.661	-0.046476	0.753230	-0.286926	-0.288209	-0.023608	35.5026	-0.286427	-2949.26	8.004705E-6	NaN
306	1.000000	0.762505	7.36806e+06	-53939.1	955.819	-29745.2	0.000000	0.000000	6.763063	-0.033747	NaN	0.000000	0.001719	0.001606	28.0799	0.087934	0.002019	43.553	14.9318	-166.459	-0.055456	0.761213	-0.278934	-0.280226	-0.033747	43.553	-0.278353	-2229.01	1.513971E-5	NaN
306	1.000000	0.770470	7.36806e+06	-53939.1	955.818	-29745.2	0.000000	0.000000	6.771029	-0.010086	NaN	0.000000	0.001687	0.001658	28.0799	0.038283	0.002037	18.7924	164.141	-164.259	-0.016320	0.769226	-0.270969	-0.272213	-0.010086	18.7924	-0.270567	-1698.85	5.937202E-6	NaN
306	1.000000	0.778483	7.36806e+06	-53939.1	955.819	-29745.2	0.000000	0.000000	6.779043	0.012528	NaN	0.000000	0.001696	0.001618	28.0798	0.115829	0.002042	56.7305	45.3857	-165.314	-0.048807	0.777205	-0.262956	-0.264234	0.012528	56.7305	-0.263122	-1308.28	-9.575579E-6	NaN
306	1.000000	0.786505	7.36806e+06	-53939.1	955.818	-29745.2	0.000000	0.000000	6.787063	-0.049761	NaN	0.000000	0.001696	0.001627	28.0798	0.083960	0.002169	38.707	132.206	-168.146	-0.031724	0.785193	-0.254934	-0.256246	-0.049761	38.707	-0.253970	-946.772	5.255861E-5	NaN
306	1.000000	0.794494	7.36806e+06	-53939.1	955.818	-29745.2	0.000000	0.000000	6.795056	0.043432	NaN	0.000000	0.001620	0.001608	28.0799	0.046817	0.001916	24.4321	2.793652	-164.187	-0.065591	0.793180	-0.246945	-0.248259	0.043432	24.4321	-0.248279	-773.251	-5.616823E-5	NaN
306	1.000000	0.802536	7.36806e+06	-53939.1	955.818	-29745.2	0.000000	0.000000	6.803092	-0.100444	NaN	0.000000	0.001610	0.001604	28.0796	0.123562	0.001959	63.0672	88.216	-165.264	-0.063160	0.801248	-0.238903	-0.240191	-0.100444	63.0672	-0.237708	-529.316	0.000190	NaN
306	1.000000	0.810499	7.36806e+06	-53939.1	955.819	-29745.2	0.000000	0.000000	6.811060	0.023764	NaN	0.000000	0.001633	0.001620	28.0798	0.044993	0.001899	23.6937	135.185	-166.794	0.019012	0.809222	-0.230940	-0.232217	0.023764	23.6937	-0.231693	-425.812	-5.580756E-5	NaN
306	1.000000	0.818523	7.36806e+06	-53939.1	955.818	-29745.2	0.000000	0.000000	6.819080	-0.079019	NaN	0.000000	0.001603	0.001611	28.0798	0.191687	0.001869	102.549	60.4739	-164.722	-0.139213	0.817212	-0.222916	-0.224227	-0.079019	102.549	-0.222338	-302.678	0.000261	NaN
306	1.000000	0.826523	7.36806e+06	-53939.1	955.818	-29745.2	0.000000	0.000000	6.827082	-0.010339	NaN	0.000000	0.001621	0.001641	28.0799	0.062000	0.002158	28.7264	26.2025	-165.6	-0.053075	0.825218	-0.214916	-0.216221	-0.010339	28.7264	-0.214646	-227.941	4.535627E-5	NaN
306	1.000000	0.834539	7.36806e+06	-53939.1	955.818	-29745.2	0.000000	0.000000	6.835096	-0.055072	NaN	0.000000	0.001572	0.001630	28.0797	0.051406	0.002061	24.9389	132.467	-165.93	-0.090928	0.833258	-0.206900	-0.208181	-0.055072	24.9389	-0.205244	-160.525	0.000343	NaN
306	1.000000	0.842550	7.36806e+06	-53939.1	955.819	-29745.2	0.000000	0.000000	6.843109	-0.023044	NaN	0.000000	0.001607	0.001625	28.0797	0.123551	0.002087	59.2102	-114.554	-163.648	0.037394	0.841230	-0.198889	-0.200209	-0.023044	59.2102	-0.198597	-124.918	0.000184	NaN
306	1.000000	0.850529	7.36806e+06	-53939.1	955.818	-29745.2	0.000000	0.000000	6.851088	-0.017503	NaN	0.000000	0.001601	0.001655	28.0799	0.032159	0.001892	16.9993	63.2887	-161.997	-0.075099	0.849243	-0.190910	-0.192196	-0.017503	16.9993	-0.190138	-90.4332	0.000194	NaN
306	1.000000	0.858538	7.36806e+06	-53939.1	955.818	-29745.2	0.000000	0.000000	6.859096	-0.045092	NaN	0.000000	0.001611	0.001646	28.08	0.044568	0.001990	22.4011	38.1335	-163.509	0.020699	0.857162	-0.182901	-0.184277	-0.045092	22.4011	-0.181392	-64.4338	0.000700	NaN
306	1.000000	0.866547	7.36806e+06	-53939.1	955.818	-29745.2	0.000000	0.000000	6.867107	-0.005581	NaN	0.000000	0.001601	0.001645	28.0799	0.071671	0.001972	36.3413	-172.385	-165.421	-0.077723	0.865233	-0.174892	-0.176206	-0.005581	36.3413	-0.174777	-49.6755	0.000112	NaN
306	1.000000	0.874528	7.36806e+06	-53939.1	955.818	-29745.2	0.000000	0.000000	6.875089	0.024111	NaN	0.000000	0.001587	0.001638	28.0815	0.081230	0.002029	40.0272	-12.777	-164.86	-0.013726	0.873254	-0.166911	-0.168185	0.024111	40.0272	-0.167363	-36.9566	-0.000652	NaN
306	1.000000	0.882523	7.36806e+06	-53939.1	955.819	-29745.2	0.000000	0.000000	6.883080	-0.056230	NaN	0.000000	0.001592	0.001656	28.0813	0.073371	0.002064	35.5439	74.1043	-166.814	-0.018272	0.881213	-0.158916	-0.160226	-0.056230	35.5439	-0.157730	-24.9765	0.002251	NaN
306	1.000000	0.890549	7.36806e+06	-53939.1	955.82	-29745.2	0.000000	0.000000	6.891107	-0.046392	NaN	0.000000	0.001594	0.001670	28.0811	0.037764	0.001970	19.1702	144.956	-167.715	0.003941	0.889234	-0.150890	-0.152205	-0.046392	19.1702	-0.149075	-17.4224	0.002663	NaN
306	1.000000	0.898578	7.36806e+06	-53939.1	955.818	-29745.2	0.000000	0.000000	6.899136	-0.047972	NaN	0.000000	0.001584	0.001638	28.0812	0.104042	0.001931	53.8815	11.1047	-163.341	-0.037815	0.897219	-0.142861	-0.144220	-0.047972	53.8815	-0.142194	-13.0026	0.003689	NaN
306	1.000000	0.906537	7.36806e+06	-53939.1	955.818	-29745.2	0.000000	0.000000	6.907095	-0.029829	NaN	0.000000	0.001598	0.001670	28.0811	0.090393	0.002112	42.7932	120.458	-162.081	-0.033566	0.905248	-0.134902	-0.136191	-0.029829	42.7932	-0.134380	-9.256224	0.003223	NaN
306	1.000000	0.914538	7.36806e+06	-53939.1	955.819	-29745.2	0.000000	0.000000	6.915100	0.036423	NaN	0.000000	0.001631	0.001692	28.0814	0.102999	0.002096	49.1471	-134.774	-164.617	0.032861	0.913279	-0.126901	-0.128160	0.036423	49.1471	-0.127457	-6.797936	-0.005358	NaN
306	1.000000	0.922561	7.36806e+06	-53939.1	955.818	-29745.2	0.000000	0.000000	6.923122	0.007898	NaN	0.000000	0.001622	0.001652	28.0815	0.126991	0.001890	67.1755	4.292428	-162.89	0.023070	0.921201	-0.118878	-0.120238	0.007898	67.1755	-0.118966	-4.604315	-0.001715	NaN
306	1.000000	0.930529	7.36806e+06	-53939.1	955.818	-29745.2	0.000000	0.000000	6.931089	-0.017159	NaN	0.000000	0.001636	0.001673	28.0812	0.053165	0.001905	27.9117	144.723	-167.991	-0.061421	0.929242	-0.110910	-0.112197	-0.017159	27.9117	-0.110449	-3.071321	0.005587	NaN
306	1.000000	0.938575	7.36806e+06	-53939.1	955.818	-29745.2	0.000000	0.000000	6.939131	-0.095982	NaN	0.000000	0.001588	0.001651	28.0813	0.113113	0.002010	56.2819	-106.367	-161.336	-0.007625	0.937229	-0.102864	-0.104210	-0.095982	56.2819	-0.101585	-1.980452	0.048465	NaN
306	1.000000	0.946579	7.36806e+06	-53939.1	955.819	-29745.2	0.000000	0.000000	6.947138	-0.039369	NaN	0.000000	0.001589	0.001690	28.0815	0.092217	0.001894	48.7005	121.91	-162.072	-0.070672	0.945283	-0.094860	-0.096156	-0.039369	48.7005	-0.094253	-1.356330	0.029026	NaN
306	1.000000	0.954549	7.36806e+06	-53939.1	955.819	-29745.2	0.000000	0.000000	6.955106	-0.067137	NaN	0.000000	0.001591	0.001653	28.0815	0.012261	0.002097	5.848190	-61.2039	-167.216	-0.003958	0.953245	-0.086890	-0.088194	-0.067137	5.848190	-0.078280	-0.560304	0.119822	NaN
306	1.000000	0.962565	7.36806e+06	-53939.1	955.817	-29745.2	0.000000	0.000000	6.963125	-0.000855	NaN	0.000000	0.001606	0.001689	28.0816	0.059824	0.002039	29.3362	83.7144	-165.173	-0.013589	0.961296	-0.078874	-0.080143	-0.000855	29.3362	-0.078852	-0.579259	0.001476	NaN
306	1.000000	0.970589	7.36806e+06	-53939.1	955.818	-29745.2	0.000000	0.000000	6.971149	0.001601	NaN	0.000000	0.001566	0.001669	28.0814	0.160435	0.002064	77.7364	103.527	-164.194	-0.030394	0.969251	-0.070850	-0.072188	0.001601	77.7364	-0.070866	-0.359764	-0.004449	NaN
306	1.000000	0.978601	7.36806e+06	-53939.1	955.819	-29745.2	0.000000	0.000000	6.979161	0.002656	NaN	0.000000	0.001572	0.001663	28.0812	0.009757	0.001935	5.042794	-138.628	-163.48	0.020612	0.977290	-0.062838	-0.064149	0.002656	5.042794	-0.063233	-0.222471	-0.011940	NaN
306	1.000000	0.986608	7.36806e+06	-53939.1	955.819	-29745.2	0.000000	0.000000	6.987166	-0.041289	NaN	0.000000	0.001607	0.001659	28.081	0.077157	0.002046	37.7034	-74.2037	-164.294	0.017900	0.985265	-0.054831	-0.056174	-0.041289	37.7034	-0.054010	-0.120362	0.343039	NaN
306	1.000000	0.994604	7.36806e+06	-53939.1	955.819	-29745.2	0.000000	0.000000	6.995161	-0.069460	NaN	0.000000	0.001585	0.001707	28.0814	0.008485	0.002118	4.005843	-64.2043	-165.076	-0.063569	0.993260	-0.046835	-0.048179	-0.069460	4.005843	-0.033831	-0.029596	2.346988	NaN
306	1.000000	1.002571	7.36806e+06	-53939.1	955.82	-29745.2	0.000000	0.000000	7.003129	-0.061209	NaN	0.000000	0.001600	0.001655	28.0813	0.030804	0.002093	14.721	20.701	-166.401	0.020256	1.001269	-0.038868	-0.040170	-0.061209	14.721	-0.035749	-0.033699	1.816324	NaN
306	1.000000	1.010590	7.36806e+06	-53939.1	955.819	-29745.2	0.000000	0.000000	7.011149	-0.021420	NaN	0.000000	0.001576	0.001662	28.0802	0.176895	0.002064	85.7204	-39.2874	-164.181	0.094467	1.009317	-0.030849	-0.032122	-0.021420	85.7204	-0.030662	-0.024016	0.891913	NaN
306	1.000000	1.018567	7.36806e+06	-53939.1	955.819	-29745.2	0.000000	0.000000	7.019126	-0.013875	NaN	0.000000	0.001541	0.001649	28.08	0.073679	0.002036	36.1926	149.379	-166.424	-0.033765	1.017264	-0.022872	-0.024175	-0.013875	36.1926	-0.022585	-0.014614	0.949414	NaN
306	1.000000	1.026582	7.36806e+06	-53939.1	955.819	-29745.2	0.000000	0.000000	7.027140	-0.070624	NaN	0.000000	0.001564	0.001721	28.0799	0.144034	0.001858	77.5087	-38.2584	-164.281	-0.067846	1.025264	-0.014857	-0.016175	-0.070624	77.5087	-0.014173	-0.008785	8.039233	NaN
306	1.000000	1.034614	7.36806e+06	-53939.1	955.819	-29745.2	0.000000	0.000000	7.035174	0.012315	NaN	0.000000	0.001575	0.001691	28.0801	0.049987	0.001915	26.1058	-13.4272	-167.228	0.045595	1.033238	-0.006825	-0.008201	0.012315	26.1058	-0.007179	-0.004747	-2.594252	NaN
306	1.000000	1.042606	7.36806e+06	-53939.1	955.817	-29745.2	0.000000	0.000000	7.043177	0.270978	NaN	0.000000	0.001562	0.001648	28.0799	0.718993	0.001992	361.005	9.492899	-163.721	-0.059797	1.041309	0.001167	-0.000130	0.270978	361.005	0.000604	0.000457	593.498	15435.8
306	1.000000	1.050482	7.36806e+06	-53939.1	955.818	-29745.2	0.000000	0.000000	7.051349	7.454573	NaN	0.000000	0.001591	0.001671	28.08	7.976579	0.001882	4238.38	13.0611	-171.522	5.850725	1.049252	0.009043	0.007813	7.454573	4238.38	0.007724	0.006760	1102.72	47097.2
306	2.000000	1.053176	7.36806e+06	-53939.1	955.818	-29745.2	0.000000	0.000000	7.054169	10.5261	NaN	0.000000	0.001621	0.001633	28.0801	11.1554	0.001724	6471.1	7.066706	-172.839	10.2504	1.052891	0.011737	0.011452	10.5261	6471.1	0.010517	0.009762	1078.28	59839
306	2.000000	1.055236	7.36806e+06	-53939.1	955.818	-29745.2	0.000000	0.000000	7.056354	13.5622	NaN	0.000000	0.001584	0.001651	28.0799	13.0204	0.001839	7078.75	8.981862	-173.214	13.6462	1.054853	0.013797	0.013414	13.5622	7078.75	0.012360	0.011924	1137.37	59226.2
306	2.000000	1.057138	7.36806e+06	-53939.1	955.817	-29745.2	0.000000	0.000000	7.058402	17.1256	NaN	0.000000	0.001620	0.001647	28.0798	15.0837	0.001617	9326.22	4.958546	-173.718	15.9109	1.056819	0.015699	0.015380	17.1256	9326.22	0.014321	0.014391	1190.01	71028.2
306	2.000000	1.059151	7.36806e+06	-53939.1	955.819	-29745.2	0.000000	0.000000	7.060557	20.5543	NaN	0.000000	0.001600	0.001649	28.0799	17.9516	0.001834	9790.36	7.815118	-175.739	20.5011	1.058848	0.017712	0.017409	20.5543	9790.36	0.016138	0.016833	1221.08	68943.6
306	2.000000	1.061118	7.36806e+06	-53939.1	955.818	-29745.2	0.000000	0.000000	7.062654	23.7142	NaN	0.000000	0.001627	0.001645	28.0802	19.3367	0.001750	11049.7	5.516193	-176.147	22.6621	1.060857	0.019679	0.019418	23.7142	11049.7	0.018069	0.019599	1209.97	72111.9
306	2.000000	1.063131	7.36806e+06	-53939.1	955.818	-29745.2	0.000000	0.000000	7.064875	28.7883	NaN	0.000000	0.001618	0.001691	28.0801	22.1964	0.001882	11794.4	6.455372	-173.866	28.7488	1.062763	0.021692	0.021324	28.7883	11794.4	0.019861	0.022325	1289.5	72119.6
306	2.000000	1.065144	7.36806e+06	-53939.1	955.817	-29745.2	0.000000	0.000000	7.067130	34.6733	NaN	0.000000	0.001614	0.001585	28.0799	23.8448	0.001919	12424.4	4.663089	-174.483	34.373	1.064797	0.023705	0.023358	34.6733	12424.4	0.021612	0.025139	1379.27	71594.2
306	2.000000	1.067137	7.36806e+06	-53939.1	955.817	-29745.2	0.000000	0.000000	7.069255	37.8815	NaN	0.000000	0.001641	0.001595	28.08	25.0766	0.001766	14200.3	4.435116	-175.666	37.3813	1.066737	0.025698	0.025298	37.8815	14200.3	0.023697	0.028688	1320.48	76598.8
306	2.000000	1.069080	7.36806e+06	-53939.1	955.818	-29745.2	0.000000	0.000000	7.071477	44.672	NaN	0.000000	0.001639	0.001577	28.0802	28.2219	0.001823	15478.1	5.744507	-179.402	42.9371	1.068793	0.027641	0.027354	44.672	15478.1	0.025476	0.031887	1400.93	79192
306	2.000000	1.071125	7.36806e+06	-53939.1	955.817	-29745.2	0.000000	0.000000	7.073773	50.7815	NaN	0.000000	0.001653	0.001590	28.081	28.8958	0.001727	16728.5	4.329243	-178.46	51.3154	1.070833	0.029686	0.029394	50.7815	16728.5	0.027409	0.035544	1428.69	81067.3
306	2.000000	1.073079	7.36806e+06	-53939.1	955.819	-29745.2	0.000000	0.000000	7.075948	56.1354	NaN	0.000000	0.001629	0.001568	28.0804	31.8091	0.001855	17148.2	4.464894	-179.365	53.3209	1.072727	0.031640	0.031288	56.1354	17148.2	0.029185	0.039071	1436.74	79261.7
306	2.000000	1.075072	7.36806e+06	-53939.1	955.817	-29745.2	0.000000	0.000000	7.078438	68.2074	NaN	0.000000	0.001691	0.001579	28.0814	33.5664	0.001758	19088.9	4.144425	-179.279	65.3308	1.074673	0.033633	0.033234	68.2074	19088.9	0.030954	0.042743	1595.75	84356.9
306	2.000000	1.077118	7.36806e+06	-53939.1	955.818	-29745.2	0.000000	0.000000	7.080591	70.8248	NaN	0.000000	0.001667	0.001567	28.0815	35.4922	0.001733	20476.5	6.788987	178.601	71.3774	1.076734	0.035679	0.035295	70.8248	20476.5	0.033085	0.047380	1494.82	85947.1
306	2.000000	1.079057	7.36806e+06	-53939.1	955.818	-29745.2	0.000000	0.000000	7.083038	83.171	NaN	0.000000	0.001688	0.001580	28.0815	37.751	0.001823	20706.8	6.501406	178.413	81.1977	1.078723	0.037618	0.037284	83.171	20706.8	0.034605	0.050831	1636.23	83911.5
306	2.000000	1.081066	7.36806e+06	-53939.1	955.819	-29745.2	0.000000	0.000000	7.085438	92.6748	NaN	0.000000	0.001696	0.001578	28.0816	38.3227	0.001795	21355.2	2.765101	-178.983	88.8006	1.080683	0.039627	0.039244	92.6748	21355.2	0.036372	0.054989	1685.32	83202.8
306	2.000000	1.083071	7.36806e+06	-53939.1	955.818	-29745.2	0.000000	0.000000	7.087653	97.7613	NaN	0.000000	0.001687	0.001624	28.0815	41.5059	0.001642	25282.3	5.027646	176.798	96.1132	1.082756	0.041632	0.041317	97.7613	25282.3	0.038732	0.060793	1608.09	93683
306	2.000000	1.085101	7.36806e+06	-53939.1	955.819	-29745.2	0.000000	0.000000	7.089999	105.461	NaN	0.000000	0.001710	0.001617	28.0813	44.7424	0.001825	24516	4.820172	177.666	104.808	1.084779	0.043662	0.043340	105.461	24516	0.040436	0.065159	1618.53	87747.7
306	2.000000	1.087067	7.36806e+06	-53939.1	955.819	-29745.2	0.000000	0.000000	7.092227	111.823	NaN	0.000000	0.001700	0.001597	28.0816	46.1158	0.001623	28409	2.420997	178.406	111.674	1.086715	0.045628	0.045276	111.823	28409	0.042676	0.071128	1572.14	97321.6
306	2.000000	1.089047	7.36806e+06	-53939.1	955.818	-29745.2	0.000000	0.000000	7.094665	122.951	NaN	0.000000	0.001613	0.001581	28.0814	48.6104	0.001906	25503.2	2.480216	-178.59	121.47	1.088725	0.047608	0.047286	122.951	25503.2	0.043993	0.074753	1644.76	85222.5
306	2.000000	1.091066	7.36806e+06	-53939.1	955.817	-29745.2	0.000000	0.000000	7.097050	131.85	NaN	0.000000	0.001628	0.001547	28.0814	50.2756	0.001837	27363.1	6.471826	176.391	131.772	1.090696	0.049628	0.049257	131.85	27363.1	0.046014	0.080491	1638.07	88118
306	2.000000	1.093086	7.36806e+06	-53939.1	955.818	-29745.2	0.000000	0.000000	7.099406	140.038	NaN	0.000000	0.001616	0.001563	28.0815	52.3447	0.001911	27397.5	5.140797	177.335	140.373	1.092704	0.051647	0.051265	140.038	27397.5	0.047813	0.085774	1632.64	85468.8
306	2.000000	1.095031	7.36806e+06	-53939.1	955.818	-29745.2	0.000000	0.000000	7.101726	149.149	NaN	0.000000	0.001620	0.001560	28.0814	53.9293	0.001814	29723	4.476082	177.097	148.448	1.094712	0.053592	0.053273	149.149	29723	0.049829	0.091884	1623.22	89586.9
306	2.000000	1.097078	7.36806e+06	-53939.1	955.818	-29745.2	0.000000	0.000000	7.104106	157.241	NaN	0.000000	0.001635	0.001551	28.0816	55.1793	0.001733	31842.8	4.016769	177.127	157.749	1.096644	0.055639	0.055205	157.241	31842.8	0.051936	0.098490	1596.52	92702
306	2.000000	1.099057	7.36806e+06	-53939.1	955.818	-29745.2	0.000000	0.000000	7.106524	167.901	NaN	0.000000	0.001619	0.001588	28.0815	60.0509	0.001925	31190.9	8.095859	173.149	167.653	1.098765	0.057619	0.057326	167.901	31190.9	0.053581	0.103803	1617.49	88449.5
306	2.000000	1.101048	7.36806e+06	-53939.1	955.818	-29745.2	0.000000	0.000000	7.109125	182.772	NaN	0.000000	0.001625	0.001600	28.0816	59.1286	0.001789	33060.4	5.001132	176.364	182.884	1.100663	0.059609	0.059224	182.772	33060.4	0.055462	0.110041	1660.94	91055
306	2.000000	1.102969	7.36806e+06	-53939.1	955.818	-29745.2	0.000000	0.000000	7.111396	191.246	NaN	0.000000	0.001614	0.001589	28.0816	62.4025	0.001871	33358.7	4.879496	176.071	188.867	1.102654	0.061530	0.061215	191.246	33358.7	0.057231	0.116065	1647.75	89460.5
306	2.000000	1.105042	7.36806e+06	-53939.1	955.819	-29745.2	0.000000	0.000000	7.113981	203.701	NaN	0.000000	0.001572	0.001577	28.0818	64.6098	0.001858	34774.5	9.465163	170.695	203.119	1.104710	0.063603	0.063271	203.701	34774.5	0.059210	0.122990	1656.24	90594
306	2.000000	1.107064	7.36806e+06	-53939.1	955.818	-29745.2	0.000000	0.000000	7.116398	213.302	NaN	0.000000	0.001595	0.001569	28.0815	64.7524	0.001730	37438	1.930986	177.926	215.96	1.106697	0.065625	0.065258	213.302	37438	0.061352	0.130702	1631.97	94611.5
306	2.000000	1.109043	7.36806e+06	-53939.1	955.819	-29745.2	0.000000	0.000000	7.118694	221.022	NaN	0.000000	0.001599	0.001565	28.08	67.932	0.001911	35552.2	5.126734	175.275	220.229	1.108736	0.067604	0.067297	221.022	35552.2	0.062941	0.136567	1618.42	87895.7
306	2.000000	1.110952	7.36806e+06	-53939.1	955.817	-29745.2	0.000000	0.000000	7.121193	235.351	NaN	0.000000	0.001585	0.001572	28.0808	68.5009	0.001844	37145.7	4.724621	175.306	231.225	1.110628	0.069513	0.069189	235.351	37145.7	0.064762	0.143434	1640.83	89609.7
306	2.000000	1.112992	7.36806e+06	-53939.1	955.818	-29745.2	0.000000	0.000000	7.123702	246.748	NaN	0.000000	0.001591	0.001572	28.0801	70.1394	0.001754	39984.5	5.320510	174.203	243.116	1.112614	0.071553	0.071175	246.748	39984.5	0.066925	0.151804	1625.44	93761.1
306	2.000000	1.115021	7.36806e+06	-53939.1	955.818	-29745.2	0.000000	0.000000	7.126484	265.06	NaN	0.000000	0.001669	0.001577	28.0802	71.4341	0.001679	42554.8	0.415154	178.807	262.67	1.114693	0.073582	0.073254	265.06	42554.8	0.068911	0.159685	1659.89	97294.9
306	2.000000	1.116960	7.36806e+06	-53939.1	955.817	-29745.2	0.000000	0.000000	7.128780	273.748	NaN	0.000000	0.001639	0.001622	28.0804	74.6365	0.001842	40523.7	4.630681	173.885	269.254	1.116715	0.075521	0.075276	273.748	40523.7	0.070455	0.165942	1649.66	90887.4
306	2.000000	1.119095	7.36806e+06	-53939.1	955.816	-29745.2	0.000000	0.000000	7.130865	272.52	NaN	0.000000	0.001605	0.001593	28.0801	76.9692	0.001823	42210	3.104030	175.07	272.837	1.118906	0.077656	0.077467	272.52	42210	0.072814	0.175723	1550.85	91997.3
306	2.000000	1.121109	7.36806e+06	-53939.1	955.817	-29745.2	0.000000	0.000000	7.133865	296.488	NaN	0.000000	0.001645	0.001580	28.0801	77.7213	0.001700	45719.4	5.644699	172.472	303.677	1.120801	0.079670	0.079362	296.488	45719.4	0.074807	0.184189	1609.69	97329
306	2.000000	1.123019	7.36806e+06	-53939.1	955.818	-29745.2	0.000000	0.000000	7.136366	310.862	NaN	0.000000	0.001601	0.001578	28.08	81.1693	0.001798	45132.2	5.897013	172.251	309.914	1.122804	0.081580	0.081365	310.862	45132.2	0.076414	0.191154	1626.24	94312.4
306	2.000000	1.125030	7.36806e+06	-53939.1	955.818	-29745.2	0.000000	0.000000	7.139002	326.065	NaN	0.000000	0.001618	0.001597	28.0803	83.9811	0.001955	42951	5.424832	173.565	325.466	1.124756	0.083591	0.083317	326.065	42951	0.077897	0.197689	1649.38	88258.2
306	2.000000	1.126979	7.36806e+06	-53939.1	955.819	-29745.2	0.000000	0.000000	7.141385	336.606	NaN	0.000000	0.001649	0.001598	28.0802	84.9317	0.001809	46950.2	4.300482	173.227	334.052	1.126813	0.085540	0.085374	336.606	46950.2	0.080163	0.207871	1619.3	94083.6
306	2.000000	1.128982	7.36806e+06	-53939.1	955.818	-29745.2	0.000000	0.000000	7.144192	356.171	NaN	0.000000	0.001646	0.001567	28.0801	86.2544	0.001834	47041.2	2.544657	175.849	354.313	1.128703	0.087543	0.087264	356.171	47041.2	0.081864	0.215671	1651.46	92545.7
306	2.000000	1.130945	7.36806e+06	-53939.1	955.818	-29745.2	0.000000	0.000000	7.146785	371.48	NaN	0.000000	0.001612	0.001600	28.0803	88.6138	0.001834	48317	8.114956	169.32	368.399	1.130615	0.089506	0.089176	371.48	48317	0.083739	0.224425	1655.25	93183.3
306	2.000000	1.132919	7.36806e+06	-53939.1	955.818	-29745.2	0.000000	0.000000	7.149367	386.262	NaN	0.000000	0.001642	0.001601	28.08	89.3989	0.001718	52025.6	2.727794	174.44	380.844	1.132600	0.091480	0.091161	386.262	52025.6	0.085912	0.234771	1645.27	98099.9
306	2.000000	1.135088	7.36806e+06	-53939.1	955.818	-29745.2	0.000000	0.000000	7.152148	401.12	NaN	0.000000	0.001618	0.001574	28.0804	92.9989	0.001797	51751.4	6.643732	171.326	402.616	1.134598	0.093649	0.093159	401.12	51751.4	0.087836	0.244117	1643.15	95696.5
306	2.000000	1.137010	7.36806e+06	-53939.1	955.819	-29745.2	0.000000	0.000000	7.154789	418.612	NaN	0.000000	0.001649	0.001599	28.0801	95.015	0.001877	50617.5	7.670956	169.755	419.686	1.136639	0.095571	0.095200	418.612	50617.5	0.089368	0.251680	1663.27	92182.6
306	2.000000	1.138999	7.36806e+06	-53939.1	955.818	-29745.2	0.000000	0.000000	7.157372	433.054	NaN	0.000000	0.001611	0.001583	28.0801	96.1432	0.001749	54958.7	1.717370	175.791	431.252	1.138603	0.097560	0.097164	433.054	54958.7	0.091651	0.263146	1645.68	97883.9
306	2.000000	1.141164	7.36806e+06	-53939.1	955.819	-29745.2	0.000000	0.000000	7.159814	439.771	NaN	0.000000	0.001571	0.001654	28.0803	97.9559	0.001861	52628.2	4.953679	172.387	448.49	1.140802	0.099726	0.099363	439.771	52628.2	0.093458	0.272397	1614.45	92127.9
306	2.000000	1.142853	7.36806e+06	-53939.1	955.819	-29745.2	0.000000	0.000000	7.162711	469.165	NaN	0.000000	0.001621	0.001680	28.0813	100.712	0.001724	58425.2	9.044869	167.461	461.977	1.142607	0.101414	0.101168	469.165	58425.2	0.095391	0.282454	1661.03	100438
306	2.000000	1.144959	7.36806e+06	-53939.1	955.818	-29745.2	0.000000	0.000000	7.165429	484.04	NaN	0.000000	0.001618	0.001670	28.0816	103.123	0.001835	56207.7	6.481805	170.605	481.353	1.144487	0.103520	0.103048	484.04	56207.7	0.097061	0.291278	1661.78	95151.4
306	2.000000	1.146992	7.36806e+06	-53939.1	955.819	-29745.2	0.000000	0.000000	7.168031	497.871	NaN	0.000000	0.001639	0.001667	28.0815	103.958	0.001854	56060.4	2.370350	174.462	497.809	1.146673	0.105553	0.105234	497.871	56060.4	0.098893	0.301105	1653.48	93340.6
306	2.000000	1.148904	7.36806e+06	-53939.1	955.819	-29745.2	0.000000	0.000000	7.170703	516.339	NaN	0.000000	0.001666	0.001677	28.0813	106.992	0.001829	58484.8	8.414987	167.595	511.531	1.148682	0.107465	0.107243	516.339	58484.8	0.100844	0.311739	1656.32	95701.8
306	2.000000	1.149939	7.36806e+06	-53939.1	955.819	-29745.2	0.000000	0.000000	7.172290	529.791	NaN	0.000000	0.001641	0.001674	28.0816	107.725	0.001837	58648.7	8.672393	167.578	525.777	1.149666	0.108500	0.108227	529.791	58648.7	0.101725	0.316598	1673.39	95230.8