File: remote_trans/data/nanoindenter/0828-1/data/Data_2025-08-06,11h17m57s/2025-07-22_16-23-58_1_1085.txt
2025-07-22, 16:23:58, 1
Index	Phase	Displacement	Time	Pos X	Pos Y	Pos Z	Rot A	Rot B	Piezo Z	Force A	Force B	Gripper	Voltage A	Voltage B	Temperature	Amplitude force	Amplitude pos	Stiffness	Phase shift	Phase excitation	Force A raw	Displacement raw	HMax	HMax raw	Real Force	Real Stiffness	Contact Depth	Area	Hardness	Reduced Mod.
[#]	[#]	[um]	[s]	[um]	[um]	[um]	[m°]	[m°]	[um]	[uN]	[uN]	[V]	[V]	[V]	[°C]	[uN]	[um]	[N/m]	[°]	[°]	[uN]	[um]	[um]	[um]	[uN]	[N/m]	[um]	[um^2]	[MPa]	[MPa]
1085	1.000000	0.002263	7.37567e+06	-54389.1	1055.82	-29743.5	0.000000	0.000000	6.002778	-0.023436	NaN	0.000000	0.001556	0.001792	28.0826	0.061163	0.000939	65.1327	143.392	-157.372	0.099689	0.001015	-1.226301	-1.227550	-0.023436	65.1327	-1.226031	-2.450356E+16	9.564344E-19	NaN
1085	1.000000	0.012328	7.37567e+06	-54389.1	1055.82	-29743.5	0.000000	0.000000	6.012844	0.016204	NaN	0.000000	0.001571	0.001815	28.0825	0.050719	0.001118	45.3467	171.805	12.6873	0.065957	0.010895	-1.216237	-1.217670	0.016204	45.3467	-1.216505	-1.826925E+16	-8.869599E-19	NaN
1085	1.000000	0.022239	7.37567e+06	-54389.1	1055.82	-29743.5	0.000000	0.000000	6.022756	0.034494	NaN	0.000000	0.001607	0.001805	28.0825	0.033756	0.001681	20.0825	-134.292	-164.911	0.002964	0.020916	-1.206325	-1.207648	0.034494	20.0825	-1.207614	-1.388965E+16	-2.483465E-18	NaN
1085	1.000000	0.032205	7.37567e+06	-54389.1	1055.82	-29743.5	0.000000	0.000000	6.032723	0.057045	NaN	0.000000	0.001565	0.001817	28.0825	0.022033	0.001846	11.9387	-113.776	14.3364	0.034151	0.030835	-1.196359	-1.197730	0.057045	11.9387	-1.199943	-1.096430E+16	-5.202803E-18	NaN
1085	1.000000	0.042205	7.37567e+06	-54389.1	1055.82	-29743.5	0.000000	0.000000	6.042721	0.016368	NaN	0.000000	0.001597	0.001816	28.0828	0.070136	0.001996	35.1422	-35.0004	-166.777	0.027854	0.040906	-1.186359	-1.187659	0.016368	35.1422	-1.186709	-7.290189E+15	-2.245270E-18	NaN
1085	1.000000	0.052237	7.37567e+06	-54389.1	1055.82	-29743.5	0.000000	0.000000	6.052755	0.057841	NaN	0.000000	0.001621	0.001808	28.0826	0.029642	0.001975	15.0085	120.101	13.843	0.016537	0.050796	-1.176327	-1.177769	0.057841	15.0085	-1.179217	-5.786121E+15	-9.996546E-18	NaN
1085	1.000000	0.062221	7.37567e+06	-54389.1	1055.82	-29743.5	0.000000	0.000000	6.062738	0.036457	NaN	0.000000	0.001587	0.001772	28.0818	0.103937	0.002021	51.4365	-91.0841	-163.331	-0.012062	0.060925	-1.166343	-1.167640	0.036457	51.4365	-1.166875	-3.953760E+15	-9.220813E-18	NaN
1085	1.000000	0.072246	7.37567e+06	-54389.1	1055.82	-29743.5	0.000000	0.000000	6.072762	0.013655	NaN	0.000000	0.001579	0.001774	28.0817	0.089756	0.002031	44.182	97.052	14.9277	-0.003852	0.070904	-1.156318	-1.157660	0.013655	44.182	-1.156550	-2.874941E+15	-4.749523E-18	NaN
1085	1.000000	0.082263	7.37567e+06	-54389.1	1055.82	-29743.5	0.000000	0.000000	6.082780	0.042387	NaN	0.000000	0.001564	0.001807	28.0817	0.052881	0.002084	25.372	10.3182	-165.422	0.049240	0.080933	-1.146302	-1.147632	0.042387	25.372	-1.147555	-2.177905E+15	-1.946211E-17	NaN
1085	1.000000	0.092233	7.37567e+06	-54389.1	1055.82	-29743.5	0.000000	0.000000	6.092750	0.035199	NaN	0.000000	0.001589	0.001793	28.0818	0.052470	0.001933	27.1493	-115.309	17.9567	-0.027928	0.090920	-1.136332	-1.137644	0.035199	27.1493	-1.137304	-1.587032E+15	-2.217892E-17	NaN
1085	1.000000	0.102254	7.37567e+06	-54389.1	1055.82	-29743.5	0.000000	0.000000	6.102773	0.089281	NaN	0.000000	0.001519	0.001793	28.0816	0.096024	0.002056	46.6994	1.815817	-163.711	0.055282	0.100936	-1.126311	-1.127628	0.089281	46.6994	-1.127745	-1.181330E+15	-7.557682E-17	NaN
1085	1.000000	0.112270	7.37567e+06	-54389.1	1055.82	-29743.5	0.000000	0.000000	6.112788	0.044579	NaN	0.000000	0.001551	0.001804	28.0817	0.091381	0.001912	47.7901	17.6822	18.0402	0.019857	0.110954	-1.116294	-1.117610	0.044579	47.7901	-1.116994	-8.474961E+14	-5.260050E-17	NaN
1085	1.000000	0.122264	7.37567e+06	-54389.1	1055.82	-29743.5	0.000000	0.000000	6.122778	-0.045594	NaN	0.000000	0.001568	0.001803	28.0817	0.090113	0.002003	44.9886	-131.69	-165.755	0.044473	0.120968	-1.106300	-1.107597	-0.045594	44.9886	-1.105540	-5.948862E+14	7.664367E-17	NaN
1085	1.000000	0.132255	7.37567e+06	-54389.1	1055.82	-29743.5	0.000000	0.000000	6.132770	-0.021065	NaN	0.000000	0.001580	0.001820	28.0815	0.081077	0.001951	41.5636	-10.6864	13.7061	-0.088006	0.130874	-1.096309	-1.097691	-0.021065	41.5636	-1.095929	-4.419984E+14	4.765753E-17	NaN
1085	1.000000	0.142235	7.37567e+06	-54389.1	1055.82	-29743.5	0.000000	0.000000	6.142751	0.007887	NaN	0.000000	0.001577	0.001789	28.0815	0.078622	0.002093	37.5561	-144.336	-162.257	-0.009169	0.140937	-1.086329	-1.087627	0.007887	37.5561	-1.086487	-3.300951E+14	-2.389185E-17	NaN
1085	1.000000	0.152279	7.37567e+06	-54389.1	1055.82	-29743.5	0.000000	0.000000	6.152796	0.033818	NaN	0.000000	0.001589	0.001778	28.0814	0.123143	0.002068	59.5356	-59.6481	18.0109	-0.001405	0.150911	-1.076285	-1.077654	0.033818	59.5356	-1.076711	-2.439762E+14	-1.386102E-16	NaN
1085	1.000000	0.162267	7.37567e+06	-54389.1	1055.82	-29743.5	0.000000	0.000000	6.162782	-0.001670	NaN	0.000000	0.001594	0.001836	28.0818	0.055040	0.001854	29.6853	-155.472	-160.447	0.019280	0.161007	-1.066297	-1.067558	-0.001670	29.6853	-1.066255	-1.765537E+14	9.458856E-18	NaN
1085	1.000000	0.172267	7.37567e+06	-54389.1	1055.82	-29743.5	0.000000	0.000000	6.172780	-0.053242	NaN	0.000000	0.001580	0.001802	28.0813	0.047974	0.001947	24.6397	-42.7259	18.1378	-0.020000	0.170949	-1.056297	-1.057616	-0.053242	24.6397	-1.054677	-1.233895E+14	4.314934E-16	NaN
1085	1.000000	0.182290	7.37567e+06	-54389.1	1055.82	-29743.5	0.000000	0.000000	6.182806	-0.001315	NaN	0.000000	0.001587	0.001813	28.0817	0.067142	0.001987	33.7908	-58.0486	-160.466	-0.052581	0.181011	-1.046274	-1.047554	-0.001315	33.7908	-1.046245	-9.504601E+13	1.384043E-17	NaN
1085	1.000000	0.192284	7.37567e+06	-54389.1	1055.82	-29743.5	0.000000	0.000000	6.192799	-0.019029	NaN	0.000000	0.001598	0.001834	28.0814	0.071451	0.001959	36.4648	38.0758	16.4436	-0.020126	0.190920	-1.036281	-1.037644	-0.019029	36.4648	-1.035889	-6.897429E+13	2.758907E-16	NaN
1085	1.000000	0.202274	7.37567e+06	-54389.1	1055.82	-29743.5	0.000000	0.000000	6.202791	0.029380	NaN	0.000000	0.001562	0.001815	28.083	0.060488	0.002087	28.9816	119.853	-165.958	0.065748	0.200991	-1.026290	-1.027574	0.029380	28.9816	-1.027051	-5.245757E+13	-5.600749E-16	NaN
1085	1.000000	0.212312	7.37567e+06	-54389.1	1055.82	-29743.5	0.000000	0.000000	6.212830	0.044171	NaN	0.000000	0.001591	0.001823	28.0827	0.002965	0.001918	1.546233	-118.334	13.79	-0.043803	0.210946	-1.016252	-1.017618	0.044171	1.546233	-1.037677	-7.290055E+13	-6.059043E-16	NaN
1085	1.000000	0.222312	7.37567e+06	-54389.1	1055.82	-29743.5	0.000000	0.000000	6.222830	0.065571	NaN	0.000000	0.001538	0.001812	28.0826	0.094951	0.001973	48.12	113.933	-164.401	0.072338	0.220958	-1.006253	-1.007607	0.065571	48.12	-1.007275	-2.842510E+13	-2.306796E-15	NaN
1085	1.000000	0.232291	7.37567e+06	-54389.1	1055.82	-29743.5	0.000000	0.000000	6.232807	0.017185	NaN	0.000000	0.001634	0.001784	28.0826	0.043145	0.001914	22.5362	2.685954	16.0958	0.033993	0.230975	-0.996273	-0.997590	0.017185	22.5362	-0.996845	-2.057266E+13	-8.353125E-16	NaN
1085	1.000000	0.242310	7.37567e+06	-54389.1	1055.82	-29743.5	0.000000	0.000000	6.242825	-0.008810	NaN	0.000000	0.001620	0.001802	28.0826	0.057325	0.002000	28.6614	77.0554	-165.511	0.031939	0.240998	-0.986255	-0.987566	-0.008810	28.6614	-0.986024	-1.470837E+13	5.990069E-16	NaN
1085	1.000000	0.252304	7.37567e+06	-54389.1	1055.82	-29743.5	0.000000	0.000000	6.252822	0.055648	NaN	0.000000	0.001614	0.001799	28.0826	0.033231	0.002057	16.1538	-166.052	13.7354	0.083538	0.250965	-0.976260	-0.977600	0.055648	16.1538	-0.978844	-1.177149E+13	-4.727360E-15	NaN
1085	1.000000	0.262330	7.37567e+06	-54389.1	1055.82	-29743.5	0.000000	0.000000	6.262844	-0.025116	NaN	0.000000	0.001573	0.001809	28.0827	0.009421	0.002106	4.473098	119.015	-165.548	0.021226	0.260981	-0.966234	-0.967584	-0.025116	4.473098	-0.962023	-6.984676E+12	3.595814E-15	NaN
1085	1.000000	0.272315	7.37567e+06	-54389.1	1055.82	-29743.5	0.000000	0.000000	6.272833	0.062427	NaN	0.000000	0.001573	0.001799	28.0823	0.040402	0.002022	19.9778	-115.297	16.9665	0.000380	0.271025	-0.956250	-0.957539	0.062427	19.9778	-0.958593	-6.279168E+12	-9.941884E-15	NaN
1085	1.000000	0.282357	7.37567e+06	-54389.1	1055.82	-29743.5	0.000000	0.000000	6.282874	0.032153	NaN	0.000000	0.001546	0.001813	28.0828	0.064740	0.001981	32.6809	12.4567	-163.993	0.023789	0.280985	-0.946207	-0.947580	0.032153	32.6809	-0.946945	-4.373498E+12	-7.351761E-15	NaN
1085	1.000000	0.292336	7.37567e+06	-54389.1	1055.82	-29743.5	0.000000	0.000000	6.292855	0.081772	NaN	0.000000	0.001549	0.001783	28.0825	0.056385	0.001930	29.221	57.8757	18.954	0.077320	0.290928	-0.936229	-0.937636	0.081772	29.221	-0.938328	-3.346364E+12	-2.443619E-14	NaN
1085	1.000000	0.302344	7.37567e+06	-54389.1	1055.82	-29743.5	0.000000	0.000000	6.302859	0.012015	NaN	0.000000	0.001535	0.001790	28.0829	0.017802	0.001934	9.206894	-11.5001	-163.584	0.001645	0.300992	-0.926221	-0.927573	0.012015	9.206894	-0.927200	-2.368105E+12	-5.073836E-15	NaN
1085	1.000000	0.312376	7.37567e+06	-54389.1	1055.82	-29743.5	0.000000	0.000000	6.312895	0.084921	NaN	0.000000	0.001564	0.001786	28.0827	0.035674	0.001945	18.339	58.0323	15.5773	0.097003	0.311029	-0.916189	-0.917535	0.084921	18.339	-0.919662	-1.873443E+12	-4.532896E-14	NaN
1085	1.000000	0.322349	7.37567e+06	-54389.1	1055.82	-29743.5	0.000000	0.000000	6.322868	0.074753	NaN	0.000000	0.001511	0.001804	28.0826	0.046756	0.002082	22.4527	136.005	-166.682	0.062115	0.321031	-0.906215	-0.907534	0.074753	22.4527	-0.908712	-1.332817E+12	-5.608639E-14	NaN
1085	1.000000	0.332331	7.37567e+06	-54389.1	1055.82	-29743.5	0.000000	0.000000	6.332847	0.018696	NaN	0.000000	0.001483	0.001850	28.0824	0.062249	0.001909	32.6125	162.871	14.4604	0.047721	0.330972	-0.896234	-0.897592	0.018696	32.6125	-0.896664	-9.161890E+11	-2.040604E-14	NaN
1085	1.000000	0.342337	7.37567e+06	-54389.1	1055.82	-29743.5	0.000000	0.000000	6.342853	0.018979	NaN	0.000000	0.001516	0.001853	28.0816	0.099835	0.001998	49.9579	-25.6554	-166.856	0.105823	0.340996	-0.886227	-0.887568	0.018979	49.9579	-0.886512	-6.679801E+11	-2.841213E-14	NaN
1085	1.000000	0.352382	7.37567e+06	-54389.1	1055.82	-29743.5	0.000000	0.000000	6.352900	0.070994	NaN	0.000000	0.001534	0.001808	28.0814	0.058900	0.001873	31.4396	71.1366	20.7167	0.050932	0.350981	-0.876183	-0.877583	0.070994	31.4396	-0.877876	-5.104870E+11	-1.390716E-13	NaN
1085	1.000000	0.362361	7.37567e+06	-54389.1	1055.82	-29743.5	0.000000	0.000000	6.362878	0.035831	NaN	0.000000	0.001557	0.001812	28.0813	0.049884	0.002054	24.2919	29.4024	-164.549	0.062640	0.361104	-0.866203	-0.867461	0.035831	24.2919	-0.867310	-3.673188E+11	-9.754655E-14	NaN
1085	1.000000	0.372384	7.37567e+06	-54389.1	1055.82	-29743.5	0.000000	0.000000	6.372899	0.000372	NaN	0.000000	0.001528	0.001840	28.0814	0.046746	0.002109	22.1605	143.172	16.5889	0.009051	0.371007	-0.856181	-0.857557	0.000372	22.1605	-0.856193	-2.597722E+11	-1.430386E-15	NaN
1085	1.000000	0.382384	7.37567e+06	-54389.1	1055.82	-29743.5	0.000000	0.000000	6.382901	0.040541	NaN	0.000000	0.001544	0.001837	28.0816	0.037383	0.002043	18.2973	114.185	-164.773	0.015490	0.381098	-0.846181	-0.847467	0.040541	18.2973	-0.847843	-2.002275E+11	-2.024770E-13	NaN
1085	1.000000	0.392398	7.37567e+06	-54389.1	1055.82	-29743.5	0.000000	0.000000	6.392916	0.060105	NaN	0.000000	0.001575	0.001844	28.0815	0.112239	0.002021	55.545	-77.4478	16.5098	0.030755	0.391013	-0.836167	-0.837551	0.060105	55.545	-0.836978	-1.426766E+11	-4.212691E-13	NaN
1085	1.000000	0.402383	7.37567e+06	-54389.1	1055.82	-29743.5	0.000000	0.000000	6.402898	-0.007247	NaN	0.000000	0.001554	0.001813	28.0815	0.042163	0.001979	21.3042	135.993	-163.411	-0.011144	0.401085	-0.826181	-0.827479	-0.007247	21.3042	-0.825926	-1.010559E+11	7.171025E-14	NaN
1085	1.000000	0.412389	7.37567e+06	-54389.1	1055.82	-29743.5	0.000000	0.000000	6.412905	0.016506	NaN	0.000000	0.001564	0.001831	28.0812	0.072245	0.001975	36.5867	-172.279	11.4884	0.022549	0.411059	-0.816176	-0.817505	0.016506	36.5867	-0.816514	-7.532486E+10	-2.191346E-13	NaN
1085	1.000000	0.422388	7.37567e+06	-54389.1	1055.82	-29743.5	0.000000	0.000000	6.422903	-0.011087	NaN	0.000000	0.001565	0.001824	28.0814	0.016985	0.001894	8.970059	-72.4521	-164.999	0.021151	0.421087	-0.806176	-0.807478	-0.011087	8.970059	-0.805249	-5.297988E+10	2.092650E-13	NaN
1085	1.000000	0.432401	7.37567e+06	-54389.1	1055.82	-29743.5	0.000000	0.000000	6.432920	0.084835	NaN	0.000000	0.001499	0.001830	28.0815	0.088722	0.001927	46.0387	64.2938	15.2834	0.033386	0.431025	-0.796164	-0.797540	0.084835	46.0387	-0.797546	-4.164310E+10	-2.037190E-12	NaN
1085	1.000000	0.442412	7.37567e+06	-54389.1	1055.82	-29743.5	0.000000	0.000000	6.442929	0.040506	NaN	0.000000	0.001533	0.001825	28.0814	0.056061	0.002115	26.5099	-19.4989	-162.025	0.081032	0.441059	-0.786152	-0.787505	0.040506	26.5099	-0.787298	-3.022641E+10	-1.340077E-12	NaN
1085	1.000000	0.452408	7.37567e+06	-54389.1	1055.82	-29743.5	0.000000	0.000000	6.452922	-0.038383	NaN	0.000000	0.001557	0.001841	28.0821	0.094195	0.002002	47.0412	4.202671	14.8245	0.054521	0.450997	-0.776157	-0.777567	-0.038383	47.0412	-0.775545	-2.092578E+10	1.834238E-12	NaN
1085	1.000000	0.462387	7.37567e+06	-54389.1	1055.82	-29743.5	0.000000	0.000000	6.462906	0.080588	NaN	0.000000	0.001525	0.001845	28.0813	0.034854	0.002085	16.715	27.5064	-165.788	0.035799	0.461136	-0.766178	-0.767429	0.080588	16.715	-0.769794	-1.747825E+10	-4.610751E-12	NaN
1085	1.000000	0.472400	7.37567e+06	-54389.1	1055.82	-29743.5	0.000000	0.000000	6.472913	-0.038391	NaN	0.000000	0.001569	0.001749	28.0825	0.012720	0.002137	5.952834	-172.428	14.1894	0.026006	0.471056	-0.756165	-0.757508	-0.038391	5.952834	-0.751328	-9.801585E+9	3.916796E-12	NaN
1085	1.000000	0.482404	7.37567e+06	-54389.1	1055.82	-29743.5	0.000000	0.000000	6.482921	0.033899	NaN	0.000000	0.001564	0.001803	28.0827	0.089518	0.001921	46.6008	89.1788	-167.635	0.068998	0.481111	-0.746160	-0.747453	0.033899	46.6008	-0.746706	-8.479582E+9	-3.997673E-12	NaN
1085	1.000000	0.492461	7.37567e+06	-54389.1	1055.82	-29743.5	0.000000	0.000000	6.492978	0.041509	NaN	0.000000	0.001575	0.001771	28.0829	0.049179	0.002033	24.1919	44.0424	14.9404	0.041134	0.491075	-0.736103	-0.737490	0.041509	24.1919	-0.737390	-6.331511E+9	-6.555986E-12	NaN
1085	1.000000	0.502440	7.37567e+06	-54389.1	1055.82	-29743.5	0.000000	0.000000	6.502956	0.018206	NaN	0.000000	0.001543	0.001821	28.0825	0.059133	0.001962	30.1419	-47.7169	-165.46	0.058552	0.501110	-0.726125	-0.727455	0.018206	30.1419	-0.726578	-4.509818E+9	-4.036862E-12	NaN
1085	1.000000	0.512404	7.37567e+06	-54389.1	1055.82	-29743.5	0.000000	0.000000	6.512921	0.021582	NaN	0.000000	0.001567	0.001847	28.0825	0.083299	0.002050	40.6427	-87.1768	14.4711	-0.000385	0.511026	-0.716160	-0.717539	0.021582	40.6427	-0.716558	-3.292535E+9	-6.554691E-12	NaN
1085	1.000000	0.522436	7.37567e+06	-54389.1	1055.82	-29743.5	0.000000	0.000000	6.522953	0.038530	NaN	0.000000	0.001579	0.001835	28.0827	0.061525	0.001911	32.202	144.772	-165.711	0.032606	0.521110	-0.706129	-0.707455	0.038530	32.202	-0.707026	-2.440374E+9	-1.578840E-11	NaN
1085	1.000000	0.532396	7.37567e+06	-54389.1	1055.82	-29743.5	0.000000	0.000000	6.532913	0.023018	NaN	0.000000	0.001553	0.001824	28.0825	0.116867	0.001939	60.2825	141.097	19.3351	0.062935	0.531079	-0.696168	-0.697485	0.023018	60.2825	-0.696455	-1.750280E+9	-1.315115E-11	NaN
1085	1.000000	0.542447	7.37567e+06	-54389.1	1055.82	-29743.5	0.000000	0.000000	6.542961	-0.035785	NaN	0.000000	0.001563	0.001805	28.0824	0.067442	0.001908	35.3447	-123.354	-161.667	-0.048048	0.541125	-0.686117	-0.687439	-0.035785	35.3447	-0.685358	-1.234438E+9	2.898919E-11	NaN
1085	1.000000	0.552411	7.37567e+06	-54389.1	1055.82	-29743.5	0.000000	0.000000	6.552927	0.022286	NaN	0.000000	0.001565	0.001788	28.0826	0.144254	0.001917	75.2687	-140.09	14.5303	-0.000225	0.551124	-0.676153	-0.677441	0.022286	75.2687	-0.676376	-9.303131E+8	-2.395501E-11	NaN
1085	1.000000	0.562448	7.37567e+06	-54389.1	1055.82	-29743.5	0.000000	0.000000	6.562965	0.018676	NaN	0.000000	0.001556	0.001790	28.0828	0.013181	0.001967	6.701815	39.5945	-164.524	0.085416	0.561143	-0.666116	-0.667421	0.018676	6.701815	-0.668206	-7.191749E+8	-2.596801E-11	NaN
1085	1.000000	0.572477	7.37567e+06	-54389.1	1055.82	-29743.5	0.000000	0.000000	6.572995	0.051563	NaN	0.000000	0.001586	0.001777	28.0827	0.042585	0.002097	20.3122	65.1305	12.1763	0.065274	0.571056	-0.656087	-0.657508	0.051563	20.3122	-0.657991	-5.211316E+8	-9.894394E-11	NaN
1085	1.000000	0.582445	7.37567e+06	-54389.1	1055.82	-29743.5	0.000000	0.000000	6.582962	0.040145	NaN	0.000000	0.001655	0.001822	28.0824	0.179753	0.001968	91.3336	121.335	-164.711	-0.158383	0.581154	-0.646120	-0.647410	0.040145	91.3336	-0.646449	-3.620373E+8	-1.108874E-10	NaN
1085	1.000000	0.592423	7.37567e+06	-54389.1	1055.82	-29743.5	0.000000	0.000000	6.592940	0.036889	NaN	0.000000	0.001571	0.001805	28.0827	0.084049	0.002063	40.7432	-154.159	12.8361	-0.029449	0.591125	-0.636142	-0.637439	0.036889	40.7432	-0.636821	-2.670917E+8	-1.381132E-10	NaN
1085	1.000000	0.602483	7.37567e+06	-54389.1	1055.82	-29743.5	0.000000	0.000000	6.603000	0.047941	NaN	0.000000	0.001586	0.001801	28.0828	0.071496	0.002109	33.897	9.966417	-167.109	0.010988	0.601165	-0.626082	-0.627399	0.047941	33.897	-0.627143	-1.966886E+8	-2.437404E-10	NaN
1085	1.000000	0.612478	7.37567e+06	-54389.1	1055.82	-29743.5	0.000000	0.000000	6.612993	0.004776	NaN	0.000000	0.001584	0.001798	28.0811	0.031523	0.001948	16.1782	82.0245	16.173	0.036790	0.611145	-0.616087	-0.617419	0.004776	16.1782	-0.616308	-1.395983E+8	-3.421338E-11	NaN
1085	1.000000	0.622482	7.37567e+06	-54389.1	1055.82	-29743.5	0.000000	0.000000	6.622996	-0.035395	NaN	0.000000	0.001569	0.001801	28.0813	0.044889	0.001891	23.7395	-61.8169	-163.98	0.043938	0.621182	-0.606082	-0.607382	-0.035395	23.7395	-0.604964	-9.745608E+7	3.631870E-10	NaN
1085	1.000000	0.632458	7.37567e+06	-54389.1	1055.82	-29743.5	0.000000	0.000000	6.632973	-0.005640	NaN	0.000000	0.001578	0.001804	28.0815	0.045438	0.002097	21.6688	73.8592	16.9436	0.020854	0.631092	-0.596107	-0.597473	-0.005640	21.6688	-0.595911	-7.313743E+7	7.712000E-11	NaN
1085	1.000000	0.642502	7.37567e+06	-54389.1	1055.82	-29743.5	0.000000	0.000000	6.643017	-0.020590	NaN	0.000000	0.001615	0.001818	28.0816	0.067629	0.001961	34.4917	-114.376	-167.513	-0.023705	0.641118	-0.586062	-0.587446	-0.020590	34.4917	-0.585614	-5.274607E+7	3.903674E-10	NaN
1085	1.000000	0.652504	7.37567e+06	-54389.1	1055.82	-29743.5	0.000000	0.000000	6.653018	-0.017814	NaN	0.000000	0.001586	0.001807	28.0815	0.036749	0.002017	18.2204	-20.0175	15.3921	0.014318	0.651098	-0.576061	-0.577467	-0.017814	18.2204	-0.575328	-3.803844E+7	4.683089E-10	NaN
1085	1.000000	0.662495	7.37567e+06	-54389.1	1055.82	-29743.5	0.000000	0.000000	6.663011	0.011871	NaN	0.000000	0.001575	0.001819	28.0815	0.106790	0.001951	54.7359	89.9918	-165.264	0.022277	0.661204	-0.566069	-0.567361	0.011871	54.7359	-0.566232	-2.848118E+7	-4.168140E-10	NaN
1085	1.000000	0.672529	7.37567e+06	-54389.1	1055.82	-29743.5	0.000000	0.000000	6.673044	0.002744	NaN	0.000000	0.001606	0.001793	28.0815	0.055381	0.001959	28.2661	99.2592	13.9013	-0.023922	0.671097	-0.556036	-0.557467	0.002744	28.2661	-0.556108	-2.063150E+7	-1.330117E-10	NaN
1085	1.000000	0.682491	7.37567e+06	-54389.1	1055.82	-29743.5	0.000000	0.000000	6.683008	0.035086	NaN	0.000000	0.001596	0.001853	28.0814	0.104604	0.002006	52.156	-109.308	-164.585	0.042146	0.681215	-0.546074	-0.547349	0.035086	52.156	-0.546578	-1.522470E+7	-2.304555E-9	NaN
1085	1.000000	0.692497	7.37567e+06	-54389.1	1055.82	-29743.5	0.000000	0.000000	6.693011	-0.055453	NaN	0.000000	0.001566	0.001867	28.0813	0.111717	0.002087	53.5286	-121.335	14.9181	-0.062040	0.691133	-0.536067	-0.537432	-0.055453	53.5286	-0.535290	-1.061735E+7	5.222867E-9	NaN
1085	1.000000	0.702511	7.37567e+06	-54389.1	1055.82	-29743.5	0.000000	0.000000	6.703024	-0.070007	NaN	0.000000	0.001600	0.001870	28.0813	0.047601	0.002023	23.5242	177.383	-163.437	-0.011338	0.701190	-0.526053	-0.527375	-0.070007	23.5242	-0.523821	-7.35749e+06	9.515021E-9	NaN
1085	1.000000	0.712523	7.37567e+06	-54389.1	1055.82	-29743.5	0.000000	0.000000	6.713037	-0.022331	NaN	0.000000	0.001599	0.001781	28.0815	0.068039	0.001948	34.9199	27.3851	15.6909	-0.003923	0.711176	-0.516042	-0.517389	-0.022331	34.9199	-0.515562	-5.64749e+06	3.954191E-9	NaN
1085	1.000000	0.722521	7.37567e+06	-54389.1	1055.82	-29743.5	0.000000	0.000000	6.723039	0.048217	NaN	0.000000	0.001615	0.001828	28.081	0.036698	0.002041	17.9825	-166.827	-163.227	0.095142	0.721260	-0.506043	-0.507304	0.048217	17.9825	-0.508054	-4.43922e+06	-1.086163E-8	NaN
1085	1.000000	0.732504	7.37567e+06	-54389.1	1055.82	-29743.5	0.000000	0.000000	6.733021	0.039209	NaN	0.000000	0.001591	0.001849	28.0813	0.111337	0.002014	55.2837	-119.822	14.8592	-0.018155	0.731140	-0.496060	-0.497424	0.039209	55.2837	-0.496592	-3.07229e+06	-1.276219E-8	NaN
1085	1.000000	0.742528	7.37567e+06	-54389.1	1055.82	-29743.5	0.000000	0.000000	6.743043	-0.003533	NaN	0.000000	0.001635	0.001866	28.0814	0.031575	0.001974	15.9922	31.5376	-164.071	-0.017048	0.741227	-0.486036	-0.487337	-0.003533	15.9922	-0.485871	-2.17605e+06	1.623496E-9	NaN
1085	1.000000	0.752566	7.37567e+06	-54389.1	1055.82	-29743.5	0.000000	0.000000	6.753082	0.021270	NaN	0.000000	0.001668	0.001847	28.0826	0.111968	0.002051	54.5837	46.4388	14.3018	0.046745	0.751142	-0.475999	-0.477423	0.021270	54.5837	-0.476291	-1.59805e+06	-1.330979E-8	NaN
1085	1.000000	0.762532	7.37567e+06	-54389.1	1055.82	-29743.5	0.000000	0.000000	6.763047	-0.004501	NaN	0.000000	0.001584	0.001832	28.0824	0.022428	0.002125	10.5563	-149.62	-166.331	-0.054159	0.761210	-0.466033	-0.467355	-0.004501	10.5563	-0.465713	-1.13568e+06	3.963475E-9	NaN
1085	1.000000	0.772534	7.37567e+06	-54389.1	1055.82	-29743.5	0.000000	0.000000	6.773051	0.048577	NaN	0.000000	0.001581	0.001804	28.0826	0.027637	0.002007	13.7724	-162.075	11.8343	0.014604	0.771146	-0.456030	-0.457419	0.048577	13.7724	-0.458676	-904496	-5.370562E-8	NaN
1085	1.000000	0.782533	7.37567e+06	-54389.1	1055.82	-29743.5	0.000000	0.000000	6.783051	0.074264	NaN	0.000000	0.001591	0.001781	28.0828	0.047808	0.002027	23.5821	-149.728	-165.876	0.064007	0.781193	-0.446032	-0.447372	0.074264	23.5821	-0.448394	-648214	-1.145671E-7	NaN
1085	1.000000	0.792528	7.37567e+06	-54389.1	1055.82	-29743.5	0.000000	0.000000	6.793044	0.033429	NaN	0.000000	0.001569	0.001803	28.0824	0.072044	0.001997	36.0804	112.168	13.6249	0.131081	0.791144	-0.436037	-0.437420	0.033429	36.0804	-0.436732	-443833	-7.531819E-8	NaN
1085	1.000000	0.802541	7.37567e+06	-54389.1	1055.82	-29743.5	0.000000	0.000000	6.803059	0.055205	NaN	0.000000	0.001599	0.001813	28.0825	0.102386	0.001915	53.4722	-176.676	-168.535	0.038539	0.801298	-0.426023	-0.427267	0.055205	53.4722	-0.426797	-321170	-1.718872E-7	NaN
1085	1.000000	0.812557	7.37567e+06	-54389.1	1055.82	-29743.5	0.000000	0.000000	6.813074	0.035651	NaN	0.000000	0.001593	0.001818	28.0825	0.073143	0.001992	36.7102	120.041	14.972	-0.012563	0.811194	-0.416007	-0.417371	0.035651	36.7102	-0.416735	-231258	-1.541625E-7	NaN
1085	1.000000	0.822557	7.37567e+06	-54389.1	1055.82	-29743.5	0.000000	0.000000	6.823074	0.036906	NaN	0.000000	0.001625	0.001811	28.0826	0.022417	0.002038	11.0019	-30.5668	-162.98	-0.042701	0.821227	-0.406008	-0.407337	0.036906	11.0019	-0.408524	-176767	-2.087824E-7	NaN
1085	1.000000	0.832560	7.37567e+06	-54389.1	1055.82	-29743.5	0.000000	0.000000	6.833077	0.050895	NaN	0.000000	0.001600	0.001792	28.0824	0.073696	0.002022	36.4508	127.61	12.8218	0.031794	0.831217	-0.396005	-0.397348	0.050895	36.4508	-0.397052	-121320	-4.195087E-7	NaN
1085	1.000000	0.842555	7.37567e+06	-54389.1	1055.82	-29743.5	0.000000	0.000000	6.843070	-0.028098	NaN	0.000000	0.001589	0.001810	28.0825	0.124466	0.001825	68.2187	-106.729	-166.187	-0.019068	0.841203	-0.386009	-0.387361	-0.028098	68.2187	-0.385700	-83486.5	3.365593E-7	NaN
1085	1.000000	0.852544	7.37567e+06	-54389.1	1055.82	-29743.5	0.000000	0.000000	6.853061	0.023773	NaN	0.000000	0.001592	0.001807	28.0827	0.084260	0.001848	45.5868	-5.350803	16.6262	-0.018761	0.851236	-0.376020	-0.377328	0.023773	45.5868	-0.376411	-61426.7	-3.870125E-7	NaN
1085	1.000000	0.862591	7.37567e+06	-54389.1	1055.82	-29743.5	0.000000	0.000000	6.863104	-0.041111	NaN	0.000000	0.001578	0.001818	28.0825	0.046682	0.001950	23.9433	150.722	-162.552	-0.028352	0.861282	-0.365974	-0.367283	-0.041111	23.9433	-0.364686	-41641.5	9.872484E-7	NaN
1085	1.000000	0.872584	7.37567e+06	-54389.1	1055.82	-29743.5	0.000000	0.000000	6.873099	-0.009812	NaN	0.000000	0.001562	0.001835	28.0825	0.061875	0.002004	30.8697	82.4947	17.0582	-0.065730	0.871239	-0.355981	-0.357326	-0.009812	30.8697	-0.355742	-30920.5	3.173156E-7	NaN
1085	1.000000	0.882589	7.37567e+06	-54389.1	1055.82	-29743.5	0.000000	0.000000	6.883105	0.011177	NaN	0.000000	0.001619	0.001785	28.0814	0.034415	0.001874	18.3624	171.527	-162.607	0.039628	0.881274	-0.345975	-0.347290	0.011177	18.3624	-0.346432	-22655.5	-4.933463E-7	NaN
1085	1.000000	0.892582	7.37567e+06	-54389.1	1055.82	-29743.5	0.000000	0.000000	6.893097	0.006840	NaN	0.000000	0.001604	0.001801	28.0816	0.066381	0.002103	31.5696	115.216	17.2439	-0.045258	0.891187	-0.335983	-0.337378	0.006840	31.5696	-0.336145	-16044.2	-4.263396E-7	NaN
1085	1.000000	0.902553	7.37567e+06	-54389.1	1055.82	-29743.5	0.000000	0.000000	6.903069	0.032148	NaN	0.000000	0.001615	0.001805	28.0813	0.059316	0.001989	29.816	14.769	-162.395	0.018700	0.901252	-0.326012	-0.327312	0.032148	29.816	-0.326820	-11717.9	-2.743489E-6	NaN
1085	1.000000	0.912604	7.37567e+06	-54389.1	1055.82	-29743.5	0.000000	0.000000	6.913119	-0.015608	NaN	0.000000	0.001580	0.001837	28.0816	0.098250	0.002156	45.5691	29.0946	10.5378	-0.009755	0.911259	-0.315960	-0.317306	-0.015608	45.5691	-0.315704	-8041.36	1.940913E-6	NaN
1085	1.000000	0.922619	7.37567e+06	-54389.1	1055.82	-29743.5	0.000000	0.000000	6.923134	-0.011432	NaN	0.000000	0.001620	0.001818	28.0812	0.027616	0.001972	14.0037	-26.4055	-168.477	-0.009479	0.921312	-0.305945	-0.307253	-0.011432	14.0037	-0.305333	-5648.07	2.024010E-6	NaN
1085	1.000000	0.932599	7.37567e+06	-54389.1	1055.82	-29743.5	0.000000	0.000000	6.933112	-0.052562	NaN	0.000000	0.001673	0.001780	28.0816	0.072273	0.002091	34.5566	165.159	18.0867	-0.052228	0.931222	-0.295966	-0.297342	-0.052562	34.5566	-0.294825	-3939.78	1.334141E-5	NaN
1085	1.000000	0.942581	7.37567e+06	-54389.1	1055.82	-29743.5	0.000000	0.000000	6.943099	0.043822	NaN	0.000000	0.001596	0.001809	28.0812	0.030485	0.002076	14.6825	54.7957	-163.444	0.009636	0.941349	-0.285983	-0.287215	0.043822	14.6825	-0.288222	-3137.93	-1.396529E-5	NaN
1085	1.000000	0.952613	7.37567e+06	-54389.1	1055.82	-29743.5	0.000000	0.000000	6.953129	0.017040	NaN	0.000000	0.001609	0.001816	28.0814	0.111691	0.001943	57.489	38.2506	15.2395	0.019102	0.951200	-0.275951	-0.277364	0.017040	57.489	-0.276174	-2066.16	-8.247394E-6	NaN
1085	1.000000	0.962606	7.37567e+06	-54389.1	1055.82	-29743.5	0.000000	0.000000	6.963122	0.008248	NaN	0.000000	0.001596	0.001827	28.0815	0.125698	0.002073	60.6301	120.509	-161.544	0.024939	0.961316	-0.265959	-0.267249	0.008248	60.6301	-0.266061	-1450.67	-5.685452E-6	NaN
1085	1.000000	0.972618	7.37567e+06	-54389.1	1055.82	-29743.5	0.000000	0.000000	6.973132	-0.034769	NaN	0.000000	0.001627	0.001798	28.0813	0.027887	0.001928	14.4636	-39.0049	11.6088	0.017119	0.971309	-0.255947	-0.257256	-0.034769	14.4636	-0.254144	-952.644	3.649766E-5	NaN
1085	1.000000	0.982639	7.37567e+06	-54389.1	1055.82	-29743.5	0.000000	0.000000	6.983155	0.011889	NaN	0.000000	0.001597	0.001812	28.0813	0.066247	0.002023	32.7531	59.0609	-165.234	-0.014973	0.981290	-0.245926	-0.247275	0.011889	32.7531	-0.246198	-717.888	-1.656069E-5	NaN
1085	1.000000	0.992627	7.37567e+06	-54389.1	1055.82	-29743.5	0.000000	0.000000	6.993143	0.013821	NaN	0.000000	0.001591	0.001817	28.0813	0.081186	0.002072	39.1863	154.265	15.5029	0.040992	0.991283	-0.235938	-0.237281	0.013821	39.1863	-0.236202	-501.322	-2.756854E-5	NaN
1085	1.000000	1.002627	7.37567e+06	-54389.1	1055.82	-29743.5	0.000000	0.000000	7.003141	-0.023596	NaN	0.000000	0.001603	0.001809	28.0817	0.091533	0.001931	47.4072	-92.9285	-162.517	-0.036452	1.001333	-0.225938	-0.227231	-0.023596	47.4072	-0.225564	-340.641	6.926892E-5	NaN
1085	1.000000	1.012662	7.37567e+06	-54389.1	1055.82	-29743.5	0.000000	0.000000	7.013178	0.015041	NaN	0.000000	0.001570	0.001820	28.0812	0.066670	0.002036	32.7453	-134.283	14.6918	-0.065096	1.011283	-0.215902	-0.217282	0.015041	32.7453	-0.216247	-241.855	-6.218819E-5	NaN
1085	1.000000	1.022609	7.37567e+06	-54389.1	1055.82	-29743.5	0.000000	0.000000	7.023124	-0.010023	NaN	0.000000	0.001554	0.001870	28.0824	0.037797	0.001887	20.0333	0.154772	-166.505	0.020692	1.021323	-0.205956	-0.207242	-0.010023	20.0333	-0.205581	-162.565	6.165432E-5	NaN
1085	1.000000	1.032642	7.37567e+06	-54389.1	1055.82	-29743.5	0.000000	0.000000	7.033156	-0.011694	NaN	0.000000	0.001612	0.001827	28.0826	0.089421	0.002052	43.5673	16.21	14.736	-0.079957	1.031253	-0.195923	-0.197312	-0.011694	43.5673	-0.195722	-111.982	0.000104	NaN
1085	1.000000	1.042660	7.37567e+06	-54389.1	1055.82	-29743.5	0.000000	0.000000	7.043175	-0.005843	NaN	0.000000	0.001588	0.001792	28.0827	0.011528	0.002124	5.428876	2.675550	-166.103	0.015201	1.041349	-0.185904	-0.187215	-0.005843	5.428876	-0.185097	-74.4331	7.850606E-5	NaN
1085	1.000000	1.052641	7.37567e+06	-54389.1	1055.82	-29743.5	0.000000	0.000000	7.053156	-0.002369	NaN	0.000000	0.001573	0.001817	28.0826	0.110640	0.002040	54.2241	-85.112	13.4092	-0.109776	1.051246	-0.175924	-0.177318	-0.002369	54.2241	-0.175891	-51.9132	4.563072E-5	NaN
1085	1.000000	1.062654	7.37567e+06	-54389.1	1055.82	-29743.5	0.000000	0.000000	7.063169	-0.023607	NaN	0.000000	0.001598	0.001866	28.0826	0.071385	0.001999	35.7061	35.5067	-165.525	-0.009811	1.061368	-0.165910	-0.167196	-0.023607	35.7061	-0.165414	-34.1646	0.000691	NaN
1085	1.000000	1.072650	7.37567e+06	-54389.1	1055.82	-29743.5	0.000000	0.000000	7.073165	-0.009971	NaN	0.000000	0.001635	0.001846	28.0826	0.092132	0.002071	44.4821	172.428	14.405	-0.072493	1.071287	-0.155915	-0.157278	-0.009971	44.4821	-0.155747	-23.0145	0.000433	NaN
1085	1.000000	1.082659	7.37567e+06	-54389.1	1055.82	-29743.5	0.000000	0.000000	7.083179	0.091507	NaN	0.000000	0.001584	0.001800	28.0824	0.043010	0.001987	21.6468	-156.186	-166.871	0.120021	1.081394	-0.145905	-0.147170	0.091507	21.6468	-0.149076	-17.423	-0.005252	NaN
1085	1.000000	1.092675	7.37567e+06	-54389.1	1055.82	-29743.5	0.000000	0.000000	7.093189	-0.037828	NaN	0.000000	0.001691	0.001833	28.0825	0.155123	0.002026	76.5526	-129.069	16.3519	-0.009645	1.091318	-0.135889	-0.137247	-0.037828	76.5526	-0.135518	-9.731480	0.003887	NaN
1085	1.000000	1.102666	7.37567e+06	-54389.1	1055.82	-29743.5	0.000000	0.000000	7.103182	0.018553	NaN	0.000000	0.001694	0.001849	28.0825	0.035088	0.001976	17.7607	-21.4044	-162.269	0.035442	1.101369	-0.125898	-0.127195	0.018553	17.7607	-0.126682	-6.563982	-0.002827	NaN
1085	1.000000	1.112687	7.37567e+06	-54389.1	1055.82	-29743.5	0.000000	0.000000	7.113203	0.006568	NaN	0.000000	0.001631	0.001826	28.0828	0.057874	0.002043	28.3264	58.5483	12.1649	0.040311	1.111343	-0.115877	-0.117221	0.006568	28.3264	-0.116051	-4.015379	-0.001636	NaN
1085	1.000000	1.122659	7.37567e+06	-54389.1	1055.82	-29743.5	0.000000	0.000000	7.123173	-0.018920	NaN	0.000000	0.001590	0.001824	28.0828	0.061267	0.002008	30.5091	112.886	-162.617	-0.029446	1.121397	-0.105906	-0.107168	-0.018920	30.5091	-0.105441	-2.402605	0.007875	NaN
1085	1.000000	1.132668	7.37567e+06	-54389.1	1055.82	-29743.5	0.000000	0.000000	7.133185	0.029855	NaN	0.000000	0.001650	0.001801	28.0825	0.250631	0.001892	132.44	169.153	11.4351	-0.044625	1.131264	-0.095896	-0.097301	0.029855	132.44	-0.096065	-1.491471	-0.020017	NaN
1085	1.000000	1.142655	7.37567e+06	-54389.1	1055.82	-29743.5	0.000000	0.000000	7.143172	0.027579	NaN	0.000000	0.001550	0.001805	28.083	0.036647	0.002044	17.9319	-144.737	-162.424	0.001476	1.141369	-0.085909	-0.087195	0.027579	17.9319	-0.087063	-0.921042	-0.029943	NaN
1085	1.000000	1.152685	7.37567e+06	-54389.1	1055.82	-29743.5	0.000000	0.000000	7.153201	0.025713	NaN	0.000000	0.001576	0.001803	28.0828	0.121948	0.002077	58.7005	78.7643	12.224	0.036581	1.151299	-0.075880	-0.077265	0.025713	58.7005	-0.076208	-0.496192	-0.051821	NaN
1085	1.000000	1.162706	7.37567e+06	-54389.1	1055.82	-29743.5	0.000000	0.000000	7.163224	0.057510	NaN	0.000000	0.001542	0.001795	28.0815	0.072187	0.001944	37.1268	-115.375	-163.253	-0.060461	1.161326	-0.065858	-0.067239	0.057510	37.1268	-0.067020	-0.283280	-0.203016	NaN
1085	1.000000	1.172699	7.37567e+06	-54389.1	1055.82	-29743.5	0.000000	0.000000	7.173218	0.094027	NaN	0.000000	0.001611	0.001804	28.0813	0.114847	0.001974	58.165	-138.146	12.6893	0.069053	1.171354	-0.055866	-0.057211	0.094027	58.165	-0.057078	-0.148221	-0.634373	NaN
1085	1.000000	1.182693	7.37567e+06	-54389.1	1055.82	-29743.5	0.000000	0.000000	7.183207	-0.044304	NaN	0.000000	0.001607	0.001797	28.0814	0.036855	0.001964	18.761	-18.1869	-165.498	-0.042026	1.181390	-0.045871	-0.047175	-0.044304	18.761	-0.044100	-0.060322	0.734460	NaN
1085	1.000000	1.192739	7.37567e+06	-54389.1	1055.82	-29743.5	0.000000	0.000000	7.193253	-0.021043	NaN	0.000000	0.001606	0.001750	28.0813	0.148817	0.001870	79.567	-139.484	11.1298	-0.092438	1.191304	-0.035826	-0.037260	-0.021043	79.567	-0.035627	-0.033420	0.629660	NaN
1085	1.000000	1.202714	7.37567e+06	-54389.1	1055.82	-29743.5	0.000000	0.000000	7.203232	0.064955	NaN	0.000000	0.001598	0.001823	28.0815	0.056372	0.002022	27.8749	11.5104	-166.537	0.039927	1.201399	-0.025850	-0.027165	0.064955	27.8749	-0.027598	-0.019773	-3.284968	NaN
1085	1.000000	1.212717	7.37567e+06	-54389.1	1055.82	-29743.5	0.000000	0.000000	7.213228	-0.105978	NaN	0.000000	0.001601	0.001806	28.0814	0.036356	0.001899	19.1427	45.9505	16.232	-0.034871	1.211377	-0.015847	-0.017188	-0.105978	19.1427	-0.011695	-0.007354	14.4103	NaN
1085	1.000000	1.222732	7.37567e+06	-54389.1	1055.82	-29743.5	0.000000	0.000000	7.223245	-0.059865	NaN	0.000000	0.001607	0.001810	28.0814	0.083691	0.002070	40.4361	-44.5888	-166.782	-0.104098	1.221424	-0.005832	-0.007141	-0.059865	40.4361	-0.004722	-0.003241	18.4694	NaN
1085	1.000000	1.232714	7.37567e+06	-54389.1	1055.82	-29743.5	0.000000	0.000000	7.233439	5.103405	NaN	0.000000	0.001578	0.001807	28.0814	5.155523	0.001689	3053.29	7.459864	10.8459	3.750130	1.231321	0.004149	0.002756	5.103405	3053.29	0.002896	0.002292	2226.25	58263.7
1085	2.000000	1.237414	7.37567e+06	-54389.1	1055.82	-29743.5	0.000000	0.000000	7.238287	8.698901	NaN	0.000000	0.001612	0.001798	28.0815	9.844032	0.001839	5352.92	4.665890	-171.872	7.830519	1.237112	0.008850	0.008548	8.698901	5352.92	0.007631	0.006665	1305.09	59903.5
1085	2.000000	1.239900	7.37567e+06	-54389.1	1055.82	-29743.5	0.000000	0.000000	7.240928	12.4562	NaN	0.000000	0.001608	0.001789	28.0814	12.3	0.001712	7185.2	7.856729	4.511229	10.7425	1.239487	0.011336	0.010923	12.4562	7185.2	0.010035	0.009221	1350.87	68363.9
1085	2.000000	1.242387	7.37567e+06	-54389.1	1055.82	-29743.5	0.000000	0.000000	7.243544	15.6101	NaN	0.000000	0.001652	0.001823	28.0815	14.5693	0.001722	8460.46	9.114784	-176.743	15.7604	1.242082	0.013822	0.013517	15.6101	8460.46	0.012438	0.012019	1298.73	70505.7
1085	2.000000	1.244836	7.37567e+06	-54389.1	1055.82	-29743.5	0.000000	0.000000	7.246205	20.7481	NaN	0.000000	0.001598	0.001813	28.0813	17.674	0.001677	10541.9	4.763639	3.193943	19.6832	1.244479	0.016272	0.015915	20.7481	10541.9	0.014795	0.015014	1381.96	78605
1085	2.000000	1.247276	7.37567e+06	-54389.1	1055.82	-29743.5	0.000000	0.000000	7.248799	24.5105	NaN	0.000000	0.001617	0.001804	28.0815	20.0929	0.001735	11577.8	3.920398	-175.833	23.8947	1.247060	0.018711	0.018496	24.5105	11577.8	0.017123	0.018222	1345.12	78361.4
1085	2.000000	1.249845	7.37567e+06	-54389.1	1055.82	-29743.5	0.000000	0.000000	7.251629	30.8381	NaN	0.000000	0.001659	0.001767	28.0827	22.7302	0.001730	13137.8	4.447690	2.103750	28.7717	1.249444	0.021280	0.020879	30.8381	13137.8	0.019520	0.021793	1415.01	81307.9
1085	2.000000	1.252313	7.37567e+06	-54389.1	1055.82	-29743.5	0.000000	0.000000	7.254210	33.5834	NaN	0.000000	0.001640	0.001793	28.0829	25.1817	0.001813	13892.4	5.871230	-178.801	33.1282	1.252075	0.023748	0.023510	33.5834	13892.4	0.021935	0.025675	1308.02	79212.9
1085	2.000000	1.254806	7.37567e+06	-54389.1	1055.82	-29743.5	0.000000	0.000000	7.257149	44.4272	NaN	0.000000	0.001600	0.001799	28.0825	29.33	0.001932	15179.3	4.552784	0.160347	41.9792	1.254470	0.026242	0.025906	44.4272	15179.3	0.024047	0.029304	1516.08	81013.9
1085	2.000000	1.257318	7.37567e+06	-54389.1	1055.82	-29743.5	0.000000	0.000000	7.259839	48.7667	NaN	0.000000	0.001557	0.001799	28.083	30.3682	0.001782	17043.5	2.122704	-177.941	47.0076	1.256973	0.028753	0.028409	48.7667	17043.5	0.026607	0.034004	1434.13	84443.2
1085	2.000000	1.259794	7.37567e+06	-54389.1	1055.82	-29743.5	0.000000	0.000000	7.262540	54.2476	NaN	0.000000	0.001603	0.001784	28.0827	32.4985	0.001816	17899.3	6.812256	-3.211432	50.9355	1.259435	0.031229	0.030871	54.2476	17899.3	0.028956	0.038608	1405.1	83228.7
1085	2.000000	1.262311	7.37567e+06	-54389.1	1055.82	-29743.5	0.000000	0.000000	7.265408	62.7564	NaN	0.000000	0.001622	0.001834	28.0837	34.414	0.001884	18267.2	4.709173	-179.467	62.8436	1.261991	0.033746	0.033426	62.7564	18267.2	0.031170	0.043203	1452.58	80294.9
1085	2.000000	1.264790	7.37567e+06	-54389.1	1055.82	-29743.5	0.000000	0.000000	7.268197	70.2869	NaN	0.000000	0.001599	0.001796	28.0827	37.4193	0.001864	20070.1	4.248723	-0.961515	68.4087	1.264388	0.036226	0.035824	70.2869	20070.1	0.033599	0.048534	1448.2	83233.8
1085	2.000000	1.267225	7.37567e+06	-54389.1	1055.82	-29743.5	0.000000	0.000000	7.270974	78.6091	NaN	0.000000	0.001600	0.001788	28.0825	39.4215	0.001758	22422.2	4.143386	177.926	75.3658	1.266962	0.038660	0.038398	78.6091	22422.2	0.036031	0.054173	1451.07	88015.4
1085	2.000000	1.269794	7.37567e+06	-54389.1	1055.82	-29743.5	0.000000	0.000000	7.273908	87.4671	NaN	0.000000	0.001577	0.001811	28.0826	40.3683	0.001690	23885.6	3.171274	-0.703958	83.3322	1.269404	0.041230	0.040840	87.4671	23885.6	0.038483	0.060168	1453.73	88967
1085	2.000000	1.272202	7.37567e+06	-54389.1	1055.82	-29743.5	0.000000	0.000000	7.276805	99.38	NaN	0.000000	0.001594	0.001765	28.0835	45.1749	0.001874	24107.6	8.704075	172.982	95.4714	1.271923	0.043637	0.043358	99.38	24107.6	0.040546	0.065446	1518.5	86096.2
1085	2.000000	1.274717	7.37567e+06	-54389.1	1055.82	-29743.5	0.000000	0.000000	7.279574	105.554	NaN	0.000000	0.001598	0.001820	28.0824	46.4432	0.001763	26348.5	5.263706	-3.685992	101.202	1.274416	0.046153	0.045851	105.554	26348.5	0.043148	0.072417	1457.59	89456.2
1085	2.000000	1.277277	7.37567e+06	-54389.1	1055.82	-29743.5	0.000000	0.000000	7.282614	117.212	NaN	0.000000	0.001555	0.001811	28.0826	50.129	0.001837	27292.6	7.294763	172.504	115.902	1.277003	0.048713	0.048438	117.212	27292.6	0.045492	0.078990	1483.9	88722.3
1085	2.000000	1.279818	7.37567e+06	-54389.1	1055.82	-29743.5	0.000000	0.000000	7.285657	129.406	NaN	0.000000	0.001609	0.001818	28.0825	51.9514	0.001853	28029.9	8.442141	-7.232007	128.153	1.279432	0.051254	0.050867	129.406	28029.9	0.047791	0.085708	1509.84	87474.9
1085	2.000000	1.282226	7.37567e+06	-54389.1	1055.82	-29743.5	0.000000	0.000000	7.288398	137.509	NaN	0.000000	0.001565	0.001834	28.0835	53.5318	0.001844	29023.5	3.723767	177.541	134.431	1.281897	0.053662	0.053332	137.509	29023.5	0.050108	0.092748	1482.6	87070.1
1085	2.000000	1.284695	7.37567e+06	-54389.1	1055.82	-29743.5	0.000000	0.000000	7.291567	154.534	NaN	0.000000	0.001588	0.001815	28.0812	56.2923	0.001782	31582.2	5.049341	-4.986198	149.477	1.284383	0.056131	0.055819	154.534	31582.2	0.052461	0.100171	1542.7	91168.5
1085	2.000000	1.287272	7.37567e+06	-54389.1	1055.82	-29743.5	0.000000	0.000000	7.294575	165.022	NaN	0.000000	0.001573	0.001819	28.0814	59.8783	0.001940	30862	5.841865	174.802	164.641	1.286887	0.058707	0.058322	165.022	30862	0.054697	0.107482	1535.35	86006.3
1085	2.000000	1.289755	7.37567e+06	-54389.1	1055.82	-29743.5	0.000000	0.000000	7.297530	176.479	NaN	0.000000	0.001598	0.001783	28.0813	60.901	0.001702	35771.6	4.059234	-5.193086	173.978	1.289459	0.061191	0.060895	176.479	35771.6	0.057491	0.116964	1508.84	95562.1
1085	2.000000	1.292317	7.37567e+06	-54389.1	1055.82	-29743.5	0.000000	0.000000	7.300647	189.981	NaN	0.000000	0.001563	0.001749	28.0815	63.6276	0.001826	34841.5	3.417915	175.608	192.03	1.291906	0.063753	0.063341	189.981	34841.5	0.059663	0.124603	1524.69	90179
1085	2.000000	1.294655	7.37567e+06	-54389.1	1055.82	-29743.5	0.000000	0.000000	7.303546	203.615	NaN	0.000000	0.001569	0.001775	28.0812	65.5037	0.001719	38096.9	5.626790	-8.161194	195.839	1.294337	0.066090	0.065773	203.615	38096.9	0.062082	0.133379	1526.6	95305.8
1085	2.000000	1.297180	7.37567e+06	-54389.1	1055.82	-29743.5	0.000000	0.000000	7.306706	219.062	NaN	0.000000	0.001582	0.001828	28.0813	68.435	0.001685	40604.7	5.690357	171.424	217.165	1.296932	0.068615	0.068368	219.062	40604.7	0.064569	0.142701	1535.12	98205.6
1085	2.000000	1.299816	7.37567e+06	-54389.1	1055.82	-29743.5	0.000000	0.000000	7.309823	230.747	NaN	0.000000	0.001574	0.001840	28.0815	71.0477	0.001824	38961	5.620503	-7.908531	230.214	1.299368	0.071252	0.070803	230.747	38961	0.066810	0.151354	1524.55	91496.7
1085	2.000000	1.302239	7.37567e+06	-54389.1	1055.82	-29743.5	0.000000	0.000000	7.312835	245.064	NaN	0.000000	0.001607	0.001757	28.0814	73.3505	0.001860	39430.2	3.636350	173.712	244.363	1.301915	0.073674	0.073351	245.064	39430.2	0.069013	0.160097	1530.73	90035.1
1085	2.000000	1.304716	7.37567e+06	-54389.1	1055.82	-29743.5	0.000000	0.000000	7.315790	256.683	NaN	0.000000	0.001593	0.001788	28.0812	76.4036	0.001896	40299.8	4.987767	-8.416691	255.254	1.304503	0.076151	0.075939	256.683	40299.8	0.071374	0.169723	1512.36	89372.9
1085	2.000000	1.307323	7.37567e+06	-54389.1	1055.82	-29743.5	0.000000	0.000000	7.318872	268.23	NaN	0.000000	0.001578	0.001801	28.0812	79.1715	0.001892	41844.8	7.271677	169.45	272.159	1.306938	0.078758	0.078373	268.23	41844.8	0.073951	0.180530	1485.79	89978.8
1085	2.000000	1.309709	7.37567e+06	-54389.1	1055.82	-29743.5	0.000000	0.000000	7.322362	295.058	NaN	0.000000	0.001573	0.001820	28.0815	77.6354	0.001724	45028.7	2.447252	-5.857427	291.14	1.309321	0.081145	0.080757	295.058	45028.7	0.076230	0.190351	1550.07	94294.1
1085	2.000000	1.312209	7.37567e+06	-54389.1	1055.82	-29743.5	0.000000	0.000000	7.325231	304.03	NaN	0.000000	0.001547	0.001784	28.0811	81.359	0.001652	49263.6	8.060212	167.999	302.693	1.311737	0.083645	0.083172	304.03	49263.6	0.079016	0.202686	1500	99974.1
1085	2.000000	1.314698	7.37567e+06	-54389.1	1055.82	-29743.5	0.000000	0.000000	7.328452	321.847	NaN	0.000000	0.001554	0.001832	28.0812	84.4157	0.001830	46136.2	4.597547	-8.418238	317.631	1.314468	0.086134	0.085904	321.847	46136.2	0.080902	0.211240	1523.61	91712.2
1085	2.000000	1.317196	7.37567e+06	-54389.1	1055.82	-29743.5	0.000000	0.000000	7.331772	341.829	NaN	0.000000	0.001597	0.001816	28.0814	86.2259	0.001767	48787.8	3.249387	172.378	338.49	1.316903	0.088632	0.088339	341.829	48787.8	0.083377	0.222719	1534.8	94450.8
1085	2.000000	1.319835	7.37567e+06	-54389.1	1055.82	-29743.5	0.000000	0.000000	7.334937	354.598	NaN	0.000000	0.001580	0.001807	28.0827	89.3886	0.001791	49899.2	8.264008	-11.7954	357.084	1.319294	0.091271	0.090730	354.598	49899.2	0.085941	0.234912	1509.49	94062.1
1085	2.000000	1.322153	7.37567e+06	-54389.1	1055.82	-29743.5	0.000000	0.000000	7.338414	382.779	NaN	0.000000	0.001590	0.001822	28.0826	90.4889	0.001817	49809.8	5.510221	170.639	377.511	1.321862	0.093589	0.093298	382.779	49809.8	0.087825	0.244063	1568.36	92116.4
1085	2.000000	1.324668	7.37567e+06	-54389.1	1055.82	-29743.5	0.000000	0.000000	7.341541	397.677	NaN	0.000000	0.001590	0.001808	28.0824	93.8755	0.001860	50474.7	8.578765	-12.2765	392.673	1.324297	0.096103	0.095732	397.677	50474.7	0.090194	0.255802	1554.63	91178.9
1085	2.000000	1.327240	7.37567e+06	-54389.1	1055.82	-29743.5	0.000000	0.000000	7.344875	416.184	NaN	0.000000	0.001593	0.001807	28.0826	97.1133	0.001837	52877.1	7.876519	168.058	415.51	1.326804	0.098676	0.098240	416.184	52877.1	0.092773	0.268870	1547.9	93168.7
1085	2.000000	1.329830	7.37567e+06	-54389.1	1055.82	-29743.5	0.000000	0.000000	7.348207	434.213	NaN	0.000000	0.001571	0.001808	28.0825	98.3532	0.001772	55513.9	7.579344	-11.8614	436.515	1.329295	0.101266	0.100730	434.213	55513.9	0.095400	0.282497	1537.05	95426.3
1085	2.000000	1.332208	7.37567e+06	-54389.1	1055.82	-29743.5	0.000000	0.000000	7.351191	448.962	NaN	0.000000	0.001564	0.001799	28.0825	100.737	0.001810	55649.6	3.816300	171.224	447.225	1.331983	0.103643	0.103419	448.962	55649.6	0.097592	0.294114	1526.49	93751.4
1085	2.000000	1.334196	7.37567e+06	-54389.1	1055.82	-29743.5	0.000000	0.000000	7.353637	460.091	NaN	0.000000	0.001596	0.001814	28.0827	102.822	0.001741	59055.2	6.082192	168.438	457.678	1.333983	0.105632	0.105418	460.091	59055.2	0.099789	0.305967	1503.73	97542.5