File: remote_trans/data/nanoindenter/0828-1/data/Data_2025-08-06,11h17m57s/2025-07-22_16-23-58_1_166.txt
2025-07-22, 16:23:58, 1
Index	Phase	Displacement	Time	Pos X	Pos Y	Pos Z	Rot A	Rot B	Piezo Z	Force A	Force B	Gripper	Voltage A	Voltage B	Temperature	Amplitude force	Amplitude pos	Stiffness	Phase shift	Phase excitation	Force A raw	Displacement raw	HMax	HMax raw	Real Force	Real Stiffness	Contact Depth	Area	Hardness	Reduced Mod.
[#]	[#]	[um]	[s]	[um]	[um]	[um]	[m°]	[m°]	[um]	[uN]	[uN]	[V]	[V]	[V]	[°C]	[uN]	[um]	[N/m]	[°]	[°]	[uN]	[um]	[um]	[um]	[uN]	[N/m]	[um]	[um^2]	[MPa]	[MPa]
166	1.000000	0.002745	7.36666e+06	-46939.1	955.818	-29768	0.000000	0.000000	6.002723	-0.037284	NaN	0.000000	0.001548	0.001699	28.0824	0.068337	0.000888	76.9479	37.7312	177.938	0.061853	0.001554	-1.068467	-1.069658	-0.037284	76.9479	-1.068104	-1.869446E+14	1.994393E-16	NaN
166	1.000000	0.010725	7.36666e+06	-46939.1	955.819	-29768	0.000000	0.000000	6.010706	0.020485	NaN	0.000000	0.001581	0.001707	28.0816	0.111577	0.000951	117.37	4.626085	175.019	-0.052727	0.009418	-1.060487	-1.061794	0.020485	117.37	-1.060618	-1.482933E+14	-1.381377E-16	NaN
166	1.000000	0.018715	7.36666e+06	-46939.1	955.819	-29768	0.000000	0.000000	6.018694	-0.027176	NaN	0.000000	0.001564	0.001694	28.0835	0.023348	0.001615	14.4601	56.7052	175.322	-0.027026	0.017443	-1.052497	-1.053769	-0.027176	14.4601	-1.051088	-1.104166E+14	2.461223E-16	NaN
166	1.000000	0.026773	7.36666e+06	-46939.1	955.818	-29768	0.000000	0.000000	6.026754	0.026903	NaN	0.000000	0.001583	0.001737	28.083	0.114666	0.001752	65.4366	145.617	179.274	0.001665	0.025434	-1.044439	-1.045777	0.026903	65.4366	-1.044747	-9.073950E+13	-2.964857E-16	NaN
166	1.000000	0.034706	7.36666e+06	-46939.1	955.819	-29768	0.000000	0.000000	6.034683	-0.075604	NaN	0.000000	0.001560	0.001705	28.0836	0.041860	0.001852	22.604	11.1132	174.17	0.001592	0.033334	-1.036505	-1.037878	-0.075604	22.604	-1.033997	-6.504858E+13	1.162265E-15	NaN
166	1.000000	0.042719	7.36666e+06	-46939.1	955.819	-29768	0.000000	0.000000	6.042695	-0.101432	NaN	0.000000	0.001589	0.001686	28.0819	0.131745	0.001968	66.9447	8.648650	177.114	-0.144642	0.041406	-1.028493	-1.029806	-0.101432	66.9447	-1.027357	-5.295736E+13	1.915343E-15	NaN
166	1.000000	0.050729	7.36666e+06	-46939.1	955.818	-29768	0.000000	0.000000	6.050709	-0.009264	NaN	0.000000	0.001642	0.001702	28.0838	0.082789	0.001906	43.4365	-69.5656	178.194	0.011777	0.049390	-1.020483	-1.021822	-0.009264	43.4365	-1.020323	-4.258864E+13	2.175187E-16	NaN
166	1.000000	0.058719	7.36666e+06	-46939.1	955.82	-29768	0.000000	0.000000	6.058698	-0.023022	NaN	0.000000	0.001675	0.001702	28.0825	0.049249	0.002057	23.9474	154.289	175.96	-0.026067	0.057400	-1.012493	-1.013812	-0.023022	23.9474	-1.011772	-3.267636E+13	7.045401E-16	NaN
166	1.000000	0.066706	7.36666e+06	-46939.1	955.819	-29768	0.000000	0.000000	6.066686	-0.014101	NaN	0.000000	0.001672	0.001679	28.0816	0.101836	0.001966	51.7969	60.4523	173.966	-0.137737	0.065480	-1.004505	-1.005732	-0.014101	51.7969	-1.004301	-2.592239E+13	5.439626E-16	NaN
166	1.000000	0.074734	7.36666e+06	-46939.1	955.818	-29768	0.000000	0.000000	6.074713	-0.040886	NaN	0.000000	0.001680	0.001668	28.0823	0.024867	0.002002	12.4186	-143.258	177.956	0.029922	0.073379	-0.996478	-0.997833	-0.040886	12.4186	-0.994008	-1.884047E+13	2.170123E-15	NaN
166	1.000000	0.082716	7.36666e+06	-46939.1	955.818	-29768	0.000000	0.000000	6.082695	-0.012935	NaN	0.000000	0.001695	0.001735	28.0812	0.067399	0.001991	33.8544	-86.9913	178.345	-0.070631	0.081391	-0.988496	-0.989821	-0.012935	33.8544	-0.988210	-1.573974E+13	8.217803E-16	NaN
166	1.000000	0.090730	7.36666e+06	-46939.1	955.818	-29768	0.000000	0.000000	6.090709	-0.025767	NaN	0.000000	0.001731	0.001730	28.0816	0.109944	0.002059	53.3973	-116.162	-179.071	-0.064197	0.089418	-0.980482	-0.981794	-0.025767	53.3973	-0.980120	-1.224697E+13	2.103913E-15	NaN
166	1.000000	0.098729	7.36666e+06	-46939.1	955.818	-29768	0.000000	0.000000	6.098711	0.035134	NaN	0.000000	0.001666	0.001715	28.0817	0.045156	0.001985	22.7535	24.142	174.439	0.172449	0.097411	-0.972483	-0.973801	0.035134	22.7535	-0.973641	-1.001674E+13	-3.507505E-15	NaN
166	1.000000	0.106724	7.36666e+06	-46939.1	955.818	-29768	0.000000	0.000000	6.106704	0.005384	NaN	0.000000	0.001655	0.001721	28.0818	0.066252	0.002002	33.0897	-100.571	176.087	0.084489	0.105470	-0.964488	-0.965742	0.005384	33.0897	-0.964610	-7.568572E+12	-7.113405E-16	NaN
166	1.000000	0.114698	7.36666e+06	-46939.1	955.817	-29768	0.000000	0.000000	6.114678	-0.017800	NaN	0.000000	0.001662	0.001687	28.0818	0.043262	0.002041	21.1942	47.1808	177.362	-0.007114	0.113454	-0.956514	-0.957758	-0.017800	21.1942	-0.955884	-5.772584E+12	3.083547E-15	NaN
166	1.000000	0.122743	7.36666e+06	-46939.1	955.818	-29768	0.000000	0.000000	6.122725	0.044733	NaN	0.000000	0.001645	0.001675	28.082	0.046398	0.001845	25.1508	-98.8551	179.389	-0.026620	0.121408	-0.948469	-0.949804	0.044733	25.1508	-0.949803	-4.779351E+12	-9.359555E-15	NaN
166	1.000000	0.130726	7.36666e+06	-46939.1	955.818	-29768	0.000000	0.000000	6.130709	0.069341	NaN	0.000000	0.001673	0.001688	28.0834	0.042138	0.001984	21.2364	-171.002	179.252	0.045717	0.129470	-0.940485	-0.941742	0.069341	21.2364	-0.942934	-3.861211E+12	-1.795846E-14	NaN
166	1.000000	0.138757	7.36666e+06	-46939.1	955.818	-29768	0.000000	0.000000	6.138735	-0.055988	NaN	0.000000	0.001667	0.001673	28.0805	0.109986	0.002123	51.8165	78.8102	177.919	-0.023733	0.137477	-0.932455	-0.933735	-0.055988	51.8165	-0.931645	-2.718901E+12	2.059229E-14	NaN
166	1.000000	0.146732	7.36666e+06	-46939.1	955.818	-29768	0.000000	0.000000	6.146711	-0.026905	NaN	0.000000	0.001667	0.001657	28.0818	0.083449	0.001998	41.7654	48.7717	176.143	-0.121970	0.145428	-0.924480	-0.925784	-0.026905	41.7654	-0.923997	-2.143730E+12	1.255050E-14	NaN
166	1.000000	0.154720	7.36666e+06	-46939.1	955.819	-29768	0.000000	0.000000	6.154698	-0.063429	NaN	0.000000	0.001658	0.001654	28.0807	0.170816	0.001819	93.9148	46.2347	178.124	-0.133712	0.153461	-0.916492	-0.917751	-0.063429	93.9148	-0.915985	-1.671071E+12	3.795732E-14	NaN
166	1.000000	0.162754	7.36666e+06	-46939.1	955.818	-29768	0.000000	0.000000	6.162732	-0.054448	NaN	0.000000	0.001663	0.001666	28.0801	0.019254	0.002099	9.173779	-151.757	178.156	-0.033096	0.161473	-0.908458	-0.909739	-0.054448	9.173779	-0.904007	-1.151337E+12	4.729147E-14	NaN
166	1.000000	0.170768	7.36666e+06	-46939.1	955.818	-29768	0.000000	0.000000	6.170746	-0.050959	NaN	0.000000	0.001651	0.001658	28.0817	0.095316	0.002087	45.6779	-101.015	176.151	0.015627	0.169488	-0.900444	-0.901724	-0.050959	45.6779	-0.899607	-1.004058E+12	5.075331E-14	NaN
166	1.000000	0.178753	7.36666e+06	-46939.1	955.818	-29768	0.000000	0.000000	6.178732	-0.039888	NaN	0.000000	0.001623	0.001670	28.0811	0.031417	0.001932	16.2636	-16.675	175.423	-0.024154	0.177449	-0.892459	-0.893762	-0.039888	16.2636	-0.890619	-7.590742E+11	5.254818E-14	NaN
166	1.000000	0.186773	7.36666e+06	-46939.1	955.819	-29768	0.000000	0.000000	6.186750	-0.055660	NaN	0.000000	0.001613	0.001706	28.0812	0.042615	0.001930	22.0862	-164.837	177.431	-0.054751	0.185410	-0.884439	-0.885802	-0.055660	22.0862	-0.882549	-5.904447E+11	9.426741E-14	NaN
166	1.000000	0.194775	7.36666e+06	-46939.1	955.818	-29768	0.000000	0.000000	6.194755	-0.007177	NaN	0.000000	0.001630	0.001699	28.0788	0.041805	0.002095	19.9582	-44.1804	177.073	-0.028149	0.193461	-0.876436	-0.877751	-0.007177	19.9582	-0.876167	-4.840216E+11	1.482728E-14	NaN
166	1.000000	0.202770	7.36666e+06	-46939.1	955.818	-29768	0.000000	0.000000	6.202747	-0.076867	NaN	0.000000	0.001588	0.001682	28.0808	0.075332	0.001901	39.6371	-88.1913	177.557	-0.009890	0.201505	-0.868442	-0.869707	-0.076867	39.6371	-0.866987	-3.636480E+11	2.113778E-13	NaN
166	1.000000	0.210781	7.36666e+06	-46939.1	955.818	-29768	0.000000	0.000000	6.210762	0.029182	NaN	0.000000	0.001621	0.001713	28.0832	0.070004	0.002009	34.8427	-123.833	177.534	-0.058184	0.209471	-0.860431	-0.861741	0.029182	34.8427	-0.861059	-3.023126E+11	-9.652852E-14	NaN
166	1.000000	0.218773	7.36666e+06	-46939.1	955.818	-29768.1	0.000000	0.000000	6.218748	-0.120171	NaN	0.000000	0.001598	0.001682	28.0817	0.039657	0.002066	19.191	-151.612	176.217	-0.081993	0.217465	-0.852439	-0.853747	-0.120171	19.191	-0.847742	-1.996009E+11	6.020561E-13	NaN
166	1.000000	0.226789	7.36666e+06	-46939.1	955.819	-29768.1	0.000000	0.000000	6.226768	-0.045400	NaN	0.000000	0.001585	0.001675	28.0821	0.092217	0.002044	45.1067	13.3921	-179.319	-0.033313	0.225458	-0.844422	-0.845754	-0.045400	45.1067	-0.843668	-1.757821E+11	2.582764E-13	NaN
166	1.000000	0.234774	7.36666e+06	-46939.1	955.818	-29768.1	0.000000	0.000000	6.234755	0.002901	NaN	0.000000	0.001589	0.001682	28.084	0.053636	0.002018	26.5842	-56.9078	178.971	0.040771	0.233510	-0.836438	-0.837702	0.002901	26.5842	-0.836519	-1.406486E+11	-2.062681E-14	NaN
166	1.000000	0.242793	7.36666e+06	-46939.1	955.817	-29768.1	0.000000	0.000000	6.242774	0.014292	NaN	0.000000	0.001600	0.001675	28.0849	0.025247	0.001938	13.0287	173.981	177.509	-0.034581	0.241477	-0.828419	-0.829735	0.014292	13.0287	-0.829242	-1.120743E+11	-1.275204E-13	NaN
166	1.000000	0.250812	7.36666e+06	-46939.1	955.819	-29768.1	0.000000	0.000000	6.250788	-0.100022	NaN	0.000000	0.001601	0.001656	28.0844	0.066093	0.001925	34.3412	-62.0457	179.353	-0.007271	0.249507	-0.820399	-0.821705	-0.100022	34.3412	-0.818215	-7.943366E+10	1.259186E-12	NaN
166	1.000000	0.258796	7.36666e+06	-46939.1	955.819	-29768.1	0.000000	0.000000	6.258777	0.018938	NaN	0.000000	0.001572	0.001678	28.0842	0.036624	0.001917	19.1094	12.9657	-178.271	0.022338	0.257511	-0.812416	-0.813701	0.018938	19.1094	-0.813159	-6.783171E+10	-2.791869E-13	NaN
166	1.000000	0.266817	7.36666e+06	-46939.1	955.818	-29768.1	0.000000	0.000000	6.266795	-0.066730	NaN	0.000000	0.001567	0.001658	28.0832	0.076907	0.002158	35.6339	113.461	176.368	-0.043780	0.265460	-0.804395	-0.805752	-0.066730	35.6339	-0.802990	-4.936827E+10	1.351676E-12	NaN
166	1.000000	0.274796	7.36666e+06	-46939.1	955.818	-29768.1	0.000000	0.000000	6.274777	0.028751	NaN	0.000000	0.001572	0.001634	28.0864	0.025079	0.002050	12.2339	-15.3534	177.129	0.017378	0.273486	-0.796416	-0.797726	0.028751	12.2339	-0.798179	-4.247529E+10	-6.768793E-13	NaN
166	1.000000	0.282811	7.36666e+06	-46939.1	955.818	-29768.1	0.000000	0.000000	6.282788	-0.078879	NaN	0.000000	0.001595	0.001673	28.0839	0.195574	0.002106	92.8474	128.453	177.21	-0.071278	0.281482	-0.788401	-0.789730	-0.078879	92.8474	-0.787764	-3.066987E+10	2.571857E-12	NaN
166	1.000000	0.290816	7.36666e+06	-46939.1	955.819	-29768.1	0.000000	0.000000	6.290795	-0.033445	NaN	0.000000	0.001552	0.001654	28.0847	0.055329	0.002057	26.8989	-154.43	177.5	-0.087943	0.289536	-0.780396	-0.781676	-0.033445	26.8989	-0.779463	-2.365579E+10	1.413839E-12	NaN
166	1.000000	0.298840	7.36666e+06	-46939.1	955.817	-29768.1	0.000000	0.000000	6.298820	-0.000381	NaN	0.000000	0.001587	0.001662	28.0838	0.060991	0.002033	30.0005	27.8855	176.012	-0.050346	0.297494	-0.772372	-0.773718	-0.000381	30.0005	-0.772362	-1.894190E+10	2.012537E-14	NaN
166	1.000000	0.306829	7.36666e+06	-46939.1	955.818	-29768.1	0.000000	0.000000	6.306809	-0.023195	NaN	0.000000	0.001601	0.001659	28.0824	0.027287	0.001996	13.6682	-173.751	176.731	-0.114587	0.305528	-0.764382	-0.765683	-0.023195	13.6682	-0.763110	-1.417761E+10	1.636025E-12	NaN
166	1.000000	0.314822	7.36666e+06	-46939.1	955.818	-29768.1	0.000000	0.000000	6.314799	-0.070644	NaN	0.000000	0.001614	0.001665	28.0826	0.039167	0.002029	19.3073	1.666169	179.489	-0.029228	0.313527	-0.756390	-0.757685	-0.070644	19.3073	-0.753646	-1.054003E+10	6.702426E-12	NaN
166	1.000000	0.322818	7.36666e+06	-46939.1	955.818	-29768.1	0.000000	0.000000	6.322796	-0.044752	NaN	0.000000	0.001615	0.001672	28.0837	0.124055	0.001884	65.8383	63.033	174.909	-0.127423	0.321506	-0.748394	-0.749706	-0.044752	65.8383	-0.747884	-8.798597E+9	5.086313E-12	NaN
166	1.000000	0.330831	7.36666e+06	-46939.1	955.819	-29768.1	0.000000	0.000000	6.330809	-0.050139	NaN	0.000000	0.001584	0.001674	28.082	0.198339	0.001909	103.895	-148.538	178.892	-0.069286	0.329520	-0.740381	-0.741692	-0.050139	103.895	-0.740019	-6.875737E+9	7.292228E-12	NaN
166	1.000000	0.338848	7.36666e+06	-46939.1	955.818	-29768.1	0.000000	0.000000	6.338828	-0.018391	NaN	0.000000	0.001587	0.001697	28.0832	0.043891	0.002074	21.1619	103.043	177.018	-0.025666	0.337437	-0.732363	-0.733774	-0.018391	21.1619	-0.731712	-5.298273E+9	3.471122E-12	NaN
166	1.000000	0.346843	7.36666e+06	-46939.1	955.819	-29768.1	0.000000	0.000000	6.346820	-0.070139	NaN	0.000000	0.001589	0.001638	28.0836	0.173876	0.002105	82.6065	141.669	177.019	-0.078603	0.345528	-0.724369	-0.725684	-0.070139	82.6065	-0.723732	-4.124451E+9	1.700573E-11	NaN
166	1.000000	0.354826	7.36666e+06	-46939.1	955.819	-29768.1	0.000000	0.000000	6.354804	-0.047391	NaN	0.000000	0.001621	0.001644	28.0814	0.077034	0.002029	37.9707	-9.061407	177.306	-0.090062	0.353547	-0.716386	-0.717664	-0.047391	37.9707	-0.715450	-3.179875E+9	1.490348E-11	NaN
166	1.000000	0.362873	7.36666e+06	-46939.1	955.818	-29768.1	0.000000	0.000000	6.362849	-0.116383	NaN	0.000000	0.001611	0.001672	28.082	0.089889	0.002102	42.772	150.899	174.926	-0.121507	0.361557	-0.708338	-0.709655	-0.116383	42.772	-0.706298	-2.385148E+9	4.879503E-11	NaN
166	1.000000	0.370841	7.36666e+06	-46939.1	955.818	-29768.1	0.000000	0.000000	6.370820	-0.017392	NaN	0.000000	0.001621	0.001633	28.083	0.006645	0.002053	3.236500	91.3724	177.613	0.007514	0.369487	-0.700371	-0.701724	-0.017392	3.236500	-0.696341	-1.744015E+9	9.972676E-12	NaN
166	1.000000	0.378859	7.36666e+06	-46939.1	955.818	-29768.1	0.000000	0.000000	6.378837	-0.067165	NaN	0.000000	0.001632	0.001676	28.0808	0.035794	0.001987	18.0174	-125.431	174.783	-0.015115	0.377562	-0.692352	-0.693650	-0.067165	18.0174	-0.689557	-1.408831E+9	4.767412E-11	NaN
166	1.000000	0.386859	7.36666e+06	-46939.1	955.819	-29768.1	0.000000	0.000000	6.386835	-0.103442	NaN	0.000000	0.001606	0.001664	28.0824	0.056325	0.001930	29.1856	-149.905	178.71	-0.081084	0.385559	-0.684353	-0.685652	-0.103442	29.1856	-0.681694	-1.099961E+9	9.404169E-11	NaN
166	1.000000	0.394839	7.36666e+06	-46939.1	955.818	-29768.1	0.000000	0.000000	6.394820	0.013084	NaN	0.000000	0.001601	0.001662	28.0792	0.037248	0.002022	18.4178	-68.5538	176.54	-0.060023	0.393517	-0.676373	-0.677695	0.013084	18.4178	-0.676905	-9.459742E+8	-1.383136E-11	NaN
166	1.000000	0.402855	7.36666e+06	-46939.1	955.819	-29768.1	0.000000	0.000000	6.402834	-0.020032	NaN	0.000000	0.001600	0.001661	28.0806	0.076590	0.001981	38.6647	149.397	177.557	-0.013826	0.401549	-0.668357	-0.669663	-0.020032	38.6647	-0.667968	-7.138035E+8	2.806389E-11	NaN
166	1.000000	0.410833	7.36666e+06	-46939.1	955.818	-29768.1	0.000000	0.000000	6.410813	-0.008673	NaN	0.000000	0.001592	0.001664	28.0809	0.173804	0.001991	87.3148	-145.924	-179.767	-0.036784	0.409538	-0.660378	-0.661674	-0.008673	87.3148	-0.660304	-5.605727E+8	1.547251E-11	NaN
166	1.000000	0.418842	7.36666e+06	-46939.1	955.817	-29768.1	0.000000	0.000000	6.418819	-0.073332	NaN	0.000000	0.001582	0.001628	28.0822	0.084227	0.001913	44.0184	-53.1594	176.469	-0.042375	0.417557	-0.652370	-0.653654	-0.073332	44.0184	-0.651121	-4.195630E+8	1.747825E-10	NaN
166	1.000000	0.426868	7.36666e+06	-46939.1	955.818	-29768.1	0.000000	0.000000	6.426846	-0.057027	NaN	0.000000	0.001600	0.001651	28.0829	0.020138	0.001958	10.2872	-157.491	175.754	-0.057811	0.425530	-0.644343	-0.645682	-0.057027	10.2872	-0.640186	-2.970561E+8	1.919739E-10	NaN
166	1.000000	0.434863	7.36666e+06	-46939.1	955.818	-29768.1	0.000000	0.000000	6.434841	-0.054344	NaN	0.000000	0.001557	0.001646	28.0824	0.101331	0.002116	47.8768	136.724	176.897	0.022473	0.433525	-0.636348	-0.637687	-0.054344	47.8768	-0.635497	-2.561504E+8	2.121576E-10	NaN
166	1.000000	0.442898	7.36666e+06	-46939.1	955.818	-29768.1	0.000000	0.000000	6.442876	-0.058318	NaN	0.000000	0.001537	0.001671	28.0818	0.084646	0.002073	40.8349	-173.063	-179.27	0.072296	0.441540	-0.628314	-0.629672	-0.058318	40.8349	-0.627242	-1.973103E+8	2.955664E-10	NaN
166	1.000000	0.450852	7.36666e+06	-46939.1	955.819	-29768.1	0.000000	0.000000	6.450825	-0.178931	NaN	0.000000	0.001525	0.001655	28.0823	0.070783	0.001929	36.7024	-160.624	179.699	-0.178693	0.449587	-0.620360	-0.621624	-0.178931	36.7024	-0.616704	-1.413568E+8	1.265809E-9	NaN
166	1.000000	0.458885	7.36666e+06	-46939.1	955.818	-29768.1	0.000000	0.000000	6.458863	-0.066040	NaN	0.000000	0.001581	0.001649	28.0819	0.053073	0.001990	26.6672	124.966	178.099	-0.098157	0.457529	-0.612327	-0.613683	-0.066040	26.6672	-0.610469	-1.160298E+8	5.691645E-10	NaN
166	1.000000	0.466862	7.36666e+06	-46939.1	955.817	-29768.1	0.000000	0.000000	6.466842	-0.010498	NaN	0.000000	0.001602	0.001658	28.0821	0.126011	0.001965	64.1298	28.7882	177.472	-0.039643	0.465577	-0.604350	-0.605635	-0.010498	64.1298	-0.604227	-9.520549E+7	1.102707E-10	NaN
166	1.000000	0.474904	7.36666e+06	-46939.1	955.818	-29768.1	0.000000	0.000000	6.474881	-0.060134	NaN	0.000000	0.001572	0.001657	28.082	0.063117	0.001969	32.0566	29.7473	173.74	-0.030728	0.473561	-0.596308	-0.597651	-0.060134	32.0566	-0.594901	-7.083045E+7	8.489849E-10	NaN
166	1.000000	0.482898	7.36666e+06	-46939.1	955.819	-29768.1	0.000000	0.000000	6.482875	-0.062952	NaN	0.000000	0.001584	0.001656	28.081	0.114755	0.001995	57.5245	84.0765	179.543	-0.063269	0.481591	-0.588314	-0.589620	-0.062952	57.5245	-0.587493	-5.598877E+7	1.124370E-9	NaN
166	1.000000	0.490876	7.36666e+06	-46939.1	955.817	-29768.1	0.000000	0.000000	6.490855	-0.023719	NaN	0.000000	0.001629	0.001682	28.0829	0.110351	0.002006	55.0041	-18.8457	177.606	-0.028910	0.489629	-0.580336	-0.581583	-0.023719	55.0041	-0.580012	-4.414655E+7	5.372805E-10	NaN
166	1.000000	0.498903	7.36666e+06	-46939.1	955.818	-29768.1	0.000000	0.000000	6.498881	-0.029690	NaN	0.000000	0.001605	0.001663	28.0844	0.100228	0.001897	52.8398	-17.5863	177.695	-0.061532	0.497570	-0.572309	-0.573642	-0.029690	52.8398	-0.571888	-3.409689E+7	8.707458E-10	NaN
166	1.000000	0.506896	7.36666e+06	-46939.1	955.818	-29768.1	0.000000	0.000000	6.506874	-0.056325	NaN	0.000000	0.001569	0.001664	28.0839	0.036592	0.001991	18.3756	-10.0878	177.555	-0.061100	0.505581	-0.564315	-0.565630	-0.056325	18.3756	-0.562017	-2.490414E+7	2.261665E-9	NaN
166	1.000000	0.514901	7.36666e+06	-46939.1	955.819	-29768.1	0.000000	0.000000	6.514878	-0.084993	NaN	0.000000	0.001565	0.001716	28.0838	0.024701	0.001884	13.1098	1.057644	175.447	-0.064316	0.513538	-0.556311	-0.557674	-0.084993	13.1098	-0.551448	-1.778335E+7	4.779362E-9	NaN
166	1.000000	0.522888	7.36666e+06	-46939.1	955.818	-29768.1	0.000000	0.000000	6.522865	-0.086181	NaN	0.000000	0.001606	0.001674	28.0834	0.141423	0.001975	71.5934	164.376	173.539	-0.122832	0.521590	-0.548323	-0.549621	-0.086181	71.5934	-0.547421	-1.563949E+7	5.510498E-9	NaN
166	1.000000	0.530899	7.36666e+06	-46939.1	955.819	-29768.1	0.000000	0.000000	6.530875	-0.106771	NaN	0.000000	0.001588	0.001670	28.0831	0.115935	0.001920	60.3884	37.3845	-179.982	0.032307	0.529595	-0.540313	-0.541617	-0.106771	60.3884	-0.538987	-1.194833E+7	8.936085E-9	NaN
166	1.000000	0.538929	7.36666e+06	-46939.1	955.817	-29768.1	0.000000	0.000000	6.538905	-0.097461	NaN	0.000000	0.001542	0.001670	28.0817	0.063806	0.002055	31.0454	123.91	177.238	-0.113624	0.537588	-0.532283	-0.533624	-0.097461	31.0454	-0.529928	-8.94495e+06	1.089560E-8	NaN
166	1.000000	0.546909	7.36666e+06	-46939.1	955.818	-29768.1	0.000000	0.000000	6.546888	-0.019202	NaN	0.000000	0.001526	0.001695	28.0805	0.052274	0.001983	26.3611	40.2383	176.546	-0.043764	0.545625	-0.524303	-0.525587	-0.019202	26.3611	-0.523757	-7.34231e+06	2.615227E-9	NaN
166	1.000000	0.554900	7.36666e+06	-46939.1	955.818	-29768.1	0.000000	0.000000	6.554878	-0.050717	NaN	0.000000	0.001554	0.001691	28.0828	0.080507	0.001913	42.0782	64.8655	175.425	0.007380	0.553622	-0.516312	-0.517590	-0.050717	42.0782	-0.515408	-5.61965e+06	9.025008E-9	NaN
166	1.000000	0.562923	7.36666e+06	-46939.1	955.818	-29768.1	0.000000	0.000000	6.562903	-0.002968	NaN	0.000000	0.001533	0.001671	28.0819	0.078123	0.002000	39.0607	-179.726	177.448	-0.113032	0.561604	-0.508289	-0.509608	-0.002968	39.0607	-0.508232	-4.46458e+06	6.647472E-10	NaN
166	1.000000	0.570941	7.36666e+06	-46939.1	955.818	-29768.1	0.000000	0.000000	6.570921	-0.007388	NaN	0.000000	0.001532	0.001665	28.0809	0.058871	0.002001	29.4152	64.1498	178.083	-0.038672	0.569604	-0.500271	-0.501607	-0.007388	29.4152	-0.500083	-3.43693e+06	2.149674E-9	NaN
166	1.000000	0.578925	7.36666e+06	-46939.1	955.818	-29768.1	0.000000	0.000000	6.578903	-0.058517	NaN	0.000000	0.001594	0.001680	28.083	0.079124	0.002005	39.4573	45.5451	174.962	-0.039441	0.577615	-0.492287	-0.493597	-0.058517	39.4573	-0.491174	-2.58108e+06	2.267145E-8	NaN
166	1.000000	0.586941	7.36666e+06	-46939.1	955.818	-29768.1	0.000000	0.000000	6.586918	-0.059467	NaN	0.000000	0.001562	0.001710	28.0839	0.045559	0.001897	24.0226	73.641	178.57	-0.041110	0.585606	-0.484271	-0.485606	-0.059467	24.0226	-0.482415	-1.94681e+06	3.054605E-8	NaN
166	1.000000	0.594932	7.36666e+06	-46939.1	955.819	-29768.1	0.000000	0.000000	6.594913	0.030223	NaN	0.000000	0.001584	0.001608	28.0831	0.042771	0.001978	21.6244	-15.2222	-179.989	-0.024485	0.593614	-0.476280	-0.477597	0.030223	21.6244	-0.477328	-1.65239e+06	-1.829057E-8	NaN
166	1.000000	0.602936	7.36666e+06	-46939.1	955.818	-29768.1	0.000000	0.000000	6.602917	0.012076	NaN	0.000000	0.001577	0.001665	28.0837	0.066251	0.002061	32.1415	148.886	177.963	0.035695	0.601659	-0.468275	-0.469553	0.012076	32.1415	-0.468557	-1.245e+06	-9.699404E-9	NaN
166	1.000000	0.610928	7.36666e+06	-46939.1	955.818	-29768.1	0.000000	0.000000	6.610907	-0.019721	NaN	0.000000	0.001562	0.001672	28.0829	0.151136	0.002055	73.5349	52.937	176.533	-0.061870	0.609684	-0.460284	-0.461528	-0.019721	73.5349	-0.460083	-946635	2.083252E-8	NaN
166	1.000000	0.618951	7.36666e+06	-46939.1	955.818	-29768.1	0.000000	0.000000	6.618930	-0.029758	NaN	0.000000	0.001552	0.001662	28.0824	0.079478	0.002001	39.7215	-106.616	178.319	-0.079247	0.617630	-0.452261	-0.453582	-0.029758	39.7215	-0.451699	-721550	4.124133E-8	NaN
166	1.000000	0.626955	7.36666e+06	-46939.1	955.818	-29768.1	0.000000	0.000000	6.626934	-0.032765	NaN	0.000000	0.001591	0.001661	28.0812	0.040577	0.001937	20.95	46.7632	178.738	0.020356	0.625662	-0.444257	-0.445550	-0.032765	20.95	-0.443084	-545596	6.005394E-8	NaN
166	1.000000	0.634933	7.36666e+06	-46939.1	955.818	-29768.1	0.000000	0.000000	6.634909	-0.091426	NaN	0.000000	0.001620	0.001687	28.0802	0.071725	0.001990	36.0488	158.834	178.47	-0.058612	0.633634	-0.436279	-0.437578	-0.091426	36.0488	-0.434377	-411106	2.223905E-7	NaN
166	1.000000	0.642957	7.36666e+06	-46939.1	955.818	-29768.1	0.000000	0.000000	6.642932	-0.124985	NaN	0.000000	0.001612	0.001689	28.0794	0.105266	0.001950	53.9713	-110.603	177.198	-0.056448	0.641676	-0.428254	-0.429535	-0.124985	53.9713	-0.426518	-318254	3.927219E-7	NaN
166	1.000000	0.650957	7.36666e+06	-46939.1	955.818	-29768.1	0.000000	0.000000	6.650933	-0.099615	NaN	0.000000	0.001594	0.001666	28.0817	0.091830	0.001955	46.9834	-81.2412	175.221	-0.021992	0.649582	-0.420255	-0.421630	-0.099615	46.9834	-0.418664	-246303	4.044418E-7	NaN
166	1.000000	0.658979	7.36666e+06	-46939.1	955.818	-29768.1	0.000000	0.000000	6.658957	-0.055180	NaN	0.000000	0.001573	0.001663	28.0811	0.061015	0.002090	29.193	10.9904	177.362	-0.081842	0.657693	-0.412233	-0.413519	-0.055180	29.193	-0.410815	-190541	2.895985E-7	NaN
166	1.000000	0.666956	7.36666e+06	-46939.1	955.818	-29768.1	0.000000	0.000000	6.666935	-0.017065	NaN	0.000000	0.001586	0.001676	28.0829	0.046887	0.001974	23.7556	-147.717	176.809	0.000144	0.665667	-0.404256	-0.405545	-0.017065	23.7556	-0.403717	-151001	1.130105E-7	NaN
166	1.000000	0.674938	7.36666e+06	-46939.1	955.819	-29768.1	0.000000	0.000000	6.674916	-0.052663	NaN	0.000000	0.001578	0.001691	28.0824	0.012132	0.002000	6.067185	-70.6348	176.934	-0.087403	0.673640	-0.396274	-0.397572	-0.052663	6.067185	-0.389764	-95451.9	5.517245E-7	NaN
166	1.000000	0.682992	7.36666e+06	-46939.1	955.819	-29768.1	0.000000	0.000000	6.682969	-0.078415	NaN	0.000000	0.001632	0.001631	28.0822	0.045876	0.001989	23.0631	-70.8024	177.785	-0.049159	0.681682	-0.388219	-0.389530	-0.078415	23.0631	-0.385669	-83402.1	9.402084E-7	NaN
166	1.000000	0.690964	7.36666e+06	-46939.1	955.819	-29768.1	0.000000	0.000000	6.690943	-0.012670	NaN	0.000000	0.001616	0.001739	28.0808	0.044008	0.001875	23.467	-39.4648	174.418	-0.000968	0.689651	-0.380248	-0.381561	-0.012670	23.467	-0.379843	-68808.4	1.841314E-7	NaN
166	1.000000	0.699006	7.36666e+06	-46939.1	955.818	-29768.1	0.000000	0.000000	6.698986	-0.003883	NaN	0.000000	0.001588	0.001716	28.081	0.030784	0.001972	15.6076	13.4511	-179.245	0.002370	0.697646	-0.372206	-0.373566	-0.003883	15.6076	-0.372019	-53112.3	7.310125E-8	NaN
166	1.000000	0.706972	7.36666e+06	-46939.1	955.818	-29768.1	0.000000	0.000000	6.706949	-0.068510	NaN	0.000000	0.001567	0.001712	28.0809	0.093672	0.002000	46.8253	76.7398	175.32	-0.039412	0.705692	-0.364240	-0.365519	-0.068510	46.8253	-0.363143	-39559.5	1.731836E-6	NaN
166	1.000000	0.714973	7.36666e+06	-46939.1	955.818	-29768.1	0.000000	0.000000	6.714951	-0.036848	NaN	0.000000	0.001555	0.001733	28.0806	0.074070	0.002070	35.7768	-62.6629	178.548	0.064346	0.713643	-0.356239	-0.357568	-0.036848	35.7768	-0.355467	-30637.7	1.202692E-6	NaN
166	1.000000	0.722966	7.36666e+06	-46939.1	955.817	-29768.1	0.000000	0.000000	6.722944	-0.057118	NaN	0.000000	0.001556	0.001736	28.0786	0.048924	0.001912	25.592	168.703	176.642	0.024293	0.721697	-0.348246	-0.349515	-0.057118	25.592	-0.346572	-22762.1	2.509368E-6	NaN
166	1.000000	0.730988	7.36666e+06	-46939.1	955.818	-29768.1	0.000000	0.000000	6.730966	-0.073244	NaN	0.000000	0.001581	0.001737	28.0808	0.065614	0.002034	32.2569	-121.142	177.836	-0.080974	0.729710	-0.340223	-0.341502	-0.073244	32.2569	-0.338520	-17377.1	4.214978E-6	NaN
166	1.000000	0.738998	7.36666e+06	-46939.1	955.819	-29768.1	0.000000	0.000000	6.738973	-0.126317	NaN	0.000000	0.001578	0.001749	28.0817	0.089897	0.001912	47.0216	68.9735	172.997	-0.051860	0.737683	-0.332213	-0.333529	-0.126317	47.0216	-0.330199	-13132.9	9.618325E-6	NaN
166	1.000000	0.746995	7.36666e+06	-46939.1	955.818	-29768.1	0.000000	0.000000	6.746974	-0.028269	NaN	0.000000	0.001625	0.001698	28.082	0.064594	0.002016	32.0473	72.2651	178.814	-0.078961	0.745698	-0.324216	-0.325514	-0.028269	32.0473	-0.323555	-10493.3	2.693980E-6	NaN
166	1.000000	0.755012	7.36666e+06	-46939.1	955.818	-29768.1	0.000000	0.000000	6.754989	-0.084448	NaN	0.000000	0.001555	0.001716	28.0804	0.084669	0.002166	39.0937	75.0396	176.688	-0.057021	0.753686	-0.316200	-0.317526	-0.084448	39.0937	-0.314580	-7740.07	1.091055E-5	NaN
166	1.000000	0.762997	7.36666e+06	-46939.1	955.819	-29768.1	0.000000	0.000000	6.762973	-0.079802	NaN	0.000000	0.001573	0.001724	28.0816	0.105244	0.001912	55.051	38.6403	176.876	-0.017601	0.761720	-0.308215	-0.309492	-0.079802	55.051	-0.307128	-6005.1	1.328913E-5	NaN
166	1.000000	0.771017	7.36666e+06	-46939.1	955.818	-29768.1	0.000000	0.000000	6.770996	-0.007992	NaN	0.000000	0.001564	0.001755	28.0821	0.022266	0.001987	11.2081	175.499	178.864	-0.017576	0.769699	-0.300195	-0.301513	-0.007992	11.2081	-0.299660	-4651.37	1.718107E-6	NaN
166	1.000000	0.779011	7.36666e+06	-46939.1	955.818	-29768.1	0.000000	0.000000	6.778988	-0.090705	NaN	0.000000	0.001583	0.001761	28.0821	0.144341	0.002030	71.0955	164.772	177.525	-0.122063	0.777727	-0.292201	-0.293485	-0.090705	71.0955	-0.291244	-3482.79	2.604391E-5	NaN
166	1.000000	0.787027	7.36667e+06	-46939.1	955.817	-29768.1	0.000000	0.000000	6.787005	-0.048964	NaN	0.000000	0.001553	0.001750	28.0831	0.103701	0.002008	51.6401	-169.852	177.365	-0.014736	0.785707	-0.284185	-0.285505	-0.048964	51.6401	-0.283474	-2662.65	1.838927E-5	NaN
166	1.000000	0.795013	7.36667e+06	-46939.1	955.819	-29768.1	0.000000	0.000000	6.794991	-0.049361	NaN	0.000000	0.001574	0.001742	28.0826	0.041437	0.001887	21.9588	146.947	175.4	0.020701	0.793699	-0.276199	-0.277513	-0.049361	21.9588	-0.274513	-1949.95	2.531398E-5	NaN
166	1.000000	0.803046	7.36667e+06	-46939.1	955.819	-29768.1	0.000000	0.000000	6.803025	-0.037713	NaN	0.000000	0.001578	0.001721	28.0825	0.079780	0.002088	38.2112	-166.263	178.805	0.015240	0.801705	-0.268165	-0.269506	-0.037713	38.2112	-0.267425	-1521.83	2.478126E-5	NaN
166	1.000000	0.810996	7.36667e+06	-46939.1	955.817	-29768.1	0.000000	0.000000	6.810974	-0.061987	NaN	0.000000	0.001602	0.001732	28.0821	0.115126	0.002125	54.1775	-151.98	175.674	-0.074600	0.809690	-0.260215	-0.261522	-0.061987	54.1775	-0.259357	-1145.68	5.410497E-5	NaN
166	1.000000	0.819042	7.36667e+06	-46939.1	955.819	-29768.1	0.000000	0.000000	6.819021	-0.041170	NaN	0.000000	0.001621	0.001711	28.0827	0.064760	0.002041	31.7357	-46.2598	-179.697	-0.050659	0.817716	-0.252170	-0.253495	-0.041170	31.7357	-0.251197	-857.953	4.798623E-5	NaN
166	1.000000	0.827042	7.36667e+06	-46939.1	955.818	-29768.1	0.000000	0.000000	6.827022	0.009007	NaN	0.000000	0.001580	0.001718	28.0829	0.078755	0.001928	40.8424	-65.4729	175.721	-0.069774	0.825733	-0.244170	-0.245479	0.009007	40.8424	-0.244335	-671.612	-1.341096E-5	NaN
166	1.000000	0.835036	7.36667e+06	-46939.1	955.818	-29768.1	0.000000	0.000000	6.835016	-0.001653	NaN	0.000000	0.001606	0.001737	28.0835	0.032388	0.002001	16.1858	-31.429	175.165	0.030840	0.833674	-0.236176	-0.237537	-0.001653	16.1858	-0.236099	-499.463	3.309555E-6	NaN
166	1.000000	0.843043	7.36667e+06	-46939.1	955.818	-29768.1	0.000000	0.000000	6.843022	-0.028495	NaN	0.000000	0.001601	0.001731	28.0833	0.085036	0.001801	47.2158	91.9793	174.811	0.005138	0.841699	-0.228169	-0.229513	-0.028495	47.2158	-0.227716	-368.476	7.733082E-5	NaN
166	1.000000	0.851053	7.36667e+06	-46939.1	955.818	-29768.1	0.000000	0.000000	6.851032	-0.043953	NaN	0.000000	0.001647	0.001725	28.084	0.020164	0.001933	10.4335	153.307	179.501	-0.024577	0.849756	-0.220158	-0.221456	-0.043953	10.4335	-0.216999	-248.67	0.000177	NaN
166	1.000000	0.859056	7.36667e+06	-46939.1	955.818	-29768.1	0.000000	0.000000	6.859032	-0.093820	NaN	0.000000	0.001631	0.001750	28.0819	0.049046	0.001971	24.8831	12.7222	174.666	-0.057000	0.857707	-0.212156	-0.213505	-0.093820	24.8831	-0.209328	-187.041	0.000502	NaN
166	1.000000	0.867052	7.36667e+06	-46939.1	955.818	-29768.1	0.000000	0.000000	6.867034	0.040896	NaN	0.000000	0.001613	0.001746	28.0815	0.046949	0.001982	23.686	125.497	177.268	-0.022987	0.865721	-0.204160	-0.205491	0.040896	23.686	-0.205454	-161.797	-0.000253	NaN
166	1.000000	0.875035	7.36667e+06	-46939.1	955.818	-29768.1	0.000000	0.000000	6.875014	-0.012068	NaN	0.000000	0.001635	0.001748	28.0819	0.085821	0.001984	43.2591	147.307	-178.498	-0.087810	0.873738	-0.196177	-0.197474	-0.012068	43.2591	-0.195968	-113.037	0.000107	NaN
166	1.000000	0.883085	7.36667e+06	-46939.1	955.818	-29768.1	0.000000	0.000000	6.883062	-0.071229	NaN	0.000000	0.001588	0.001764	28.0819	0.013036	0.002070	6.298720	127.973	175.327	-0.054189	0.881751	-0.188127	-0.189460	-0.071229	6.298720	-0.179646	-60.1777	0.001184	NaN
166	1.000000	0.891059	7.36667e+06	-46939.1	955.818	-29768.1	0.000000	0.000000	6.891038	-0.013265	NaN	0.000000	0.001622	0.001776	28.0822	0.140624	0.002021	69.5756	168.756	178.658	-0.055911	0.889735	-0.180153	-0.181477	-0.013265	69.5756	-0.180010	-61.0438	0.000217	NaN
166	1.000000	0.899080	7.36667e+06	-46939.1	955.818	-29768.1	0.000000	0.000000	6.899059	-0.037166	NaN	0.000000	0.001597	0.001751	28.082	0.023641	0.001946	12.1492	63.8561	176.571	-0.009430	0.897759	-0.172132	-0.173453	-0.037166	12.1492	-0.169838	-40.8125	0.000911	NaN
166	1.000000	0.907086	7.36667e+06	-46939.1	955.818	-29768.1	0.000000	0.000000	6.907063	-0.061918	NaN	0.000000	0.001573	0.001743	28.0819	0.035931	0.002028	17.7156	-87.4071	175.718	0.053576	0.905778	-0.164126	-0.165434	-0.061918	17.7156	-0.161505	-29.1526	0.002124	NaN
166	1.000000	0.915081	7.36667e+06	-46939.1	955.818	-29768.1	0.000000	0.000000	6.915059	-0.044096	NaN	0.000000	0.001578	0.001713	28.0827	0.123081	0.001952	63.0398	-88.2729	173.5	-0.110270	0.913723	-0.156131	-0.157489	-0.044096	63.0398	-0.155607	-22.8817	0.001927	NaN
166	1.000000	0.923072	7.36667e+06	-46939.1	955.817	-29768.1	0.000000	0.000000	6.923051	-0.034290	NaN	0.000000	0.001561	0.001714	28.0816	0.006892	0.001957	3.521918	127.388	179.036	0.040397	0.921729	-0.148139	-0.149483	-0.034290	3.521918	-0.140837	-12.2652	0.002796	NaN
166	1.000000	0.931066	7.36667e+06	-46939.1	955.818	-29768.1	0.000000	0.000000	6.931044	-0.037016	NaN	0.000000	0.001576	0.001747	28.082	0.110691	0.001900	58.2722	14.0934	179.761	-0.008939	0.929742	-0.140146	-0.141470	-0.037016	58.2722	-0.139670	-11.6617	0.003174	NaN
166	1.000000	0.939069	7.36667e+06	-46939.1	955.818	-29768.1	0.000000	0.000000	6.939047	-0.039056	NaN	0.000000	0.001571	0.001767	28.0812	0.126744	0.002012	62.9803	118.735	178.907	-0.015387	0.937776	-0.132143	-0.133436	-0.039056	62.9803	-0.131678	-8.213110	0.004755	NaN
166	1.000000	0.947065	7.36667e+06	-46939.1	955.818	-29768.1	0.000000	0.000000	6.947042	-0.079685	NaN	0.000000	0.001569	0.001699	28.0806	0.009644	0.001992	4.841176	102.866	-179.548	-0.165495	0.945744	-0.124147	-0.125468	-0.079685	4.841176	-0.111802	-3.278759	0.024303	NaN
166	1.000000	0.955080	7.36667e+06	-46939.1	955.818	-29768.1	0.000000	0.000000	6.955058	-0.037227	NaN	0.000000	0.001596	0.001704	28.0821	0.048590	0.002040	23.8145	-140.843	176.493	-0.081530	0.953753	-0.116132	-0.117459	-0.037227	23.8145	-0.114960	-3.813042	0.009763	NaN
166	1.000000	0.963115	7.36667e+06	-46939.1	955.818	-29768.1	0.000000	0.000000	6.963092	-0.081303	NaN	0.000000	0.001590	0.001723	28.0814	0.057322	0.002023	28.3298	115.912	177.375	-0.023705	0.961765	-0.108097	-0.109447	-0.081303	28.3298	-0.105945	-2.463371	0.033005	NaN
166	1.000000	0.971125	7.36667e+06	-46939.1	955.818	-29768.1	0.000000	0.000000	6.971102	-0.082005	NaN	0.000000	0.001602	0.001752	28.0809	0.119819	0.002008	59.685	176.73	-178.524	-0.023129	0.969793	-0.100087	-0.101419	-0.082005	59.685	-0.099056	-1.740994	0.047102	NaN
166	1.000000	0.979088	7.36667e+06	-46939.1	955.818	-29768.1	0.000000	0.000000	6.979064	-0.102283	NaN	0.000000	0.001585	0.001728	28.0836	0.075224	0.001968	38.2219	-71.7584	178.534	-0.076766	0.977770	-0.092123	-0.093442	-0.102283	38.2219	-0.090116	-1.087796	0.094028	NaN
166	1.000000	0.987089	7.36667e+06	-46939.1	955.82	-29768.1	0.000000	0.000000	6.987065	-0.093892	NaN	0.000000	0.001585	0.001745	28.0823	0.059860	0.001996	29.986	146.023	177.268	-0.052673	0.985813	-0.084123	-0.085399	-0.093892	29.986	-0.081775	-0.685177	0.137034	NaN
166	1.000000	0.995121	7.36667e+06	-46939.1	955.818	-29768.1	0.000000	0.000000	6.995101	0.003263	NaN	0.000000	0.001586	0.001742	28.0822	0.097014	0.001942	49.958	-126.573	177.964	-0.026669	0.993770	-0.076091	-0.077442	0.003263	49.958	-0.076140	-0.494200	-0.006602	NaN
166	1.000000	1.003107	7.36667e+06	-46939.1	955.818	-29768.1	0.000000	0.000000	7.003084	-0.064085	NaN	0.000000	0.001623	0.001710	28.0811	0.081683	0.002142	38.143	-34.0455	176.434	-0.129992	1.001776	-0.068105	-0.069436	-0.064085	38.143	-0.066845	-0.280172	0.228734	NaN
166	1.000000	1.011099	7.36667e+06	-46939.1	955.818	-29768.1	0.000000	0.000000	7.011077	-0.042778	NaN	0.000000	0.001679	0.001715	28.0823	0.096745	0.002034	47.5627	-37.7763	175.81	-0.041682	1.009825	-0.060113	-0.061387	-0.042778	47.5627	-0.059438	-0.173524	0.246522	NaN
166	1.000000	1.019110	7.36667e+06	-46939.1	955.818	-29768.1	0.000000	0.000000	7.019089	-0.021621	NaN	0.000000	0.001663	0.001727	28.0805	0.080616	0.002126	37.9247	-66.1491	-179.152	-0.077104	1.017799	-0.052102	-0.053413	-0.021621	37.9247	-0.051675	-0.102499	0.210936	NaN
166	1.000000	1.027125	7.36667e+06	-46939.1	955.818	-29768.1	0.000000	0.000000	7.027103	-0.048585	NaN	0.000000	0.001678	0.001735	28.0816	0.075379	0.001970	38.2616	-10.4492	179.171	-0.033106	1.025803	-0.044087	-0.045408	-0.048585	38.2616	-0.043135	-0.056357	0.862104	NaN
166	1.000000	1.035108	7.36667e+06	-46939.1	955.818	-29768.1	0.000000	0.000000	7.035084	-0.107566	NaN	0.000000	0.001670	0.001704	28.082	0.063893	0.001913	33.3909	152.52	-178.997	-0.076234	1.033776	-0.036104	-0.037436	-0.107566	33.3909	-0.033688	-0.029314	3.669488	NaN
166	1.000000	1.043111	7.36667e+06	-46939.1	955.819	-29768.1	0.000000	0.000000	7.043088	-0.075135	NaN	0.000000	0.001663	0.001714	28.0828	0.044163	0.001985	22.2537	106.791	174.23	-0.112415	1.041872	-0.028101	-0.029340	-0.075135	22.2537	-0.025569	-0.017460	4.303342	NaN
166	1.000000	1.051135	7.36667e+06	-46939.1	955.819	-29768.1	0.000000	0.000000	7.051111	-0.093194	NaN	0.000000	0.001666	0.001761	28.0815	0.163050	0.001872	87.0779	-35.6087	175.06	-0.074016	1.049841	-0.020077	-0.021371	-0.093194	87.0779	-0.019274	-0.012037	7.742120	NaN
166	1.000000	1.059133	7.36667e+06	-46939.1	955.818	-29768.1	0.000000	0.000000	7.059112	-0.013719	NaN	0.000000	0.001654	0.001743	28.0832	0.100744	0.001960	51.4027	-135.141	177.879	-0.060038	1.057807	-0.012079	-0.013405	-0.013719	51.4027	-0.011879	-0.007459	1.839166	NaN
166	1.000000	1.067113	7.36667e+06	-46939.1	955.819	-29768.1	0.000000	0.000000	7.067091	-0.043875	NaN	0.000000	0.001628	0.001712	28.0815	0.068822	0.002058	33.4409	-146.087	177.577	-0.059484	1.065790	-0.004099	-0.005421	-0.043875	33.4409	-0.003115	-0.002197	19.9673	NaN
166	1.000000	1.075112	7.36667e+06	-46939.1	955.818	-29768.1	0.000000	0.000000	7.075208	2.809002	NaN	0.000000	0.001582	0.001743	28.0844	3.662609	0.001859	1970.13	8.215208	176.073	1.418010	1.073795	0.003900	0.002583	2.809002	1970.13	0.002831	0.002238	1255.08	38047.7
166	2.000000	1.080791	7.36667e+06	-46939.1	955.817	-29768.1	0.000000	0.000000	7.081124	8.585686	NaN	0.000000	0.001569	0.001751	28.0835	9.112689	0.001638	5562.97	4.028855	172.806	8.914147	1.080518	0.009580	0.009306	8.585686	5562.97	0.008422	0.007480	1147.82	58766.5
166	2.000000	1.082734	7.36667e+06	-46939.1	955.818	-29768.1	0.000000	0.000000	7.083247	12.9601	NaN	0.000000	0.001615	0.001737	28.0844	11.2684	0.001633	6900.01	4.045439	170.653	11.6797	1.082384	0.011522	0.011173	12.9601	6900.01	0.010113	0.009308	1392.4	65343.2
166	2.000000	1.084702	7.36667e+06	-46939.1	955.818	-29768.1	0.000000	0.000000	7.085280	14.5286	NaN	0.000000	0.001575	0.001730	28.0823	13.9021	0.001785	7787.77	7.777337	166.3	12.9893	1.084454	0.013490	0.013242	14.5286	7787.77	0.012091	0.011600	1252.51	66064.2
166	2.000000	1.086765	7.36667e+06	-46939.1	955.819	-29768.1	0.000000	0.000000	7.087469	17.5957	NaN	0.000000	0.001585	0.001749	28.0831	16.2603	0.001847	8802.92	8.377585	166.066	17.6371	1.086440	0.015554	0.015228	17.5957	8802.92	0.014054	0.014045	1252.79	67863.6
166	2.000000	1.088713	7.36667e+06	-46939.1	955.818	-29768.1	0.000000	0.000000	7.089541	20.6353	NaN	0.000000	0.001569	0.001737	28.0824	18.0644	0.001802	10022	6.906416	166.929	19.8995	1.088391	0.017501	0.017179	20.6353	10022	0.015957	0.016582	1244.42	71105.9
166	2.000000	1.090735	7.36667e+06	-46939.1	955.818	-29768.1	0.000000	0.000000	7.091738	24.8756	NaN	0.000000	0.001584	0.001731	28.0819	19.9128	0.001783	11168.3	5.085881	168.274	25.2976	1.090339	0.019523	0.019127	24.8756	11168.3	0.017853	0.019280	1290.23	73486.3
166	2.000000	1.092710	7.36667e+06	-46939.1	955.819	-29768.1	0.000000	0.000000	7.093884	29.0381	NaN	0.000000	0.001623	0.001722	28.0829	21.8925	0.001867	11725.7	6.478688	166.245	28.1357	1.092370	0.021498	0.021158	29.0381	11725.7	0.019641	0.021981	1321.06	72258.4
166	2.000000	1.094692	7.36667e+06	-46939.1	955.818	-29768.1	0.000000	0.000000	7.096125	35.3434	NaN	0.000000	0.001579	0.001714	28.0846	24.6953	0.001782	13856.2	9.087309	160.957	35.4193	1.094372	0.023480	0.023160	35.3434	13856.2	0.021567	0.025065	1410.08	79961.9
166	2.000000	1.096704	7.36667e+06	-46939.1	955.819	-29768.1	0.000000	0.000000	7.098317	39.7185	NaN	0.000000	0.001595	0.001735	28.0833	25.9592	0.001671	15531.1	6.491461	162.78	39.1765	1.096389	0.025493	0.025177	39.7185	15531.1	0.023575	0.028473	1394.94	84092.6
166	2.000000	1.098652	7.36667e+06	-46939.1	955.819	-29768.1	0.000000	0.000000	7.100473	44.7681	NaN	0.000000	0.001561	0.001744	28.0835	28.3234	0.001840	15394.4	6.800047	161.832	43.765	1.098322	0.027440	0.027110	44.7681	15394.4	0.025259	0.031489	1421.71	79260.6
166	2.000000	1.100675	7.36667e+06	-46939.1	955.819	-29768.1	0.000000	0.000000	7.102634	48.135	NaN	0.000000	0.001560	0.001709	28.0826	30.5421	0.001762	17331.5	4.176610	162.011	46.6879	1.100435	0.029463	0.029223	48.135	17331.5	0.027380	0.035488	1356.36	84055.5
166	2.000000	1.102609	7.36667e+06	-46939.1	955.818	-29768.1	0.000000	0.000000	7.104843	54.8074	NaN	0.000000	0.001572	0.001759	28.0833	31.7746	0.001637	19410.3	7.538778	158.515	52.3	1.102264	0.031397	0.031053	54.8074	19410.3	0.029280	0.039264	1395.86	89496.9
166	2.000000	1.104654	7.36667e+06	-46939.1	955.818	-29768.1	0.000000	0.000000	7.107126	60.6046	NaN	0.000000	0.001594	0.001758	28.0817	34.8466	0.001818	19172.2	6.954056	160.366	58.6845	1.104287	0.033443	0.033075	60.6046	19172.2	0.031072	0.042994	1409.59	84477.2
166	2.000000	1.106653	7.36667e+06	-46939.1	955.819	-29768.1	0.000000	0.000000	7.109361	66.3643	NaN	0.000000	0.001604	0.001746	28.0805	36.7837	0.001840	19993.6	8.671174	158.048	64.1201	1.106373	0.035441	0.035161	66.3643	19993.6	0.032952	0.047084	1409.49	84183.6
166	2.000000	1.108624	7.36667e+06	-46939.1	955.818	-29768.1	0.000000	0.000000	7.111592	72.6868	NaN	0.000000	0.001602	0.001713	28.0819	37.9158	0.001628	23284.4	3.413592	160.416	69.6377	1.108326	0.037412	0.037114	72.6868	23284.4	0.035070	0.051910	1400.25	93371.3
166	2.000000	1.110632	7.36667e+06	-46939.1	955.818	-29768.1	0.000000	0.000000	7.113914	80.3071	NaN	0.000000	0.001600	0.001682	28.0808	40.187	0.001810	22198.9	0.762354	164.821	77.8811	1.110335	0.039420	0.039123	80.3071	22198.9	0.036707	0.055795	1439.32	85863
166	2.000000	1.112625	7.36667e+06	-46939.1	955.819	-29768.1	0.000000	0.000000	7.116302	89.924	NaN	0.000000	0.001596	0.001736	28.0821	41.9662	0.001737	24166.5	2.779227	161.538	87.8624	1.112313	0.041413	0.041101	89.924	24166.5	0.038623	0.060517	1485.93	89752.8
166	2.000000	1.114551	7.36667e+06	-46939.1	955.818	-29768.1	0.000000	0.000000	7.118531	97.2937	NaN	0.000000	0.001597	0.001734	28.0822	45.0789	0.001758	25641.3	6.199965	157.71	92.852	1.114310	0.043339	0.043098	97.2937	25641.3	0.040493	0.065310	1489.73	91669.4
166	2.000000	1.116634	7.36667e+06	-46939.1	955.819	-29768.1	0.000000	0.000000	7.121106	109.271	NaN	0.000000	0.001636	0.001743	28.0811	46.578	0.001849	25195.3	6.162766	158.998	106.693	1.116316	0.045422	0.045104	109.271	25195.3	0.042169	0.069754	1566.51	87158.1
166	2.000000	1.118672	7.36667e+06	-46939.1	955.818	-29768.1	0.000000	0.000000	7.123309	113.26	NaN	0.000000	0.001588	0.001745	28.081	48.2721	0.001822	26499.8	4.725652	158.856	114.524	1.118345	0.047460	0.047133	113.26	26499.8	0.044255	0.075486	1500.41	88121.6
166	2.000000	1.120608	7.36667e+06	-46939.1	955.819	-29768.1	0.000000	0.000000	7.125724	124.928	NaN	0.000000	0.001614	0.001739	28.0817	51.4718	0.001955	26322.6	5.954270	158.105	122.257	1.120241	0.049396	0.049029	124.928	26322.6	0.045837	0.079980	1561.99	85037.5
166	2.000000	1.122578	7.36667e+06	-46939.1	955.818	-29768.1	0.000000	0.000000	7.128074	134.192	NaN	0.000000	0.001618	0.001708	28.0833	51.1876	0.001706	29997.1	0.848111	161.865	131.141	1.122362	0.051366	0.051151	134.192	29997.1	0.048011	0.086363	1553.81	93258.5
166	2.000000	1.124573	7.36667e+06	-46939.1	955.818	-29768.1	0.000000	0.000000	7.130536	145.528	NaN	0.000000	0.001636	0.001730	28.0807	53.9787	0.001936	27887.9	3.875142	160.202	142.283	1.124274	0.053361	0.053062	145.528	27887.9	0.049447	0.090711	1604.3	84597.6
166	2.000000	1.126672	7.36667e+06	-46939.1	955.818	-29768.1	0.000000	0.000000	7.133203	159.345	NaN	0.000000	0.001658	0.001748	28.0804	55.2882	0.001683	32853.1	6.419279	156.217	158.408	1.126153	0.055460	0.054941	159.345	32853.1	0.051822	0.098129	1623.83	95818.7
166	2.000000	1.128562	7.36667e+06	-46939.1	955.817	-29768.1	0.000000	0.000000	7.135316	164.779	NaN	0.000000	0.001627	0.001735	28.0809	56.574	0.001721	32872.6	2.563199	159.819	161.331	1.128309	0.057350	0.057098	164.779	32872.6	0.053591	0.103834	1586.96	93204.8
166	2.000000	1.130671	7.36667e+06	-46939.1	955.818	-29768.1	0.000000	0.000000	7.137784	173.496	NaN	0.000000	0.001654	0.001724	28.0809	60.5188	0.001860	32530.5	3.008116	159.403	174.513	1.130284	0.059459	0.059072	173.496	32530.5	0.055459	0.110031	1576.8	89599.8
166	2.000000	1.132672	7.36667e+06	-46939.1	955.818	-29768.1	0.000000	0.000000	7.140172	182.905	NaN	0.000000	0.001707	0.001725	28.0808	61.6459	0.001745	35320.8	4.861724	156.24	185.736	1.132358	0.061460	0.061146	182.905	35320.8	0.057576	0.117261	1559.81	94238.3
166	2.000000	1.134593	7.36667e+06	-46939.1	955.817	-29768.1	0.000000	0.000000	7.142485	192.461	NaN	0.000000	0.001645	0.001729	28.0831	63.5109	0.001795	35376.2	3.288914	157.98	190.342	1.134411	0.063381	0.063199	192.461	35376.2	0.059300	0.123312	1560.77	92041.1
166	2.000000	1.136640	7.36667e+06	-46939.1	955.818	-29768.1	0.000000	0.000000	7.145061	205.313	NaN	0.000000	0.001613	0.001737	28.0827	66.3859	0.001839	36099.4	7.099064	154.437	205.198	1.136232	0.065428	0.065020	205.313	36099.4	0.061162	0.130009	1579.22	91471.6
166	2.000000	1.138594	7.36667e+06	-46939.1	955.818	-29768.1	0.000000	0.000000	7.147451	215.922	NaN	0.000000	0.001629	0.001742	28.0833	66.7984	0.001843	36253	1.982840	159.387	213.624	1.138375	0.067382	0.067163	215.922	36253	0.062915	0.136469	1582.21	89660.5
166	2.000000	1.140568	7.36667e+06	-46939.1	955.818	-29768.1	0.000000	0.000000	7.149915	227.849	NaN	0.000000	0.001595	0.001739	28.0845	69.2483	0.001733	39954.9	2.633170	157.881	225.347	1.140292	0.069356	0.069080	227.849	39954.9	0.065079	0.144650	1575.18	95980.7
166	2.000000	1.142616	7.36667e+06	-46939.1	955.818	-29768.1	0.000000	0.000000	7.152482	240.471	NaN	0.000000	0.001631	0.001742	28.0831	70.1659	0.001846	38006.9	1.614129	159.863	238.12	1.142301	0.071404	0.071089	240.471	38006.9	0.066659	0.150763	1595.02	89430.9
166	2.000000	1.144539	7.36667e+06	-46939.1	955.818	-29768.1	0.000000	0.000000	7.154965	254.086	NaN	0.000000	0.001655	0.001703	28.0829	74.2699	0.001874	39633.2	5.867779	155.118	249.658	1.144229	0.073328	0.073018	254.086	39633.2	0.068519	0.158117	1606.95	91063.3
166	2.000000	1.146610	7.36667e+06	-46939.1	955.818	-29768.1	0.000000	0.000000	7.157571	267.109	NaN	0.000000	0.001607	0.001726	28.0823	75.9112	0.001699	44692.5	6.614898	153.576	265.166	1.146198	0.075398	0.074986	267.109	44692.5	0.070916	0.167833	1591.52	99671.1
166	2.000000	1.148621	7.36667e+06	-46939.1	955.819	-29768.1	0.000000	0.000000	7.160099	279.69	NaN	0.000000	0.001608	0.001765	28.082	77.897	0.001736	44860.7	5.304960	154.855	280.288	1.148282	0.077409	0.077070	279.69	44860.7	0.072733	0.175384	1594.73	97868.9
166	2.000000	1.150592	7.36667e+06	-46939.1	955.818	-29768.1	0.000000	0.000000	7.162373	287.037	NaN	0.000000	0.001589	0.001725	28.0832	80.6014	0.001864	43239.8	1.799755	157.951	284.424	1.150406	0.079380	0.079194	287.037	43239.8	0.074402	0.182452	1573.22	92487.3
166	2.000000	1.152509	7.36667e+06	-46939.1	955.82	-29768.1	0.000000	0.000000	7.165083	306.333	NaN	0.000000	0.001671	0.001711	28.0811	81.2318	0.001743	46605.6	3.731271	155.044	300.774	1.152198	0.081297	0.080987	306.333	46605.6	0.076368	0.190951	1604.25	97443
166	2.000000	1.154503	7.36667e+06	-46939.1	955.818	-29768.1	0.000000	0.000000	7.167889	326.093	NaN	0.000000	0.001629	0.001761	28.083	83.114	0.001666	49890.2	5.450435	154.042	321.547	1.154173	0.083291	0.082961	326.093	49890.2	0.078388	0.199875	1631.48	101955
166	2.000000	1.156618	7.36667e+06	-46939.1	955.818	-29768.1	0.000000	0.000000	7.170546	339.259	NaN	0.000000	0.001645	0.001762	28.0843	85.9688	0.001767	48640.8	3.839075	154.983	335.887	1.156230	0.085406	0.085018	339.259	48640.8	0.080175	0.207924	1631.64	97458.9
166	2.000000	1.158547	7.36667e+06	-46939.1	955.818	-29768.1	0.000000	0.000000	7.172780	346.695	NaN	0.000000	0.001632	0.001782	28.0824	87.8307	0.001781	49307.3	3.301198	155.263	340.932	1.158246	0.087335	0.087034	346.695	49307.3	0.082062	0.216584	1600.74	96799.1
166	2.000000	1.160611	7.36667e+06	-46939.1	955.818	-29768.1	0.000000	0.000000	7.175532	363.429	NaN	0.000000	0.001610	0.001772	28.083	90.288	0.001736	52017.5	0.822023	157.74	363.386	1.160381	0.089399	0.089169	363.429	52017.5	0.084159	0.226405	1605.22	99880.3
166	2.000000	1.162540	7.36667e+06	-46939.1	955.818	-29768.1	0.000000	0.000000	7.177991	376.307	NaN	0.000000	0.001617	0.001713	28.0842	91.9839	0.001771	51938.4	4.426786	153.893	371.724	1.162395	0.091328	0.091183	376.307	51938.4	0.085895	0.234687	1603.44	97952.8
166	2.000000	1.164612	7.36667e+06	-46939.1	955.819	-29768.1	0.000000	0.000000	7.180913	396.994	NaN	0.000000	0.001646	0.001749	28.0819	95.3542	0.001752	54417.8	8.022495	149.782	395.965	1.164183	0.093401	0.092971	396.994	54417.8	0.087929	0.244572	1623.22	100533
166	2.000000	1.166526	7.36667e+06	-46939.1	955.819	-29768.1	0.000000	0.000000	7.183313	408.809	NaN	0.000000	0.001632	0.001734	28.0827	96.3652	0.001696	56833.9	2.432336	155.22	402.027	1.166226	0.095314	0.095014	408.809	56833.9	0.089919	0.254427	1606.78	102944
166	2.000000	1.168512	7.36667e+06	-46939.1	955.819	-29768.1	0.000000	0.000000	7.185731	419.335	NaN	0.000000	0.001629	0.001754	28.0828	98.9947	0.001799	55035.8	4.012439	153.7	414.591	1.168333	0.097300	0.097122	419.335	55035.8	0.091585	0.262814	1595.56	98083.1
166	2.000000	1.170621	7.36667e+06	-46939.1	955.818	-29768.1	0.000000	0.000000	7.188432	433.722	NaN	0.000000	0.001614	0.001782	28.0826	100.788	0.001807	55784.4	1.615529	156.285	433.004	1.170363	0.099409	0.099151	433.722	55784.4	0.093578	0.273015	1588.64	97542.4
166	2.000000	1.172570	7.36667e+06	-46939.1	955.818	-29768.1	0.000000	0.000000	7.191586	463.021	NaN	0.000000	0.001617	0.001775	28.0808	101.202	0.001793	56428.6	4.211939	154.6	460.531	1.172187	0.101358	0.100975	463.021	56428.6	0.095204	0.281474	1644.99	97174.8
166	2.000000	1.174591	7.36667e+06	-46939.1	955.818	-29768.1	0.000000	0.000000	7.193982	472.137	NaN	0.000000	0.001597	0.001771	28.082	106.071	0.001727	61421.5	9.717997	147.257	473.485	1.174232	0.103379	0.103020	472.137	61421.5	0.097614	0.294230	1604.65	103455
166	2.000000	1.176465	7.36667e+06	-46939.1	955.818	-29768.1	0.000000	0.000000	7.196561	489.307	NaN	0.000000	0.001611	0.001779	28.0809	106.489	0.001900	56055.2	2.240918	156.082	481.166	1.176245	0.105253	0.105034	489.307	56055.2	0.098707	0.300100	1630.48	93488.1
166	2.000000	1.178450	7.36667e+06	-46939.1	955.818	-29768.1	0.000000	0.000000	7.199422	510.627	NaN	0.000000	0.001615	0.001767	28.0822	108.89	0.001817	59915.9	3.406911	153.657	502.69	1.178168	0.107238	0.106956	510.627	59915.9	0.100846	0.311753	1637.92	98041.6