File: remote_trans/data/nanoindenter/0828-1/data/Data_2025-08-06,11h17m57s/2025-07-22_16-23-58_1_37.txt
2025-07-22, 16:23:58, 1
Index	Phase	Displacement	Time	Pos X	Pos Y	Pos Z	Rot A	Rot B	Piezo Z	Force A	Force B	Gripper	Voltage A	Voltage B	Temperature	Amplitude force	Amplitude pos	Stiffness	Phase shift	Phase excitation	Force A raw	Displacement raw	HMax	HMax raw	Real Force	Real Stiffness	Contact Depth	Area	Hardness	Reduced Mod.
[#]	[#]	[um]	[s]	[um]	[um]	[um]	[m°]	[m°]	[um]	[uN]	[uN]	[V]	[V]	[V]	[°C]	[uN]	[um]	[N/m]	[°]	[°]	[uN]	[um]	[um]	[um]	[uN]	[N/m]	[um]	[um^2]	[MPa]	[MPa]
37	1.000000	0.002240	7.3654e+06	-40489.1	955.818	-29790.5	0.000000	0.000000	6.002826	0.078891	NaN	0.000000	0.001624	0.001761	28.1223	0.063734	0.001021	62.412	78.1839	-164.901	0.084672	0.000932	-1.072755	-1.074063	0.078891	62.412	-1.073703	-2.222958E+14	-3.548920E-16	NaN
37	1.000000	0.010201	7.3654e+06	-40489.1	955.819	-29790.5	0.000000	0.000000	6.010784	0.023646	NaN	0.000000	0.001636	0.001801	28.1218	0.090781	0.000992	91.5402	-138.604	-168.483	0.077981	0.008851	-1.064794	-1.066144	0.023646	91.5402	-1.064988	-1.697626E+14	-1.392862E-16	NaN
37	1.000000	0.018147	7.3654e+06	-40489.1	955.819	-29790.5	0.000000	0.000000	6.018732	0.077453	NaN	0.000000	0.001614	0.001803	28.1219	0.091177	0.001738	52.4615	-14.6045	-166.494	0.031193	0.016885	-1.056848	-1.058110	0.077453	52.4615	-1.057955	-1.365649E+14	-5.671478E-16	NaN
37	1.000000	0.026204	7.3654e+06	-40489.1	955.819	-29790.5	0.000000	0.000000	6.026787	0.036936	NaN	0.000000	0.001632	0.001808	28.1217	0.027699	0.001878	14.7452	-72.7682	-166.336	0.026714	0.024839	-1.048791	-1.050156	0.036936	14.7452	-1.050670	-1.089979E+14	-3.388671E-16	NaN
37	1.000000	0.034150	7.3654e+06	-40489.1	955.817	-29790.5	0.000000	0.000000	6.034733	0.014995	NaN	0.000000	0.001606	0.001797	28.1215	0.096163	0.002075	46.3386	4.100207	-167.83	0.006898	0.032833	-1.040845	-1.042161	0.014995	46.3386	-1.041087	-8.101892E+13	-1.850746E-16	NaN
37	1.000000	0.042187	7.3654e+06	-40489.1	955.818	-29790.5	0.000000	0.000000	6.042769	-0.002036	NaN	0.000000	0.001622	0.001773	28.1231	0.046020	0.001990	23.1269	134.09	-166.1	0.023267	0.040889	-1.032808	-1.034106	-0.002036	23.1269	-1.032742	-6.256913E+13	3.254623E-17	NaN
37	1.000000	0.050192	7.3654e+06	-40489.1	955.819	-29790.5	0.000000	0.000000	6.050776	0.028932	NaN	0.000000	0.001643	0.001797	28.1235	0.031320	0.002024	15.4733	-61.7072	-165.739	0.070588	0.048864	-1.024803	-1.026130	0.028932	15.4733	-1.026205	-5.110113E+13	-5.661733E-16	NaN
37	1.000000	0.058171	7.3654e+06	-40489.1	955.818	-29790.5	0.000000	0.000000	6.058752	-0.021152	NaN	0.000000	0.001643	0.001784	28.1227	0.042942	0.001998	21.4914	32.6477	-167.102	-0.038967	0.056886	-1.016824	-1.018109	-0.021152	21.4914	-1.016086	-3.734936E+13	5.663389E-16	NaN
37	1.000000	0.066173	7.3654e+06	-40489.1	955.818	-29790.5	0.000000	0.000000	6.066758	0.082135	NaN	0.000000	0.001641	0.001811	28.1228	0.127089	0.001923	66.0775	-155.345	-166.994	0.040975	0.064874	-1.008822	-1.010121	0.082135	66.0775	-1.009754	-3.069561E+13	-2.675781E-15	NaN
37	1.000000	0.074181	7.3654e+06	-40489.1	955.819	-29790.5	0.000000	0.000000	6.074765	0.051897	NaN	0.000000	0.001651	0.001801	28.123	0.074009	0.001970	37.5631	-172.048	-166.214	0.052527	0.072856	-1.000814	-1.002139	0.051897	37.5631	-1.001850	-2.402569E+13	-2.160055E-15	NaN
37	1.000000	0.082173	7.3654e+06	-40489.1	955.818	-29790.5	0.000000	0.000000	6.082758	0.055362	NaN	0.000000	0.001631	0.001789	28.121	0.066211	0.001977	33.4922	-159.843	-166.851	0.033881	0.080885	-0.992821	-0.994109	0.055362	33.4922	-0.994061	-1.887128E+13	-2.933683E-15	NaN
37	1.000000	0.090188	7.3654e+06	-40489.1	955.819	-29790.5	0.000000	0.000000	6.090772	0.049125	NaN	0.000000	0.001635	0.001768	28.1219	0.065347	0.001983	32.9551	-167.752	-165.465	0.047997	0.088851	-0.984807	-0.986143	0.049125	32.9551	-0.985925	-1.466318E+13	-3.350263E-15	NaN
37	1.000000	0.098196	7.3654e+06	-40489.1	955.817	-29790.5	0.000000	0.000000	6.098780	0.034392	NaN	0.000000	0.001616	0.001761	28.1215	0.061977	0.001967	31.5154	178.76	-167.746	0.015305	0.096877	-0.976798	-0.978117	0.034392	31.5154	-0.977617	-1.133191E+13	-3.034983E-15	NaN
37	1.000000	0.106165	7.3654e+06	-40489.1	955.817	-29790.5	0.000000	0.000000	6.106748	0.021547	NaN	0.000000	0.001631	0.001813	28.1215	0.079022	0.002001	39.4868	-6.126681	-164.065	0.111993	0.104888	-0.968830	-0.970107	0.021547	39.4868	-0.969239	-8.737860E+12	-2.465910E-15	NaN
37	1.000000	0.114195	7.3654e+06	-40489.1	955.818	-29790.5	0.000000	0.000000	6.114780	0.067956	NaN	0.000000	0.001641	0.001787	28.1216	0.027011	0.002098	12.8715	-52.1099	-168.47	0.056454	0.112907	-0.960800	-0.962088	0.067956	12.8715	-0.964760	-7.603794E+12	-8.937136E-15	NaN
37	1.000000	0.122186	7.3654e+06	-40489.1	955.819	-29790.5	0.000000	0.000000	6.122769	0.007186	NaN	0.000000	0.001643	0.001794	28.1241	0.121824	0.002017	60.3893	166.355	-163.164	-0.017472	0.120844	-0.952809	-0.954150	0.007186	60.3893	-0.952898	-5.261504E+12	-1.365789E-15	NaN
37	1.000000	0.130196	7.3654e+06	-40489.1	955.818	-29790.5	0.000000	0.000000	6.130780	0.032366	NaN	0.000000	0.001645	0.001795	28.1234	0.097246	0.001865	52.1559	160.37	-165.917	0.046891	0.128825	-0.944798	-0.946169	0.032366	52.1559	-0.945264	-4.150938E+12	-7.797369E-15	NaN
37	1.000000	0.138188	7.3654e+06	-40489.1	955.819	-29790.5	0.000000	0.000000	6.138770	0.004506	NaN	0.000000	0.001647	0.001827	28.1238	0.078087	0.001934	40.3699	-43.6652	-169.166	0.016269	0.136917	-0.936807	-0.938078	0.004506	40.3699	-0.936891	-3.200255E+12	-1.407869E-15	NaN
37	1.000000	0.146221	7.3654e+06	-40489.1	955.818	-29790.5	0.000000	0.000000	6.146806	0.048964	NaN	0.000000	0.001664	0.001770	28.1237	0.057736	0.002079	27.7694	179.276	-167.018	0.134811	0.144913	-0.928773	-0.930082	0.048964	27.7694	-0.930096	-2.591129E+12	-1.889664E-14	NaN
37	1.000000	0.154206	7.3654e+06	-40489.1	955.818	-29790.5	0.000000	0.000000	6.154791	0.055130	NaN	0.000000	0.001649	0.001796	28.1234	0.095568	0.001958	48.7982	126.786	-165.987	0.005755	0.152875	-0.920788	-0.922120	0.055130	48.7982	-0.921636	-1.991996E+12	-2.767558E-14	NaN
37	1.000000	0.162202	7.3654e+06	-40489.1	955.818	-29790.5	0.000000	0.000000	6.162786	0.038754	NaN	0.000000	0.001611	0.001809	28.1234	0.126449	0.002042	61.9339	-10.7232	-167.434	0.051360	0.160945	-0.912792	-0.914049	0.038754	61.9339	-0.913262	-1.535381E+12	-2.524067E-14	NaN
37	1.000000	0.170227	7.3654e+06	-40489.1	955.819	-29790.5	0.000000	0.000000	6.170811	0.039626	NaN	0.000000	0.001637	0.001794	28.1224	0.091966	0.002057	44.7161	79.7282	-168.989	-0.004781	0.168940	-0.904768	-0.906055	0.039626	44.7161	-0.905432	-1.203546E+12	-3.292405E-14	NaN
37	1.000000	0.178203	7.3654e+06	-40489.1	955.819	-29790.5	0.000000	0.000000	6.178786	0.010646	NaN	0.000000	0.001632	0.001802	28.1259	0.074573	0.001968	37.8872	-111.758	-166.375	-0.001802	0.176864	-0.896792	-0.898131	0.010646	37.8872	-0.897002	-9.258874E+11	-1.149806E-14	NaN
37	1.000000	0.186203	7.3654e+06	-40489.1	955.818	-29790.5	0.000000	0.000000	6.186786	0.012125	NaN	0.000000	0.001637	0.001811	28.1242	0.069266	0.001974	35.0883	-71.1155	-167.989	0.033664	0.184932	-0.888791	-0.890063	0.012125	35.0883	-0.889050	-7.229017E+11	-1.677203E-14	NaN
37	1.000000	0.194209	7.3654e+06	-40489.1	955.818	-29790.5	0.000000	0.000000	6.194791	0.010421	NaN	0.000000	0.001616	0.001776	28.1222	0.044091	0.001907	23.1153	108.092	-168.879	-0.028367	0.192934	-0.880786	-0.882061	0.010421	23.1153	-0.881124	-5.648208E+11	-1.845041E-14	NaN
37	1.000000	0.202231	7.3654e+06	-40489.1	955.819	-29790.5	0.000000	0.000000	6.202813	-0.005355	NaN	0.000000	0.001629	0.001804	28.1247	0.162921	0.001955	83.3332	-35.4393	-164.432	0.054912	0.200907	-0.872763	-0.874088	-0.005355	83.3332	-0.872715	-4.346857E+11	1.231835E-14	NaN
37	1.000000	0.210241	7.3654e+06	-40489.1	955.819	-29790.5	0.000000	0.000000	6.210825	0.037308	NaN	0.000000	0.001626	0.001779	28.1231	0.035942	0.002050	17.5309	-52.9881	-163.033	0.051630	0.208935	-0.864754	-0.866060	0.037308	17.5309	-0.866350	-3.565000E+11	-1.046508E-13	NaN
37	1.000000	0.218225	7.3654e+06	-40489.1	955.819	-29790.5	0.000000	0.000000	6.218809	0.038369	NaN	0.000000	0.001649	0.001770	28.1233	0.104997	0.001968	53.3546	-148.465	-163.983	0.088817	0.216940	-0.856769	-0.858055	0.038369	53.3546	-0.857309	-2.689619E+11	-1.426552E-13	NaN
37	1.000000	0.226241	7.3654e+06	-40489.1	955.817	-29790.5	0.000000	0.000000	6.226826	0.066233	NaN	0.000000	0.001666	0.001813	28.1237	0.093173	0.001955	47.6621	132.253	-166.398	0.080911	0.224927	-0.848754	-0.850068	0.066233	47.6621	-0.849796	-2.128021E+11	-3.112410E-13	NaN
37	1.000000	0.234252	7.3654e+06	-40489.1	955.818	-29790.5	0.000000	0.000000	6.234837	0.063876	NaN	0.000000	0.001643	0.001808	28.1232	0.019077	0.002002	9.529902	-23.5246	-164.573	0.109626	0.232991	-0.840742	-0.842004	0.063876	9.529902	-0.845769	-1.876909E+11	-3.403271E-13	NaN
37	1.000000	0.242251	7.3654e+06	-40489.1	955.819	-29790.5	0.000000	0.000000	6.242834	0.004776	NaN	0.000000	0.001630	0.001807	28.1225	0.088344	0.001943	45.4787	53.2279	-165.712	-0.016276	0.240945	-0.832743	-0.834050	0.004776	45.4787	-0.832822	-1.253238E+11	-3.811133E-14	NaN
37	1.000000	0.250211	7.3654e+06	-40489.1	955.818	-29790.5	0.000000	0.000000	6.250797	0.095223	NaN	0.000000	0.001610	0.001800	28.123	0.038648	0.001898	20.3582	-47.5678	-165.413	0.036595	0.248959	-0.824783	-0.826035	0.095223	20.3582	-0.828291	-1.087994E+11	-8.752160E-13	NaN
37	1.000000	0.258234	7.3654e+06	-40489.1	955.818	-29790.5	0.000000	0.000000	6.258817	0.022589	NaN	0.000000	0.001654	0.001793	28.1208	0.043729	0.001965	22.2507	98.9823	-163.341	0.050642	0.256970	-0.816761	-0.818024	0.022589	22.2507	-0.817522	-7.773364E+10	-2.905919E-13	NaN
37	1.000000	0.266271	7.3654e+06	-40489.1	955.819	-29790.5	0.000000	0.000000	6.266854	0.000954	NaN	0.000000	0.001628	0.001765	28.1206	0.056744	0.002095	27.0813	174.467	-166.427	-0.040236	0.264982	-0.808723	-0.810013	0.000954	27.0813	-0.808750	-5.910252E+10	-1.613387E-14	NaN
37	1.000000	0.274255	7.3654e+06	-40489.1	955.818	-29790.5	0.000000	0.000000	6.274837	0.002534	NaN	0.000000	0.001645	0.001763	28.1212	0.036069	0.002129	16.938	127.408	-168.423	0.007667	0.272905	-0.800740	-0.802090	0.002534	16.938	-0.800852	-4.617768E+10	-5.487203E-14	NaN
37	1.000000	0.282290	7.3654e+06	-40489.1	955.819	-29790.5	0.000000	0.000000	6.282873	-0.000766	NaN	0.000000	0.001641	0.001785	28.1215	0.034512	0.001949	17.711	25.3425	-165.4	0.027840	0.280949	-0.792704	-0.794045	-0.000766	17.711	-0.792672	-3.575759E+10	2.141998E-14	NaN
37	1.000000	0.290260	7.3654e+06	-40489.1	955.817	-29790.5	0.000000	0.000000	6.290844	0.037556	NaN	0.000000	0.001663	0.001764	28.1215	0.035962	0.002014	17.86	130.987	-167.276	0.009113	0.288947	-0.784735	-0.786047	0.037556	17.86	-0.786312	-2.930818E+10	-1.281424E-12	NaN
37	1.000000	0.298270	7.3654e+06	-40489.1	955.818	-29790.5	0.000000	0.000000	6.298853	0.035033	NaN	0.000000	0.001636	0.001748	28.1217	0.102926	0.001784	57.6982	125.099	-169.325	-0.040909	0.297001	-0.776725	-0.777994	0.035033	57.6982	-0.777180	-2.202488E+10	-1.590606E-12	NaN
37	1.000000	0.306294	7.3654e+06	-40489.1	955.818	-29790.5	0.000000	0.000000	6.306876	0.006118	NaN	0.000000	0.001639	0.001755	28.1222	0.076415	0.002109	36.2334	-97.5577	-164.658	0.058062	0.304937	-0.768701	-0.770057	0.006118	36.2334	-0.768828	-1.695760E+10	-3.607633E-13	NaN
37	1.000000	0.314312	7.3654e+06	-40489.1	955.818	-29790.5	0.000000	0.000000	6.314897	0.057230	NaN	0.000000	0.001644	0.001770	28.1215	0.079303	0.002029	39.0931	113.981	-169.044	0.064669	0.312990	-0.760682	-0.762005	0.057230	39.0931	-0.761780	-1.359942E+10	-4.208290E-12	NaN
37	1.000000	0.322282	7.3654e+06	-40489.1	955.818	-29790.5	0.000000	0.000000	6.322866	0.036624	NaN	0.000000	0.001652	0.001790	28.1212	0.099580	0.002026	49.1428	116.65	-167.217	0.012257	0.320952	-0.752713	-0.754043	0.036624	49.1428	-0.753272	-1.041723E+10	-3.515685E-12	NaN
37	1.000000	0.330276	7.3654e+06	-40489.1	955.819	-29790.5	0.000000	0.000000	6.330858	-0.009375	NaN	0.000000	0.001662	0.001730	28.1205	0.080509	0.001985	40.5548	-174.992	-166.749	0.070636	0.328995	-0.744719	-0.745999	-0.009375	40.5548	-0.744545	-7.924237E+9	1.183050E-12	NaN
37	1.000000	0.338268	7.3654e+06	-40489.1	955.819	-29790.5	0.000000	0.000000	6.338854	0.082408	NaN	0.000000	0.001646	0.001736	28.1196	0.088778	0.002042	43.4717	-27.113	-168.693	0.057113	0.337042	-0.736726	-0.737953	0.082408	43.4717	-0.738148	-6.483796E+9	-1.270985E-11	NaN
37	1.000000	0.346301	7.3654e+06	-40489.1	955.818	-29790.5	0.000000	0.000000	6.346885	0.041009	NaN	0.000000	0.001679	0.001790	28.1196	0.040276	0.001969	20.4534	-46.2742	-168.386	0.064134	0.344999	-0.728694	-0.729996	0.041009	20.4534	-0.730198	-5.052476E+9	-8.116556E-12	NaN
37	1.000000	0.354311	7.3654e+06	-40489.1	955.818	-29790.5	0.000000	0.000000	6.354895	0.042737	NaN	0.000000	0.001626	0.001757	28.1197	0.129399	0.002002	64.6212	43.0671	-164.585	0.044297	0.352952	-0.720684	-0.722043	0.042737	64.6212	-0.721180	-3.806859E+9	-1.122630E-11	NaN
37	1.000000	0.362314	7.3654e+06	-40489.1	955.817	-29790.5	0.000000	0.000000	6.362897	0.006771	NaN	0.000000	0.001640	0.001734	28.1213	0.108551	0.001919	56.5797	61.4923	-167.284	0.066646	0.360989	-0.712680	-0.714006	0.006771	56.5797	-0.712770	-2.923124E+9	-2.316464E-12	NaN
37	1.000000	0.370325	7.3654e+06	-40489.1	955.82	-29790.5	0.000000	0.000000	6.370908	0.013859	NaN	0.000000	0.001637	0.001704	28.1213	0.092295	0.002078	44.4184	74.8131	-167.035	-0.010272	0.368955	-0.704670	-0.706040	0.013859	44.4184	-0.704904	-2.282909E+9	-6.070591E-12	NaN
37	1.000000	0.378312	7.3654e+06	-40489.1	955.818	-29790.5	0.000000	0.000000	6.378898	0.080589	NaN	0.000000	0.001653	0.001746	28.1212	0.065321	0.002049	31.8759	-141.64	-165.047	0.008759	0.377022	-0.696682	-0.697973	0.080589	31.8759	-0.698579	-1.871194E+9	-4.306810E-11	NaN
37	1.000000	0.386303	7.3654e+06	-40489.1	955.819	-29790.5	0.000000	0.000000	6.386887	0.035306	NaN	0.000000	0.001650	0.001783	28.1211	0.046516	0.002032	22.8967	-79.4898	-168.807	-0.035284	0.384994	-0.688691	-0.690001	0.035306	22.8967	-0.689848	-1.421794E+9	-2.483222E-11	NaN
37	1.000000	0.394297	7.3654e+06	-40489.1	955.818	-29790.5	0.000000	0.000000	6.394882	0.057425	NaN	0.000000	0.001653	0.001750	28.1219	0.070348	0.001908	36.8666	-82.1539	-168.257	0.001312	0.392980	-0.680697	-0.682015	0.057425	36.8666	-0.681866	-1.105905E+9	-5.192598E-11	NaN
37	1.000000	0.402276	7.3654e+06	-40489.1	955.818	-29790.5	0.000000	0.000000	6.402863	0.102374	NaN	0.000000	0.001651	0.001739	28.1213	0.047985	0.001993	24.0828	166.89	-165.401	-0.011170	0.401030	-0.672718	-0.673965	0.102374	24.0828	-0.675906	-9.166668E+8	-1.116807E-10	NaN
37	1.000000	0.410324	7.3654e+06	-40489.1	955.819	-29790.5	0.000000	0.000000	6.410909	0.066214	NaN	0.000000	0.001598	0.001775	28.1206	0.071216	0.002007	35.4776	-120.148	-165.082	0.077556	0.408993	-0.664671	-0.666002	0.066214	35.4776	-0.666071	-6.723574E+8	-9.847995E-11	NaN
37	1.000000	0.418306	7.3654e+06	-40489.1	955.818	-29790.5	0.000000	0.000000	6.418890	0.044025	NaN	0.000000	0.001625	0.001781	28.1207	0.030618	0.002062	14.846	171.894	-165.416	0.057926	0.417033	-0.656688	-0.657962	0.044025	14.846	-0.658913	-5.365028E+8	-8.205937E-11	NaN
37	1.000000	0.426325	7.3654e+06	-40489.1	955.819	-29790.5	0.000000	0.000000	6.426911	0.070002	NaN	0.000000	0.001623	0.001779	28.1208	0.065549	0.001942	33.7552	-162.007	-167.599	0.026792	0.425056	-0.648669	-0.649938	0.070002	33.7552	-0.650225	-4.078653E+8	-1.716290E-10	NaN
37	1.000000	0.434318	7.3654e+06	-40489.1	955.817	-29790.5	0.000000	0.000000	6.434904	0.077265	NaN	0.000000	0.001606	0.001755	28.1207	0.020142	0.002095	9.612536	178.897	-165.295	0.100103	0.433043	-0.640677	-0.641952	0.077265	9.612536	-0.646705	-3.649726E+8	-2.117013E-10	NaN
37	1.000000	0.442311	7.3654e+06	-40489.1	955.817	-29790.5	0.000000	0.000000	6.442892	-0.025058	NaN	0.000000	0.001639	0.001750	28.1219	0.090226	0.002000	45.1033	135.334	-167.401	0.017422	0.441045	-0.632684	-0.633950	-0.025058	45.1033	-0.632267	-2.312891E+8	1.083415E-10	NaN
37	1.000000	0.450328	7.3654e+06	-40489.1	955.818	-29790.5	0.000000	0.000000	6.450911	0.008393	NaN	0.000000	0.001656	0.001759	28.1219	0.066941	0.002019	33.16	-146.74	-164.782	0.022170	0.449013	-0.624666	-0.625981	0.008393	33.16	-0.624856	-1.829652E+8	-4.587209E-11	NaN
37	1.000000	0.458358	7.3654e+06	-40489.1	955.818	-29790.5	0.000000	0.000000	6.458943	0.082869	NaN	0.000000	0.001659	0.001739	28.1216	0.065142	0.002047	31.8273	21.9506	-165.844	0.089898	0.457067	-0.616637	-0.617928	0.082869	31.8273	-0.618590	-1.500538E+8	-5.522596E-10	NaN
37	1.000000	0.466319	7.3654e+06	-40489.1	955.818	-29790.5	0.000000	0.000000	6.466904	0.050258	NaN	0.000000	0.001639	0.001739	28.122	0.037053	0.002094	17.6942	93.9299	-164.718	0.019909	0.465088	-0.608675	-0.609907	0.050258	17.6942	-0.610806	-1.172729E+8	-4.285544E-10	NaN
37	1.000000	0.474344	7.3654e+06	-40489.1	955.819	-29790.5	0.000000	0.000000	6.474929	0.078854	NaN	0.000000	0.001650	0.001722	28.1224	0.085868	0.001917	44.7938	117.152	-164.196	0.078972	0.473022	-0.600651	-0.601973	0.078854	44.7938	-0.601971	-8.863477E+7	-8.896482E-10	NaN
37	1.000000	0.482388	7.3654e+06	-40489.1	955.819	-29790.5	0.000000	0.000000	6.482970	-0.002922	NaN	0.000000	0.001708	0.001742	28.1206	0.057126	0.001983	28.8049	-112.207	-163.63	0.047999	0.480982	-0.592607	-0.594012	-0.002922	28.8049	-0.592531	-6.569830E+7	4.448178E-11	NaN
37	1.000000	0.490356	7.3654e+06	-40489.1	955.817	-29790.5	0.000000	0.000000	6.490939	0.032896	NaN	0.000000	0.001711	0.001770	28.1206	0.097927	0.001979	49.4826	-62.9016	-163.019	-0.098541	0.489060	-0.584639	-0.585934	0.032896	49.4826	-0.585138	-5.195314E+7	-6.331936E-10	NaN
37	1.000000	0.498347	7.3654e+06	-40489.1	955.818	-29790.5	0.000000	0.000000	6.498931	0.034652	NaN	0.000000	0.001629	0.001782	28.1205	0.084013	0.001944	43.227	-4.443615	-169.037	0.046777	0.497064	-0.576648	-0.577931	0.034652	43.227	-0.577249	-4.043458E+7	-8.569871E-10	NaN
37	1.000000	0.506344	7.3654e+06	-40489.1	955.819	-29790.5	0.000000	0.000000	6.506927	0.024144	NaN	0.000000	0.001573	0.001798	28.1205	0.057501	0.001953	29.4378	-130.774	-169.343	0.009804	0.505103	-0.568651	-0.569892	0.024144	29.4378	-0.569266	-3.136851E+7	-7.696857E-10	NaN
37	1.000000	0.514335	7.3654e+06	-40489.1	955.819	-29790.5	0.000000	0.000000	6.514916	-0.024544	NaN	0.000000	0.001601	0.001798	28.1205	0.102038	0.002101	48.5722	-48.8798	-167.492	0.030310	0.513025	-0.560660	-0.561969	-0.024544	48.5722	-0.560281	-2.356484E+7	1.041546E-9	NaN
37	1.000000	0.522363	7.3654e+06	-40489.1	955.818	-29790.5	0.000000	0.000000	6.522950	0.106475	NaN	0.000000	0.001613	0.001772	28.1218	0.093782	0.001857	50.5019	133.144	-165.512	0.035773	0.521064	-0.552632	-0.553931	0.106475	50.5019	-0.554213	-1.942187E+7	-5.482207E-9	NaN
37	1.000000	0.530342	7.3654e+06	-40489.1	955.819	-29790.5	0.000000	0.000000	6.530924	-0.011107	NaN	0.000000	0.001587	0.001761	28.1202	0.053362	0.001941	27.4933	-41.6214	-164.345	0.032059	0.529092	-0.544653	-0.545902	-0.011107	27.4933	-0.544350	-1.417963E+7	7.833190E-10	NaN
37	1.000000	0.538365	7.3654e+06	-40489.1	955.818	-29790.5	0.000000	0.000000	6.538948	0.001531	NaN	0.000000	0.001597	0.001762	28.1205	0.082974	0.001934	42.9018	140.608	-168.746	-0.050318	0.537046	-0.536629	-0.537949	0.001531	42.9018	-0.536656	-1.109104E+7	-1.380538E-10	NaN
37	1.000000	0.546391	7.3654e+06	-40489.1	955.818	-29790.5	0.000000	0.000000	6.546976	0.076909	NaN	0.000000	0.001587	0.001773	28.1203	0.074747	0.001869	39.9887	-131.997	-165.148	0.103634	0.545077	-0.528604	-0.529918	0.076909	39.9887	-0.530047	-8.97888e+06	-8.565508E-9	NaN
37	1.000000	0.554411	7.3654e+06	-40489.1	955.819	-29790.5	0.000000	0.000000	6.554995	0.047757	NaN	0.000000	0.001607	0.001804	28.1204	0.098722	0.001965	50.2379	116.125	-168.609	0.074181	0.553054	-0.520584	-0.521941	0.047757	50.2379	-0.521297	-6.78628e+06	-7.037343E-9	NaN
37	1.000000	0.562386	7.3654e+06	-40489.1	955.817	-29790.5	0.000000	0.000000	6.562972	0.080694	NaN	0.000000	0.001685	0.001793	28.1187	0.004890	0.001978	2.471719	-133.559	-164.33	0.102732	0.561058	-0.512609	-0.513937	0.080694	2.471719	-0.537094	-1.124724E+7	-7.174603E-9	NaN
37	1.000000	0.570390	7.3654e+06	-40489.1	955.818	-29790.5	0.000000	0.000000	6.570976	0.067410	NaN	0.000000	0.001666	0.001794	28.119	0.066116	0.001969	33.5855	-24.2193	-168.451	0.156878	0.569102	-0.504604	-0.505893	0.067410	33.5855	-0.506110	-4.17071e+06	-1.616269E-8	NaN
37	1.000000	0.578412	7.3654e+06	-40489.1	955.818	-29790.5	0.000000	0.000000	6.578993	-0.026434	NaN	0.000000	0.001664	0.001800	28.1187	0.058156	0.002042	28.4764	121.661	-166.261	0.046325	0.577132	-0.496583	-0.497863	-0.026434	28.4764	-0.495886	-3.00337e+06	8.801445E-9	NaN
37	1.000000	0.586403	7.3654e+06	-40489.1	955.817	-29790.5	0.000000	0.000000	6.586987	0.053637	NaN	0.000000	0.001678	0.001752	28.1187	0.120258	0.002129	56.4812	19.3747	-167.095	-0.035961	0.585100	-0.488592	-0.489894	0.053637	56.4812	-0.489304	-2.43036e+06	-2.206953E-8	NaN
37	1.000000	0.594389	7.3654e+06	-40489.1	955.819	-29790.5	0.000000	0.000000	6.594976	0.115091	NaN	0.000000	0.001583	0.001738	28.1188	0.060770	0.002071	29.3468	22.2585	-169.091	0.105094	0.593088	-0.480606	-0.481907	0.115091	29.3468	-0.483547	-2.01913e+06	-5.700045E-8	NaN
37	1.000000	0.602401	7.3654e+06	-40489.1	955.818	-29790.5	0.000000	0.000000	6.602984	0.027483	NaN	0.000000	0.001606	0.001755	28.1203	0.030058	0.001949	15.4205	75.9534	-163.57	0.002706	0.601046	-0.472594	-0.473948	0.027483	15.4205	-0.473931	-1.48086e+06	-1.855895E-8	NaN
37	1.000000	0.610407	7.3654e+06	-40489.1	955.818	-29790.5	0.000000	0.000000	6.610992	0.062744	NaN	0.000000	0.001616	0.001752	28.1195	0.062762	0.001963	31.9785	-43.6071	-168.424	0.037194	0.609129	-0.464587	-0.465866	0.062744	31.9785	-0.466059	-1.14845e+06	-5.463355E-8	NaN
37	1.000000	0.618402	7.3654e+06	-40489.1	955.819	-29790.5	0.000000	0.000000	6.618984	0.006155	NaN	0.000000	0.001603	0.001815	28.1202	0.076362	0.002039	37.4588	-158.766	-168.896	0.009981	0.617126	-0.456593	-0.457868	0.006155	37.4588	-0.456716	-848895	-7.250270E-9	NaN
37	1.000000	0.626420	7.3654e+06	-40489.1	955.819	-29790.5	0.000000	0.000000	6.627007	0.104367	NaN	0.000000	0.001583	0.001811	28.1196	0.086197	0.001812	47.573	110.298	-165.401	0.214362	0.625095	-0.448574	-0.449900	0.104367	47.573	-0.450220	-687759	-1.517493E-7	NaN
37	1.000000	0.634392	7.3654e+06	-40489.1	955.818	-29790.5	0.000000	0.000000	6.634974	0.000840	NaN	0.000000	0.001597	0.001789	28.1196	0.067066	0.001952	34.3575	108.408	-163.362	-0.019586	0.633103	-0.440603	-0.441892	0.000840	34.3575	-0.440621	-503655	-1.668104E-9	NaN
37	1.000000	0.642437	7.3654e+06	-40489.1	955.819	-29790.5	0.000000	0.000000	6.643023	0.080789	NaN	0.000000	0.001622	0.001787	28.1191	0.030027	0.001870	16.0607	-126.121	-166.616	0.105429	0.641070	-0.432558	-0.433925	0.080789	16.0607	-0.436330	-438076	-1.844187E-7	NaN
37	1.000000	0.650424	7.3654e+06	-40489.1	955.819	-29790.5	0.000000	0.000000	6.651007	0.025696	NaN	0.000000	0.001630	0.001767	28.119	0.003229	0.001995	1.618091	35.6421	-164.44	0.081804	0.649113	-0.424571	-0.425882	0.025696	1.618091	-0.436481	-440229	-5.836873E-8	NaN
37	1.000000	0.658432	7.3654e+06	-40489.1	955.818	-29790.5	0.000000	0.000000	6.659018	0.068841	NaN	0.000000	0.001602	0.001774	28.1185	0.024056	0.002024	11.8834	-97.7196	-164.473	0.136378	0.657085	-0.416562	-0.417910	0.068841	11.8834	-0.420907	-265020	-2.597571E-7	NaN
37	1.000000	0.666450	7.3654e+06	-40489.1	955.818	-29790.5	0.000000	0.000000	6.667032	-0.003774	NaN	0.000000	0.001622	0.001775	28.1206	0.077111	0.002020	38.1789	-128.59	-168.076	-0.066540	0.665104	-0.408544	-0.409891	-0.003774	38.1789	-0.408470	-176458	2.138545E-8	NaN
37	1.000000	0.674423	7.3654e+06	-40489.1	955.819	-29790.5	0.000000	0.000000	6.675009	0.084063	NaN	0.000000	0.001601	0.001785	28.119	0.049522	0.001971	25.1193	-30.9829	-164.487	0.098538	0.673188	-0.400572	-0.401807	0.084063	25.1193	-0.403082	-147884	-5.684422E-7	NaN
37	1.000000	0.682431	7.3654e+06	-40489.1	955.818	-29790.5	0.000000	0.000000	6.683015	0.047262	NaN	0.000000	0.001630	0.001795	28.1208	0.123115	0.002064	59.6618	74.6757	-166.039	0.109550	0.681099	-0.392564	-0.393896	0.047262	59.6618	-0.393158	-106738	-4.427880E-7	NaN
37	1.000000	0.690436	7.3654e+06	-40489.1	955.818	-29790.5	0.000000	0.000000	6.691017	-0.024871	NaN	0.000000	0.001637	0.001752	28.1204	0.039482	0.001912	20.6465	-126.152	-165.489	0.049593	0.689116	-0.384559	-0.385879	-0.024871	20.6465	-0.383655	-78039.5	3.186919E-7	NaN
37	1.000000	0.698455	7.3654e+06	-40489.1	955.818	-29790.5	0.000000	0.000000	6.699036	-0.038997	NaN	0.000000	0.001642	0.001727	28.1206	0.032705	0.001954	16.7365	159.407	-166.71	-0.019192	0.697148	-0.376539	-0.377847	-0.038997	16.7365	-0.374792	-58220.7	6.698184E-7	NaN
37	1.000000	0.706436	7.3654e+06	-40489.1	955.818	-29790.5	0.000000	0.000000	6.707021	0.049171	NaN	0.000000	0.001638	0.001764	28.1213	0.055621	0.001970	28.2285	-20.0679	-166.06	0.047816	0.705175	-0.368559	-0.369820	0.049171	28.2285	-0.369865	-49451.8	-9.943236E-7	NaN
37	1.000000	0.714460	7.3654e+06	-40489.1	955.817	-29790.5	0.000000	0.000000	6.715044	0.058999	NaN	0.000000	0.001613	0.001745	28.1202	0.055160	0.002077	26.5586	34.4614	-166.651	-0.056545	0.713178	-0.360535	-0.361817	0.058999	26.5586	-0.362201	-38340	-1.538850E-6	NaN
37	1.000000	0.722449	7.3654e+06	-40489.1	955.818	-29790.5	0.000000	0.000000	6.723033	0.059403	NaN	0.000000	0.001586	0.001723	28.1192	0.099604	0.001972	50.5133	140.443	-166.48	0.127985	0.721147	-0.352546	-0.353848	0.059403	50.5133	-0.353428	-28623.4	-2.075328E-6	NaN
37	1.000000	0.730460	7.36541e+06	-40489.1	955.818	-29790.5	0.000000	0.000000	6.731045	0.081235	NaN	0.000000	0.001622	0.001761	28.1195	0.038565	0.002162	17.8385	171.719	-162.387	0.039647	0.729139	-0.344535	-0.345856	0.081235	17.8385	-0.347950	-23836.5	-3.407994E-6	NaN
37	1.000000	0.738427	7.36541e+06	-40489.1	955.818	-29790.5	0.000000	0.000000	6.739009	-0.009980	NaN	0.000000	0.001614	0.001773	28.1202	0.147609	0.001985	74.3534	123.106	-166.6	0.043201	0.737125	-0.336568	-0.337869	-0.009980	74.3534	-0.336467	-16218.7	6.153624E-7	NaN
37	1.000000	0.746452	7.36541e+06	-40489.1	955.818	-29790.5	0.000000	0.000000	6.747037	0.059577	NaN	0.000000	0.001645	0.001754	28.1197	0.118349	0.001934	61.2078	62.5321	-169.233	0.075835	0.745186	-0.328543	-0.329808	0.059577	61.2078	-0.329273	-12729.1	-4.680416E-6	NaN
37	1.000000	0.754475	7.36541e+06	-40489.1	955.819	-29790.5	0.000000	0.000000	6.755058	0.000557	NaN	0.000000	0.001678	0.001766	28.1194	0.053010	0.002013	26.3355	-95.5905	-166.207	0.042972	0.753124	-0.320519	-0.321871	0.000557	26.3355	-0.320535	-9473.54	-5.878417E-8	NaN
37	1.000000	0.762468	7.36541e+06	-40489.1	955.818	-29790.5	0.000000	0.000000	6.763053	0.074239	NaN	0.000000	0.001631	0.001783	28.1206	0.015613	0.001884	8.288046	82.5398	-168.999	0.111061	0.761223	-0.312527	-0.313771	0.074239	8.288046	-0.319245	-9068.14	-8.186806E-6	NaN
37	1.000000	0.770491	7.36541e+06	-40489.1	955.818	-29790.5	0.000000	0.000000	6.771074	0.000980	NaN	0.000000	0.001701	0.001819	28.1203	0.024295	0.001977	12.2866	-89.7909	-167.69	-0.026141	0.769199	-0.304503	-0.305795	0.000980	12.2866	-0.304563	-5501.34	-1.780574E-7	NaN
37	1.000000	0.778484	7.36541e+06	-40489.1	955.818	-29790.5	0.000000	0.000000	6.779064	-0.048367	NaN	0.000000	0.001685	0.001783	28.1202	0.065643	0.001868	35.1356	70.5894	-165.526	-0.013611	0.777175	-0.296511	-0.297820	-0.048367	35.1356	-0.295478	-4029.31	1.200370E-5	NaN
37	1.000000	0.786485	7.36541e+06	-40489.1	955.818	-29790.5	0.000000	0.000000	6.787068	0.028424	NaN	0.000000	0.001701	0.001765	28.1202	0.026949	0.002094	12.8717	132.495	-163.972	0.042796	0.785223	-0.288510	-0.289772	0.028424	12.8717	-0.290166	-3355.73	-8.470222E-6	NaN
37	1.000000	0.794491	7.36541e+06	-40489.1	955.818	-29790.5	0.000000	0.000000	6.795075	0.038615	NaN	0.000000	0.001707	0.001786	28.1203	0.067682	0.002059	32.8768	164.442	-165.341	0.089588	0.793205	-0.280504	-0.281790	0.038615	32.8768	-0.281385	-2476.56	-1.559201E-5	NaN
37	1.000000	0.802511	7.36541e+06	-40489.1	955.819	-29790.5	0.000000	0.000000	6.803095	0.043782	NaN	0.000000	0.001698	0.001765	28.1179	0.084515	0.001828	46.2429	-29.3588	-167.439	0.051051	0.801180	-0.272484	-0.273814	0.043782	46.2429	-0.273194	-1862.25	-2.351000E-5	NaN
37	1.000000	0.810501	7.36541e+06	-40489.1	955.819	-29790.5	0.000000	0.000000	6.811086	0.061400	NaN	0.000000	0.001704	0.001764	28.1177	0.064776	0.002009	32.239	-165.29	-167.123	0.032856	0.809202	-0.264494	-0.265793	0.061400	32.239	-0.265922	-1443.64	-4.253171E-5	NaN
37	1.000000	0.818502	7.36541e+06	-40489.1	955.819	-29790.5	0.000000	0.000000	6.819083	-0.026621	NaN	0.000000	0.001659	0.001726	28.1176	0.125255	0.001987	63.0507	102.873	-167.718	0.004947	0.817223	-0.256493	-0.257772	-0.026621	63.0507	-0.256176	-1023.79	2.600241E-5	NaN
37	1.000000	0.826500	7.36541e+06	-40489.1	955.817	-29790.5	0.000000	0.000000	6.827084	0.038595	NaN	0.000000	0.001674	0.001723	28.1184	0.093946	0.001875	50.0936	-107.013	-166.762	0.014567	0.825192	-0.248494	-0.249803	0.038595	50.0936	-0.249072	-795.445	-4.852050E-5	NaN
37	1.000000	0.834481	7.36541e+06	-40489.1	955.819	-29790.5	0.000000	0.000000	6.835063	-0.000670	NaN	0.000000	0.001678	0.001744	28.1174	0.039832	0.001995	19.9611	40.5343	-165.083	0.024159	0.833204	-0.240514	-0.241791	-0.000670	19.9611	-0.240488	-585.031	1.145693E-6	NaN
37	1.000000	0.842476	7.36541e+06	-40489.1	955.818	-29790.5	0.000000	0.000000	6.843060	0.028184	NaN	0.000000	0.001681	0.001725	28.119	0.035699	0.002287	15.6102	-171.679	-169.102	-0.019044	0.841184	-0.232518	-0.233810	0.028184	15.6102	-0.233873	-460.823	-6.116049E-5	NaN
37	1.000000	0.850478	7.36541e+06	-40489.1	955.819	-29790.5	0.000000	0.000000	6.851064	0.076074	NaN	0.000000	0.001699	0.001766	28.1189	0.101186	0.002053	49.2931	-157.034	-167.341	0.035922	0.849182	-0.224516	-0.225813	0.076074	49.2931	-0.225674	-342.004	-0.000222	NaN
37	1.000000	0.858501	7.36541e+06	-40489.1	955.817	-29790.5	0.000000	0.000000	6.859087	0.081612	NaN	0.000000	0.001694	0.001762	28.1188	0.134882	0.001881	71.7079	4.124554	-169.144	0.052605	0.857218	-0.216493	-0.217777	0.081612	71.7079	-0.217347	-251.886	-0.000324	NaN
37	1.000000	0.866517	7.36541e+06	-40489.1	955.819	-29790.5	0.000000	0.000000	6.867100	0.013798	NaN	0.000000	0.001711	0.001767	28.119	0.050766	0.001968	25.802	65.2198	-166.459	0.060734	0.865165	-0.208477	-0.209829	0.013798	25.802	-0.208879	-183.926	-7.501733E-5	NaN
37	1.000000	0.874556	7.36541e+06	-40489.1	955.819	-29790.5	0.000000	0.000000	6.875140	0.036326	NaN	0.000000	0.001715	0.001783	28.1187	0.097302	0.001996	48.7463	-105.105	-167.051	0.019948	0.873174	-0.200438	-0.201820	0.036326	48.7463	-0.200997	-136.797	-0.000266	NaN
37	1.000000	0.882533	7.36541e+06	-40489.1	955.819	-29790.5	0.000000	0.000000	6.883118	0.071430	NaN	0.000000	0.001710	0.001792	28.1176	0.072898	0.002018	36.1323	-101.554	-167.576	0.056102	0.881254	-0.192462	-0.193741	0.071430	36.1323	-0.193944	-104.64	-0.000683	NaN
37	1.000000	0.890505	7.36541e+06	-40489.1	955.819	-29790.5	0.000000	0.000000	6.891091	0.070960	NaN	0.000000	0.001690	0.001794	28.1177	0.087684	0.002160	40.5922	132.548	-164.187	0.051099	0.889206	-0.184489	-0.185789	0.070960	40.5922	-0.185800	-76.4914	-0.000928	NaN
37	1.000000	0.898516	7.36541e+06	-40489.1	955.818	-29790.5	0.000000	0.000000	6.899099	0.007907	NaN	0.000000	0.001764	0.001771	28.1172	0.129475	0.001980	65.4017	-79.4933	-165.688	-0.018171	0.897218	-0.176478	-0.177777	0.007907	65.4017	-0.176569	-53.3208	-0.000148	NaN
37	1.000000	0.906523	7.36541e+06	-40489.1	955.819	-29790.5	0.000000	0.000000	6.907108	0.061075	NaN	0.000000	0.001708	0.001794	28.1173	0.021219	0.002057	10.3156	48.0695	-163.571	0.067538	0.905229	-0.168471	-0.169766	0.061075	10.3156	-0.172912	-46.1342	-0.001324	NaN
37	1.000000	0.914538	7.36541e+06	-40489.1	955.818	-29790.5	0.000000	0.000000	6.915123	0.064609	NaN	0.000000	0.001719	0.001806	28.1177	0.046481	0.001943	23.9231	138.718	-166.66	0.118834	0.913253	-0.160457	-0.161742	0.064609	23.9231	-0.162482	-30.3362	-0.002130	NaN
37	1.000000	0.922547	7.36541e+06	-40489.1	955.818	-29790.5	0.000000	0.000000	6.923132	0.045670	NaN	0.000000	0.001689	0.001814	28.1184	0.046807	0.001958	23.9053	-54.8215	-168.224	0.026417	0.921202	-0.152447	-0.153792	0.045670	23.9053	-0.153880	-21.3009	-0.002144	NaN
37	1.000000	0.930517	7.36541e+06	-40489.1	955.819	-29790.5	0.000000	0.000000	6.931100	0.002748	NaN	0.000000	0.001712	0.001784	28.1186	0.021882	0.001942	11.2686	-134.557	-164.555	-0.016580	0.929221	-0.144477	-0.145774	0.002748	11.2686	-0.144660	-14.4504	-0.000190	NaN
37	1.000000	0.938562	7.36541e+06	-40489.1	955.818	-29790.5	0.000000	0.000000	6.939146	0.043304	NaN	0.000000	0.001736	0.001772	28.1194	0.113928	0.002072	54.9795	-141.566	-166.562	0.084232	0.937203	-0.136433	-0.137792	0.043304	54.9795	-0.137023	-10.3941	-0.004166	NaN
37	1.000000	0.946535	7.36541e+06	-40489.1	955.819	-29790.5	0.000000	0.000000	6.947119	0.025442	NaN	0.000000	0.001711	0.001797	28.1196	0.025943	0.001919	13.5171	-19.1411	-167.813	0.035046	0.945260	-0.128459	-0.129734	0.025442	13.5171	-0.129871	-7.577110	-0.003358	NaN
37	1.000000	0.954544	7.36541e+06	-40489.1	955.819	-29790.5	0.000000	0.000000	6.955129	0.067276	NaN	0.000000	0.001685	0.001745	28.1193	0.035047	0.002003	17.4978	-58.5984	-169.202	-0.004650	0.953197	-0.120451	-0.121797	0.067276	17.4978	-0.123334	-5.635479	-0.011938	NaN
37	1.000000	0.962558	7.36541e+06	-40489.1	955.818	-29790.5	0.000000	0.000000	6.963143	0.045837	NaN	0.000000	0.001714	0.001745	28.1181	0.087049	0.001961	44.3803	128.98	-167.583	0.075777	0.961275	-0.112436	-0.113720	0.045837	44.3803	-0.113211	-3.508154	-0.013066	NaN
37	1.000000	0.970559	7.36541e+06	-40489.1	955.82	-29790.5	0.000000	0.000000	6.971144	0.051464	NaN	0.000000	0.001737	0.001749	28.1186	0.022266	0.001994	11.1656	165.842	-164.252	0.086224	0.969225	-0.104436	-0.105770	0.051464	11.1656	-0.107892	-2.711507	-0.018980	NaN
37	1.000000	0.978571	7.36541e+06	-40489.1	955.819	-29790.5	0.000000	0.000000	6.979153	-0.013315	NaN	0.000000	0.001688	0.001762	28.1178	0.042258	0.002020	20.9156	111.528	-165.394	0.013073	0.977250	-0.096423	-0.097745	-0.013315	20.9156	-0.095946	-1.482198	0.008984	NaN
37	1.000000	0.986536	7.36541e+06	-40489.1	955.82	-29790.5	0.000000	0.000000	6.987121	0.070626	NaN	0.000000	0.001702	0.001743	28.1184	0.077297	0.001885	41.013	102.828	-167.136	0.096206	0.985299	-0.088459	-0.089695	0.070626	41.013	-0.089751	-1.066502	-0.066222	NaN
37	1.000000	0.994577	7.36541e+06	-40489.1	955.82	-29790.5	0.000000	0.000000	6.995158	-0.009125	NaN	0.000000	0.001708	0.001762	28.1178	0.079074	0.002041	38.7425	-87.5341	-164.655	-0.017950	0.993252	-0.080418	-0.081743	-0.009125	38.7425	-0.080241	-0.627653	0.014539	NaN
37	1.000000	1.002571	7.36541e+06	-40489.1	955.82	-29790.5	0.000000	0.000000	7.003155	0.057846	NaN	0.000000	0.001723	0.001765	28.1192	0.087927	0.002074	42.3942	140.048	-164.309	0.000733	1.001228	-0.072424	-0.073767	0.057846	42.3942	-0.073447	-0.420856	-0.137449	NaN
37	1.000000	1.010551	7.36541e+06	-40489.1	955.82	-29790.5	0.000000	0.000000	7.011135	0.032707	NaN	0.000000	0.001663	0.001778	28.1192	0.023808	0.001927	12.3547	-115.687	-167.088	0.078449	1.009218	-0.064443	-0.065777	0.032707	12.3547	-0.066429	-0.272908	-0.119846	NaN
37	1.000000	1.018558	7.36541e+06	-40489.1	955.82	-29790.5	0.000000	0.000000	7.019141	0.022953	NaN	0.000000	0.001624	0.001770	28.1194	0.029460	0.001854	15.8907	80.6057	-167.715	0.004222	1.017269	-0.056437	-0.057725	0.022953	15.8907	-0.057520	-0.152684	-0.150331	NaN
37	1.000000	1.026608	7.36541e+06	-40489.1	955.819	-29790.5	0.000000	0.000000	7.027193	0.065497	NaN	0.000000	0.001656	0.001755	28.119	0.067373	0.001892	35.6155	127.921	-166.413	0.055994	1.025277	-0.048387	-0.049718	0.065497	35.6155	-0.049766	-0.089774	-0.729574	NaN
37	1.000000	1.034600	7.36541e+06	-40489.1	955.82	-29790.5	0.000000	0.000000	7.035184	0.052471	NaN	0.000000	0.001630	0.001814	28.1192	0.002558	0.001899	1.347391	75.9208	-163.286	0.009815	1.033310	-0.040395	-0.041685	0.052471	1.347391	-0.069602	-0.332822	-0.157656	NaN
37	1.000000	1.042555	7.36541e+06	-40489.1	955.82	-29790.5	0.000000	0.000000	7.043139	0.040047	NaN	0.000000	0.001713	0.001789	28.1183	0.107706	0.002071	52.0177	93.3384	-168.018	0.010875	1.041232	-0.032439	-0.033763	0.040047	52.0177	-0.033017	-0.028029	-1.428732	NaN
37	1.000000	1.050563	7.36541e+06	-40489.1	955.819	-29790.5	0.000000	0.000000	7.051146	0.026459	NaN	0.000000	0.001684	0.001767	28.1178	0.014435	0.002085	6.922222	-116.171	-167.229	0.049009	1.049296	-0.024432	-0.025698	0.026459	6.922222	-0.027298	-0.019409	-1.363217	NaN
37	1.000000	1.058604	7.36541e+06	-40489.1	955.819	-29790.5	0.000000	0.000000	7.059187	0.020838	NaN	0.000000	0.001690	0.001799	28.1178	0.027273	0.001952	13.9687	7.369365	-163.37	0.040607	1.057331	-0.016391	-0.017664	0.020838	13.9687	-0.017509	-0.010839	-1.922404	NaN
37	1.000000	1.066615	7.36541e+06	-40489.1	955.82	-29790.5	0.000000	0.000000	7.067198	0.018287	NaN	0.000000	0.001697	0.001816	28.118	0.040497	0.002067	19.5949	157.431	-166.706	0.024704	1.065290	-0.008380	-0.009705	0.018287	19.5949	-0.009080	-0.005859	-3.121253	NaN
37	1.000000	1.074584	7.36541e+06	-40489.1	955.82	-29790.5	0.000000	0.000000	7.075168	0.041433	NaN	0.000000	0.001654	0.001813	28.1164	0.107772	0.002095	51.4413	129.518	-167.856	0.080217	1.073282	-0.000410	-0.001713	0.041433	51.4413	-0.001015	-0.000744	-55.7193	NaN
37	1.000000	1.082600	7.36541e+06	-40489.1	955.819	-29790.5	0.000000	0.000000	7.083207	0.611845	NaN	0.000000	0.001649	0.001805	28.1172	0.933151	0.002056	453.856	10.1564	-169.138	0.125021	1.081319	0.007605	0.006324	0.611845	453.856	0.006594	0.005636	108.565	5523.52
37	1.000000	1.090597	7.36541e+06	-40489.1	955.82	-29790.5	0.000000	0.000000	7.091408	5.567907	NaN	0.000000	0.001638	0.001805	28.1173	5.922874	0.001808	3275.25	11.1987	-170.201	4.734137	1.089250	0.015602	0.014256	5.567907	3275.25	0.014327	0.014398	386.704	24938
37	2.000000	1.095185	7.36541e+06	-40489.1	955.82	-29790.5	0.000000	0.000000	7.096111	8.365349	NaN	0.000000	0.001613	0.001801	28.1177	9.174480	0.001627	5639.07	3.678214	-171.958	7.451258	1.094827	0.020191	0.019833	8.365349	5639.07	0.019078	0.021114	396.194	35456.3
37	2.000000	1.097217	7.36541e+06	-40489.1	955.82	-29790.5	0.000000	0.000000	7.098192	9.546709	NaN	0.000000	0.001614	0.001790	28.1171	10.9003	0.001778	6132.16	7.894951	-175.257	9.014974	1.096910	0.022222	0.021915	9.546709	6132.16	0.021055	0.024227	394.06	35994.9
37	2.000000	1.099114	7.36541e+06	-40489.1	955.82	-29790.5	0.000000	0.000000	7.100200	12.2606	NaN	0.000000	0.001644	0.001795	28.1173	12.9697	0.001799	7207.59	8.107089	-176.514	11.3774	1.098866	0.024119	0.023871	12.2606	7207.59	0.022844	0.027209	450.606	39921.4
37	2.000000	1.101143	7.36541e+06	-40489.1	955.82	-29790.5	0.000000	0.000000	7.102350	15.2053	NaN	0.000000	0.001668	0.001789	28.1162	15.5456	0.001827	8507.54	8.806103	-178.076	15.6733	1.100809	0.026148	0.025814	15.2053	8507.54	0.024808	0.030667	495.819	44385.5
37	2.000000	1.103125	7.36541e+06	-40489.1	955.82	-29790.5	0.000000	0.000000	7.104467	18.4895	NaN	0.000000	0.001702	0.001766	28.116	17.4911	0.001771	9877.15	8.640085	-178.944	18.1382	1.102826	0.028131	0.027831	18.4895	9877.15	0.026727	0.034232	540.124	48774.1
37	2.000000	1.105098	7.36541e+06	-40489.1	955.82	-29790.5	0.000000	0.000000	7.106637	23.2745	NaN	0.000000	0.001667	0.001766	28.1161	20.1565	0.001844	10932.9	5.364261	-176.549	22.1325	1.104816	0.030104	0.029821	23.2745	10932.9	0.028507	0.037706	617.263	51440.5
37	2.000000	1.107158	7.36541e+06	-40489.1	955.82	-29790.5	0.000000	0.000000	7.108939	29.1797	NaN	0.000000	0.001690	0.001810	28.116	22.4424	0.001788	12553.8	7.981753	179.855	29.6425	1.106809	0.032163	0.031814	29.1797	12553.8	0.030420	0.041619	701.123	56221.9
37	2.000000	1.109109	7.36541e+06	-40489.1	955.82	-29790.5	0.000000	0.000000	7.111068	33.4993	NaN	0.000000	0.001696	0.001765	28.1163	23.6207	0.001635	14450.5	1.445452	-177.149	31.791	1.108782	0.034114	0.033787	33.4993	14450.5	0.032375	0.045811	731.244	61683.6
37	2.000000	1.111093	7.36541e+06	-40489.1	955.821	-29790.5	0.000000	0.000000	7.113189	36.8288	NaN	0.000000	0.001691	0.001823	28.1172	26.5549	0.001734	15316.6	4.034156	-179.715	36.0661	1.110827	0.036099	0.035832	36.8288	15316.6	0.034295	0.050118	734.842	62508.4
37	2.000000	1.113042	7.36541e+06	-40489.1	955.821	-29790.5	0.000000	0.000000	7.115356	42.1397	NaN	0.000000	0.001675	0.001807	28.1167	28.4756	0.001710	16649.7	9.288970	174.638	39.6209	1.112730	0.038047	0.037736	42.1397	16649.7	0.036149	0.054455	773.851	65187.4
37	2.000000	1.115105	7.36541e+06	-40489.1	955.821	-29790.5	0.000000	0.000000	7.117507	44.2628	NaN	0.000000	0.001707	0.001803	28.1177	30.3926	0.001817	16727.3	8.085438	176.317	44.0728	1.114701	0.040111	0.039706	44.2628	16727.3	0.038126	0.059275	746.73	62771.4
37	2.000000	1.117094	7.36541e+06	-40489.1	955.821	-29790.5	0.000000	0.000000	7.119678	48.6951	NaN	0.000000	0.001695	0.001816	28.1172	31.8448	0.001693	18813.5	3.283221	179.936	48.065	1.116806	0.042100	0.041811	48.6951	18813.5	0.040158	0.064438	755.688	67712.8
37	2.000000	1.119080	7.36541e+06	-40489.1	955.82	-29790.5	0.000000	0.000000	7.122075	58.6905	NaN	0.000000	0.001721	0.001777	28.118	33.6383	0.001782	18874.5	4.581616	178.811	59.0606	1.118754	0.044086	0.043760	58.6905	18874.5	0.041754	0.068639	855.062	65821
37	2.000000	1.121086	7.36541e+06	-40489.1	955.821	-29790.5	0.000000	0.000000	7.124393	66.3029	NaN	0.000000	0.001678	0.001787	28.1163	35.5855	0.001680	21182.7	3.694610	178.39	66.1644	1.120796	0.046092	0.045802	66.3029	21182.7	0.043744	0.074062	895.232	71114.3
37	2.000000	1.123107	7.36541e+06	-40489.1	955.821	-29790.5	0.000000	0.000000	7.126726	73.8915	NaN	0.000000	0.001625	0.001797	28.1166	37.5915	0.001862	20188.4	10.1755	174.535	75.6486	1.122722	0.048112	0.047727	73.8915	20188.4	0.045367	0.078633	939.703	65776.8
37	2.000000	1.125056	7.36541e+06	-40489.1	955.821	-29790.5	0.000000	0.000000	7.128920	79.8663	NaN	0.000000	0.001637	0.001780	28.1173	39.6385	0.001720	23047.2	2.275895	179.384	77.0368	1.124693	0.050061	0.049699	79.8663	23047.2	0.047462	0.084730	942.599	72339.1
37	2.000000	1.127120	7.36541e+06	-40489.1	955.821	-29790.5	0.000000	0.000000	7.131252	86.3861	NaN	0.000000	0.001660	0.001796	28.1171	42.9116	0.001808	23738.1	7.114352	174.535	88.9479	1.126786	0.052125	0.051791	86.3861	23738.1	0.049396	0.090554	953.968	72071.6
37	2.000000	1.129130	7.36541e+06	-40489.1	955.821	-29790.5	0.000000	0.000000	7.133448	90.9206	NaN	0.000000	0.001596	0.001795	28.1177	44.3686	0.001745	25419.5	5.628859	175.478	94.4018	1.128777	0.054135	0.053783	90.9206	25419.5	0.051452	0.096955	937.756	74585.4
37	2.000000	1.131024	7.36541e+06	-40489.1	955.821	-29790.5	0.000000	0.000000	7.135973	106.271	NaN	0.000000	0.001645	0.001788	28.1178	46.8353	0.001716	27300.6	2.729042	177.013	104.337	1.130721	0.056029	0.055726	106.271	27300.6	0.053109	0.102266	1039.16	77997.5
37	2.000000	1.133027	7.36541e+06	-40489.1	955.821	-29790.5	0.000000	0.000000	7.137951	105.644	NaN	0.000000	0.001607	0.001775	28.1177	47.0939	0.001760	26751.8	2.182932	178.925	101.719	1.132763	0.058032	0.057768	105.644	26751.8	0.055070	0.108727	971.645	74123.8
37	2.000000	1.135011	7.36541e+06	-40489.1	955.822	-29790.5	0.000000	0.000000	7.140467	118.581	NaN	0.000000	0.001639	0.001784	28.1178	50.5012	0.001767	28586.2	2.681775	177.049	115.904	1.134685	0.060016	0.059690	118.581	28586.2	0.056905	0.114946	1031.63	77034.1
37	2.000000	1.137053	7.36541e+06	-40489.1	955.82	-29790.5	0.000000	0.000000	7.142855	126.998	NaN	0.000000	0.001620	0.001785	28.1174	53.9613	0.001885	28622.1	5.838849	174.274	125.068	1.136747	0.062058	0.061752	126.998	28622.1	0.058731	0.121296	1047.01	75084.8
37	2.000000	1.139129	7.36541e+06	-40489.1	955.821	-29790.5	0.000000	0.000000	7.145223	134.098	NaN	0.000000	0.001633	0.001785	28.1187	55.3556	0.001822	30388.1	7.169138	171.968	139.283	1.138739	0.064135	0.063744	134.098	30388.1	0.060825	0.128784	1041.26	77365.2
37	2.000000	1.141001	7.36541e+06	-40489.1	955.821	-29790.5	0.000000	0.000000	7.147620	146.884	NaN	0.000000	0.001612	0.001782	28.117	57.5712	0.001865	30872.6	5.827759	173.132	145.717	1.140736	0.066007	0.065741	146.884	30872.6	0.062438	0.134697	1090.48	76854.2
37	2.000000	1.143031	7.36541e+06	-40489.1	955.82	-29790.5	0.000000	0.000000	7.150018	155.846	NaN	0.000000	0.001604	0.001779	28.1167	58.3296	0.001832	31836.4	5.650472	173.152	156.117	1.142792	0.068036	0.067797	155.846	31836.4	0.064365	0.141923	1098.1	77209.4
37	2.000000	1.145023	7.36541e+06	-40489.1	955.822	-29790.5	0.000000	0.000000	7.152545	168.874	NaN	0.000000	0.001616	0.001795	28.1171	60.1167	0.001842	32636.5	5.909086	173.142	166.816	1.144676	0.070028	0.069681	168.874	32636.5	0.066147	0.148769	1135.14	77307.4
37	2.000000	1.147050	7.36541e+06	-40489.1	955.82	-29790.5	0.000000	0.000000	7.154774	173.774	NaN	0.000000	0.001612	0.001789	28.1162	60.8575	0.001781	34173.5	2.350007	176.115	172.216	1.146766	0.072056	0.071771	173.774	34173.5	0.068242	0.157010	1106.77	78795
37	2.000000	1.149051	7.36541e+06	-40489.1	955.821	-29790.5	0.000000	0.000000	7.157277	186.014	NaN	0.000000	0.001677	0.001782	28.1164	62.9826	0.001733	36340.3	6.859561	170.725	185.897	1.148727	0.074056	0.073733	186.014	36340.3	0.070217	0.164972	1127.55	81744
37	2.000000	1.150991	7.36541e+06	-40489.1	955.821	-29790.5	0.000000	0.000000	7.159390	190.2	NaN	0.000000	0.001671	0.001768	28.1173	65.5296	0.001797	36474.3	4.744309	172.704	189.083	1.150753	0.075997	0.075758	190.2	36474.3	0.072086	0.172676	1101.49	80194.5
37	2.000000	1.153021	7.36541e+06	-40489.1	955.82	-29790.5	0.000000	0.000000	7.162073	206.086	NaN	0.000000	0.001626	0.001747	28.1173	67.0216	0.001889	35471.5	7.125553	171.784	205.584	1.152632	0.078026	0.077637	206.086	35471.5	0.073669	0.179332	1149.19	76528.7
37	2.000000	1.154957	7.36541e+06	-40489.1	955.82	-29790.5	0.000000	0.000000	7.164315	213.541	NaN	0.000000	0.001633	0.001758	28.1175	67.9055	0.001744	38946.4	3.927253	173.086	208.719	1.154634	0.079963	0.079639	213.541	38946.4	0.075850	0.188698	1131.66	81913.8
37	2.000000	1.157035	7.36541e+06	-40489.1	955.82	-29790.5	0.000000	0.000000	7.167018	228.753	NaN	0.000000	0.001657	0.001747	28.1164	71.3932	0.001871	38160.1	5.871356	172.026	226.761	1.156765	0.082040	0.081770	228.753	38160.1	0.077544	0.196124	1166.37	78725.8
37	2.000000	1.158902	7.36541e+06	-40489.1	955.821	-29790.5	0.000000	0.000000	7.169293	238.69	NaN	0.000000	0.001683	0.001744	28.1158	72.2065	0.001680	42978.1	6.548771	169.787	231.131	1.158658	0.083907	0.083664	238.69	42978.1	0.079742	0.205957	1158.93	86523.1
37	2.000000	1.161026	7.36541e+06	-40489.1	955.821	-29790.5	0.000000	0.000000	7.171688	245.266	NaN	0.000000	0.001684	0.001721	28.1153	75.7801	0.001778	42614.1	3.570321	173.172	245.612	1.160795	0.086031	0.085800	245.266	42614.1	0.081715	0.214979	1140.88	83970.8
37	2.000000	1.162886	7.36541e+06	-40489.1	955.821	-29790.5	0.000000	0.000000	7.174514	268.799	NaN	0.000000	0.001655	0.001724	28.1147	76.6139	0.001890	40534.5	6.243665	170.974	262.541	1.162666	0.087891	0.087671	268.799	40534.5	0.082917	0.220567	1218.67	78854.8
37	2.000000	1.164996	7.36541e+06	-40489.1	955.82	-29790.5	0.000000	0.000000	7.177208	282.991	NaN	0.000000	0.001681	0.001758	28.1144	79.0356	0.001898	41648.3	2.888855	174.615	280.278	1.164589	0.090001	0.089594	282.991	41648.3	0.084905	0.229951	1230.66	79351.1
37	2.000000	1.166990	7.36541e+06	-40489.1	955.822	-29790.5	0.000000	0.000000	7.179845	298.625	NaN	0.000000	0.001639	0.001735	28.115	81.4618	0.001842	44214.7	8.446128	168.2	296.476	1.166647	0.091996	0.091652	298.625	44214.7	0.086930	0.239696	1245.85	82510.6
37	2.000000	1.169009	7.36541e+06	-40489.1	955.82	-29790.5	0.000000	0.000000	7.182118	304.836	NaN	0.000000	0.001654	0.001756	28.1149	81.3934	0.001680	48445.2	3.435284	172.684	307.629	1.168646	0.094014	0.093651	304.836	48445.2	0.089295	0.251314	1212.97	88290.9
37	2.000000	1.170930	7.36541e+06	-40489.1	955.821	-29790.5	0.000000	0.000000	7.185197	333.007	NaN	0.000000	0.001654	0.001744	28.1161	85.4702	0.001933	44223.2	6.843917	169.896	328.809	1.170605	0.095935	0.095611	333.007	44223.2	0.090288	0.256270	1299.44	79813.2
37	2.000000	1.172910	7.36541e+06	-40489.1	955.82	-29790.5	0.000000	0.000000	7.187636	344.176	NaN	0.000000	0.001648	0.001776	28.1152	85.9361	0.001847	46519.5	3.122181	172.963	338.784	1.172647	0.097915	0.097652	344.176	46519.5	0.092366	0.266790	1290.06	82285.5
37	2.000000	1.174985	7.36541e+06	-40489.1	955.82	-29790.5	0.000000	0.000000	7.190142	354.639	NaN	0.000000	0.001624	0.001786	28.1158	88.5194	0.001799	49199.5	3.797700	171.692	352.053	1.174815	0.099990	0.099820	354.639	49199.5	0.094584	0.278234	1274.61	85217.5
37	2.000000	1.177047	7.36541e+06	-40489.1	955.819	-29790.5	0.000000	0.000000	7.193393	383.592	NaN	0.000000	0.001650	0.001779	28.1152	91.2918	0.001775	51420.7	8.324050	167.439	384.06	1.176656	0.102052	0.101661	383.592	51420.7	0.096457	0.288072	1331.58	87530.7
37	2.000000	1.178988	7.36541e+06	-40489.1	955.821	-29790.5	0.000000	0.000000	7.196113	402.543	NaN	0.000000	0.001660	0.001785	28.1161	91.683	0.001759	52124.2	5.560392	169.536	402.296	1.178797	0.103994	0.103802	402.543	52124.2	0.098201	0.297379	1353.64	87328.9
37	2.000000	1.180992	7.36541e+06	-40489.1	955.82	-29790.5	0.000000	0.000000	7.199053	425.333	NaN	0.000000	0.001641	0.001765	28.1144	94.5634	0.001775	53275.2	3.359027	171.536	422.586	1.180775	0.105997	0.105780	425.333	53275.2	0.100009	0.307169	1384.69	87823.2
37	2.000000	1.183021	7.36541e+06	-40489.1	955.82	-29790.5	0.000000	0.000000	7.201594	437.773	NaN	0.000000	0.001647	0.001804	28.1143	95.3364	0.001727	55207.3	5.976682	168.743	438.195	1.182772	0.108027	0.107777	437.773	55207.3	0.102080	0.318565	1374.21	89365.8
37	2.000000	1.185044	7.36541e+06	-40489.1	955.82	-29790.5	0.000000	0.000000	7.204455	458.169	NaN	0.000000	0.001690	0.001781	28.1148	97.2301	0.001668	58295.7	2.949816	171.358	459.101	1.184805	0.110050	0.109810	458.169	58295.7	0.104155	0.330185	1387.61	92689.5
37	2.000000	1.187035	7.36541e+06	-40489.1	955.821	-29790.5	0.000000	0.000000	7.207559	485.239	NaN	0.000000	0.001676	0.001799	28.1142	99.5178	0.001723	57771.8	5.455453	169.712	484.445	1.186625	0.112041	0.111630	485.239	57771.8	0.105741	0.339197	1430.55	90628.2
37	2.000000	1.189008	7.36541e+06	-40489.1	955.821	-29790.5	0.000000	0.000000	7.210514	509.163	NaN	0.000000	0.001662	0.001808	28.1144	102.256	0.001875	54535.7	4.929785	170.243	508.647	1.188628	0.114013	0.113633	509.163	54535.7	0.107011	0.346492	1469.48	84646.2
37	2.000000	1.191093	7.36541e+06	-40489.1	955.821	-29790.5	0.000000	0.000000	7.213214	524.123	NaN	0.000000	0.001666	0.001804	28.1161	103.376	0.001793	57641.3	4.295418	170.118	528.589	1.190778	0.116098	0.115783	524.123	57641.3	0.109279	0.359704	1457.09	87808
37	2.000000	1.192342	7.36541e+06	-40489.1	955.821	-29790.5	0.000000	0.000000	7.215867	558.272	NaN	0.000000	0.001637	0.001811	28.0809	103.362	0.001705	60609.8	7.319911	-13.0412	548.354	1.192040	0.117348	0.117046	558.272	60609.8	0.110440	0.366559	1523.01	91462.8