File: remote_trans/data/nanoindenter/0828-1/data/Data_2025-08-06,11h17m57s/2025-07-22_16-23-58_1_382.txt
2025-07-22, 16:23:58, 1
Index	Phase	Displacement	Time	Pos X	Pos Y	Pos Z	Rot A	Rot B	Piezo Z	Force A	Force B	Gripper	Voltage A	Voltage B	Temperature	Amplitude force	Amplitude pos	Stiffness	Phase shift	Phase excitation	Force A raw	Displacement raw	HMax	HMax raw	Real Force	Real Stiffness	Contact Depth	Area	Hardness	Reduced Mod.
[#]	[#]	[um]	[s]	[um]	[um]	[um]	[m°]	[m°]	[um]	[uN]	[uN]	[V]	[V]	[V]	[°C]	[uN]	[um]	[N/m]	[°]	[°]	[uN]	[um]	[um]	[um]	[uN]	[N/m]	[um]	[um^2]	[MPa]	[MPa]
382	1.000000	0.002483	7.3688e+06	-57739.1	955.818	-29736.7	0.000000	0.000000	6.002795	-0.056761	NaN	0.000000	0.001681	0.001664	28.0807	0.100732	0.000931	108.216	40.3422	-169.256	0.007314	0.001230	-1.057316	-1.058569	-0.056761	108.216	-1.056923	-1.322714E+14	4.291240E-16	NaN
382	1.000000	0.010437	7.3688e+06	-57739.1	955.818	-29736.7	0.000000	0.000000	6.010752	0.010515	NaN	0.000000	0.001681	0.001655	28.0805	0.051380	0.000970	52.9826	-19.3369	-161.786	0.052780	0.009104	-1.049362	-1.050695	0.010515	52.9826	-1.049511	-1.051575E+14	-9.999374E-17	NaN
382	1.000000	0.018437	7.3688e+06	-57739.1	955.818	-29736.7	0.000000	0.000000	6.018749	-0.057477	NaN	0.000000	0.001648	0.001649	28.0801	0.083411	0.001705	48.9171	-93.5843	-167.748	0.040649	0.017141	-1.041363	-1.042658	-0.057477	48.9171	-1.040481	-7.951351E+13	7.228640E-16	NaN
382	1.000000	0.026460	7.3688e+06	-57739.1	955.817	-29736.7	0.000000	0.000000	6.026775	0.001298	NaN	0.000000	0.001642	0.001621	28.08	0.061078	0.001912	31.9481	-176.9	-169.166	-0.040799	0.025180	-1.033339	-1.034620	0.001298	31.9481	-1.033370	-6.379785E+13	-2.033810E-17	NaN
382	1.000000	0.034427	7.3688e+06	-57739.1	955.818	-29736.7	0.000000	0.000000	6.034739	-0.075445	NaN	0.000000	0.001656	0.001619	28.0801	0.112075	0.001938	57.8233	-70.2427	-166.264	-0.133009	0.033127	-1.025372	-1.026672	-0.075445	57.8233	-1.024393	-4.831246E+13	1.561607E-15	NaN
382	1.000000	0.042423	7.3688e+06	-57739.1	955.819	-29736.7	0.000000	0.000000	6.042737	-0.024628	NaN	0.000000	0.001697	0.001633	28.08	0.062244	0.001971	31.5727	179.378	-166.003	-0.051696	0.041179	-1.017376	-1.018621	-0.024628	31.5727	-1.016791	-3.817471E+13	6.451306E-16	NaN
382	1.000000	0.050437	7.3688e+06	-57739.1	955.818	-29736.7	0.000000	0.000000	6.050751	-0.034590	NaN	0.000000	0.001698	0.001630	28.0804	0.147669	0.002107	70.0903	179.003	-163.949	0.003282	0.049168	-1.009362	-1.010631	-0.034590	70.0903	-1.008992	-2.997858E+13	1.153823E-15	NaN
382	1.000000	0.058444	7.3688e+06	-57739.1	955.819	-29736.7	0.000000	0.000000	6.058757	-0.047853	NaN	0.000000	0.001698	0.001650	28.0815	0.045193	0.001992	22.6886	-48.7125	-166.928	-0.041106	0.057137	-1.001355	-1.002662	-0.047853	22.6886	-0.999774	-2.252787E+13	2.124180E-15	NaN
382	1.000000	0.066460	7.3688e+06	-57739.1	955.818	-29736.7	0.000000	0.000000	6.066775	0.006462	NaN	0.000000	0.001650	0.001646	28.0813	0.112950	0.002005	56.3462	-80.3882	-167.184	-0.040748	0.065149	-0.993339	-0.994650	0.006462	56.3462	-0.993425	-1.850285E+13	-3.492293E-16	NaN
382	1.000000	0.074449	7.3688e+06	-57739.1	955.818	-29736.7	0.000000	0.000000	6.074766	0.043603	NaN	0.000000	0.001663	0.001665	28.0816	0.039880	0.002005	19.8921	164.986	-166.298	-0.025963	0.073100	-0.985350	-0.986700	0.043603	19.8921	-0.986994	-1.515730E+13	-2.876671E-15	NaN
382	1.000000	0.082426	7.3688e+06	-57739.1	955.818	-29736.7	0.000000	0.000000	6.082740	-0.030294	NaN	0.000000	0.001645	0.001638	28.0812	0.044247	0.002048	21.6088	-123.432	-166.447	0.004910	0.081098	-0.977373	-0.978701	-0.030294	21.6088	-0.976322	-1.088552E+13	2.782938E-15	NaN
382	1.000000	0.090456	7.3688e+06	-57739.1	955.819	-29736.7	0.000000	0.000000	6.090771	0.006927	NaN	0.000000	0.001647	0.001698	28.0814	0.022270	0.001996	11.1545	80.0447	-164.023	0.009397	0.089138	-0.969343	-0.970662	0.006927	11.1545	-0.969809	-8.893887E+12	-7.788468E-16	NaN
382	1.000000	0.098432	7.3688e+06	-57739.1	955.818	-29736.7	0.000000	0.000000	6.098744	-0.053504	NaN	0.000000	0.001662	0.001637	28.0815	0.112465	0.002083	54.0025	-169.806	-169.189	-0.051579	0.097112	-0.961368	-0.962687	-0.053504	54.0025	-0.960625	-6.687887E+12	8.000155E-15	NaN
382	1.000000	0.106450	7.3688e+06	-57739.1	955.818	-29736.7	0.000000	0.000000	6.106766	0.011694	NaN	0.000000	0.001642	0.001643	28.0814	0.064978	0.002035	31.937	115.535	-165.755	-0.023793	0.105113	-0.953349	-0.954686	0.011694	31.937	-0.953623	-5.381371E+12	-2.173062E-15	NaN
382	1.000000	0.114470	7.3688e+06	-57739.1	955.818	-29736.7	0.000000	0.000000	6.114782	-0.070377	NaN	0.000000	0.001650	0.001687	28.0816	0.054972	0.001924	28.5676	21.4308	-164.148	-0.029556	0.113091	-0.945329	-0.946708	-0.070377	28.5676	-0.943481	-3.927385E+12	1.791947E-14	NaN
382	1.000000	0.122452	7.3688e+06	-57739.1	955.818	-29736.7	0.000000	0.000000	6.122762	-0.099594	NaN	0.000000	0.001657	0.001697	28.0813	0.124984	0.001966	63.5764	-47.8226	-164.371	-0.119931	0.121144	-0.937348	-0.938655	-0.099594	63.5764	-0.936173	-3.129659E+12	3.182263E-14	NaN
382	1.000000	0.130462	7.3688e+06	-57739.1	955.819	-29736.7	0.000000	0.000000	6.130776	0.002275	NaN	0.000000	0.001649	0.001679	28.0812	0.059210	0.002029	29.184	35.8274	-164.901	-0.039391	0.129139	-0.929338	-0.930660	0.002275	29.184	-0.929396	-2.535393E+12	-8.971570E-16	NaN
382	1.000000	0.138466	7.3688e+06	-57739.1	955.819	-29736.7	0.000000	0.000000	6.138779	-0.051285	NaN	0.000000	0.001623	0.001709	28.0815	0.014887	0.001970	7.557779	51.2457	-168.209	0.056049	0.137174	-0.921333	-0.922625	-0.051285	7.557779	-0.916244	-1.684560E+12	3.044428E-14	NaN
382	1.000000	0.146469	7.3688e+06	-57739.1	955.819	-29736.7	0.000000	0.000000	6.146782	-0.060877	NaN	0.000000	0.001659	0.001675	28.0814	0.027856	0.001960	14.2158	-74.5497	-166.89	-0.085718	0.145174	-0.913330	-0.914625	-0.060877	14.2158	-0.910118	-1.392377E+12	4.372172E-14	NaN
382	1.000000	0.154475	7.3688e+06	-57739.1	955.818	-29736.7	0.000000	0.000000	6.154789	-0.023250	NaN	0.000000	0.001658	0.001706	28.082	0.079284	0.001961	40.4392	158.765	-165.148	0.019638	0.153143	-0.905324	-0.906656	-0.023250	40.4392	-0.904893	-1.183518E+12	1.964517E-14	NaN
382	1.000000	0.162481	7.3688e+06	-57739.1	955.817	-29736.7	0.000000	0.000000	6.162795	-0.006347	NaN	0.000000	0.001679	0.001691	28.0813	0.056757	0.002023	28.0574	137.785	-168.152	-0.113752	0.161213	-0.897318	-0.898586	-0.006347	28.0574	-0.897149	-9.301123E+11	6.823422E-15	NaN
382	1.000000	0.170466	7.3688e+06	-57739.1	955.818	-29736.7	0.000000	0.000000	6.170780	-0.022208	NaN	0.000000	0.001672	0.001669	28.0813	0.081895	0.001984	41.2736	12.7712	-164.987	-0.026665	0.169191	-0.889333	-0.890608	-0.022208	41.2736	-0.888930	-7.201907E+11	3.083634E-14	NaN
382	1.000000	0.178481	7.3688e+06	-57739.1	955.818	-29736.7	0.000000	0.000000	6.178794	-0.044012	NaN	0.000000	0.001660	0.001687	28.0813	0.087661	0.002018	43.4447	82.9307	-165.192	-0.007628	0.177131	-0.881318	-0.882669	-0.044012	43.4447	-0.880558	-5.549559E+11	7.930729E-14	NaN
382	1.000000	0.186488	7.3688e+06	-57739.1	955.818	-29736.8	0.000000	0.000000	6.186800	-0.071260	NaN	0.000000	0.001674	0.001689	28.0815	0.095439	0.001942	49.1454	-118.615	-165.09	-0.107441	0.185178	-0.873311	-0.874621	-0.071260	49.1454	-0.872224	-4.280847E+11	1.664618E-13	NaN
382	1.000000	0.194475	7.3688e+06	-57739.1	955.819	-29736.8	0.000000	0.000000	6.194789	-0.007443	NaN	0.000000	0.001707	0.001690	28.0803	0.097205	0.001932	50.3243	-6.829886	-165.586	-0.009948	0.193210	-0.865325	-0.866590	-0.007443	50.3243	-0.865214	-3.440974E+11	2.162912E-14	NaN
382	1.000000	0.202514	7.3688e+06	-57739.1	955.818	-29736.8	0.000000	0.000000	6.202829	0.018669	NaN	0.000000	0.001694	0.001680	28.0801	0.028525	0.001926	14.8079	-176.805	-166.896	-0.000489	0.201191	-0.857285	-0.858608	0.018669	14.8079	-0.858231	-2.768043E+11	-6.744534E-14	NaN
382	1.000000	0.210490	7.3688e+06	-57739.1	955.818	-29736.8	0.000000	0.000000	6.210805	-0.007062	NaN	0.000000	0.001688	0.001641	28.0803	0.031237	0.002090	14.9491	176.215	-166.455	-0.016555	0.209163	-0.849309	-0.850636	-0.007062	14.9491	-0.848955	-2.072920E+11	3.406548E-14	NaN
382	1.000000	0.218491	7.3688e+06	-57739.1	955.818	-29736.8	0.000000	0.000000	6.218802	-0.082803	NaN	0.000000	0.001646	0.001649	28.0803	0.076314	0.001900	40.1706	-145.655	-163.847	-0.079750	0.217229	-0.841308	-0.842570	-0.082803	40.1706	-0.839762	-1.556215E+11	5.320780E-13	NaN
382	1.000000	0.226535	7.3688e+06	-57739.1	955.818	-29736.8	0.000000	0.000000	6.226849	-0.018567	NaN	0.000000	0.001567	0.001641	28.0803	0.008453	0.001924	4.392707	-112.658	-163.641	-0.064253	0.225197	-0.833264	-0.834603	-0.018567	4.392707	-0.830094	-1.150943E+11	1.613205E-13	NaN
382	1.000000	0.234500	7.3688e+06	-57739.1	955.818	-29736.8	0.000000	0.000000	6.234812	-0.063120	NaN	0.000000	0.001579	0.001640	28.0801	0.021774	0.002032	10.7156	-141.344	-170.15	-0.085835	0.233197	-0.825299	-0.826602	-0.063120	10.7156	-0.820881	-8.632972E+10	7.311535E-13	NaN
382	1.000000	0.242497	7.3688e+06	-57739.1	955.818	-29736.8	0.000000	0.000000	6.242811	-0.013850	NaN	0.000000	0.001606	0.001670	28.0802	0.078789	0.002020	39.0018	15.4593	-166.75	-0.028598	0.241213	-0.817302	-0.818587	-0.013850	39.0018	-0.817036	-7.656216E+10	1.809032E-13	NaN
382	1.000000	0.250521	7.3688e+06	-57739.1	955.819	-29736.8	0.000000	0.000000	6.250832	-0.091572	NaN	0.000000	0.001577	0.001662	28.0804	0.073133	0.002044	35.7852	84.2912	-164.45	-0.101434	0.249195	-0.809278	-0.810604	-0.091572	35.7852	-0.807359	-5.658963E+10	1.618179E-12	NaN
382	1.000000	0.258509	7.3688e+06	-57739.1	955.818	-29736.8	0.000000	0.000000	6.258821	-0.069321	NaN	0.000000	0.001592	0.001688	28.0801	0.026611	0.002114	12.5859	79.7686	-168.061	-0.089513	0.257224	-0.801290	-0.802575	-0.069321	12.5859	-0.797159	-4.114292E+10	1.684889E-12	NaN
382	1.000000	0.266530	7.3688e+06	-57739.1	955.818	-29736.8	0.000000	0.000000	6.266841	-0.091988	NaN	0.000000	0.001598	0.001688	28.0802	0.113240	0.002085	54.3141	-82.7949	-168.274	-0.075929	0.265227	-0.793270	-0.794573	-0.091988	54.3141	-0.791999	-3.501350E+10	2.627222E-12	NaN
382	1.000000	0.274536	7.3688e+06	-57739.1	955.818	-29736.8	0.000000	0.000000	6.274851	-0.002555	NaN	0.000000	0.001575	0.001699	28.08	0.067407	0.001880	35.8481	-63.8041	-167.651	-0.031249	0.273196	-0.785263	-0.786603	-0.002555	35.8481	-0.785210	-2.831484E+10	9.024273E-14	NaN
382	1.000000	0.282549	7.3688e+06	-57739.1	955.818	-29736.8	0.000000	0.000000	6.282860	-0.083611	NaN	0.000000	0.001578	0.001690	28.08	0.074844	0.001970	37.9876	-44.5914	-166.329	-0.043287	0.281268	-0.777250	-0.778531	-0.083611	37.9876	-0.775600	-2.096186E+10	3.988719E-12	NaN
382	1.000000	0.290509	7.3688e+06	-57739.1	955.818	-29736.8	0.000000	0.000000	6.290821	-0.061058	NaN	0.000000	0.001572	0.001672	28.0804	0.062368	0.001980	31.492	155.618	-166.577	-0.020197	0.289229	-0.769290	-0.770570	-0.061058	31.492	-0.767836	-1.643926E+10	3.714176E-12	NaN
382	1.000000	0.298524	7.3688e+06	-57739.1	955.818	-29736.8	0.000000	0.000000	6.298835	-0.101118	NaN	0.000000	0.001595	0.001670	28.0802	0.151796	0.002073	73.2209	-136.505	-168.485	-0.086278	0.297216	-0.761275	-0.762583	-0.101118	73.2209	-0.760239	-1.295862E+10	7.803127E-12	NaN
382	1.000000	0.306509	7.3688e+06	-57739.1	955.818	-29736.8	0.000000	0.000000	6.306823	-0.021835	NaN	0.000000	0.001600	0.001692	28.0804	0.024764	0.001996	12.405	-87.5445	-166.437	-0.061160	0.305281	-0.753290	-0.754518	-0.021835	12.405	-0.751970	-1.000079E+10	2.183353E-12	NaN
382	1.000000	0.314555	7.3688e+06	-57739.1	955.818	-29736.8	0.000000	0.000000	6.314869	-0.026071	NaN	0.000000	0.001559	0.001706	28.0802	0.051083	0.001899	26.9059	-141.807	-166.599	-0.068359	0.313288	-0.745244	-0.746511	-0.026071	26.9059	-0.744518	-7.917326E+9	3.292905E-12	NaN
382	1.000000	0.322547	7.3688e+06	-57739.1	955.818	-29736.8	0.000000	0.000000	6.322861	-0.029606	NaN	0.000000	0.001578	0.001670	28.0805	0.055407	0.001966	28.1761	162.927	-165.526	-0.064226	0.321252	-0.737252	-0.738547	-0.029606	28.1761	-0.736464	-6.150161E+9	4.813901E-12	NaN
382	1.000000	0.330553	7.3688e+06	-57739.1	955.818	-29736.8	0.000000	0.000000	6.330865	-0.084298	NaN	0.000000	0.001589	0.001661	28.0817	0.134473	0.002001	67.1912	67.4902	-165.076	-0.108037	0.329213	-0.729246	-0.730586	-0.084298	67.1912	-0.728305	-4.761051E+9	1.770565E-11	NaN
382	1.000000	0.338575	7.3688e+06	-57739.1	955.817	-29736.8	0.000000	0.000000	6.338888	-0.027617	NaN	0.000000	0.001590	0.001656	28.0813	0.048347	0.002028	23.8415	28.5689	-167.037	0.025262	0.337281	-0.721225	-0.722518	-0.027617	23.8415	-0.720356	-3.709592E+9	7.444695E-12	NaN
382	1.000000	0.346562	7.3688e+06	-57739.1	955.819	-29736.8	0.000000	0.000000	6.346876	-0.012984	NaN	0.000000	0.001600	0.001667	28.0816	0.158386	0.002125	74.5302	153.615	-166.49	-0.029241	0.345216	-0.713237	-0.714584	-0.012984	74.5302	-0.713107	-2.954211E+9	4.395007E-12	NaN
382	1.000000	0.354557	7.3688e+06	-57739.1	955.819	-29736.8	0.000000	0.000000	6.354872	-0.003148	NaN	0.000000	0.001604	0.001697	28.0819	0.116822	0.002107	55.4551	-169.201	-169.279	-0.048388	0.353271	-0.705242	-0.706528	-0.003148	55.4551	-0.705200	-2.304230E+9	1.366233E-12	NaN
382	1.000000	0.362575	7.3688e+06	-57739.1	955.82	-29736.8	0.000000	0.000000	6.362887	-0.063753	NaN	0.000000	0.001575	0.001671	28.0819	0.047947	0.001850	25.9145	-120.615	-164.372	-0.030897	0.361275	-0.697224	-0.698524	-0.063753	25.9145	-0.695379	-1.692043E+9	3.767827E-11	NaN
382	1.000000	0.370562	7.3688e+06	-57739.1	955.818	-29736.8	0.000000	0.000000	6.370875	-0.040363	NaN	0.000000	0.001580	0.001673	28.0815	0.077664	0.001986	39.0978	-37.8805	-168.064	0.012898	0.369289	-0.689237	-0.690510	-0.040363	39.0978	-0.688463	-1.361151E+9	2.965368E-11	NaN
382	1.000000	0.378567	7.3688e+06	-57739.1	955.818	-29736.8	0.000000	0.000000	6.378882	0.018488	NaN	0.000000	0.001619	0.001667	28.0815	0.080523	0.001948	41.3259	-173.221	-164.792	-0.041873	0.377287	-0.681233	-0.682512	0.018488	41.3259	-0.681568	-1.095593E+9	-1.687480E-11	NaN
382	1.000000	0.386593	7.3688e+06	-57739.1	955.818	-29736.8	0.000000	0.000000	6.386904	-0.103444	NaN	0.000000	0.001590	0.001675	28.0818	0.009252	0.002030	4.558266	-68.9154	-164.291	-0.108396	0.385234	-0.673206	-0.674566	-0.103444	4.558266	-0.656186	-4.922831E+8	2.101303E-10	NaN
382	1.000000	0.394587	7.3688e+06	-57739.1	955.818	-29736.8	0.000000	0.000000	6.394901	-0.016746	NaN	0.000000	0.001570	0.001696	28.0813	0.027975	0.002067	13.5371	-157.704	-166.005	-0.037263	0.393267	-0.665213	-0.666532	-0.016746	13.5371	-0.664285	-6.355519E+8	2.634819E-11	NaN
382	1.000000	0.402599	7.3688e+06	-57739.1	955.818	-29736.8	0.000000	0.000000	6.402914	0.005173	NaN	0.000000	0.001573	0.001667	28.0814	0.081881	0.002101	38.9686	-122.809	-166.54	0.006158	0.401254	-0.657200	-0.658545	0.005173	38.9686	-0.657300	-5.098879E+8	-1.014501E-11	NaN
382	1.000000	0.410605	7.3688e+06	-57739.1	955.818	-29736.8	0.000000	0.000000	6.410918	-0.045621	NaN	0.000000	0.001565	0.001686	28.0814	0.134656	0.002043	65.9141	157.414	-166.343	-0.021045	0.409274	-0.649194	-0.650526	-0.045621	65.9141	-0.648675	-3.883885E+8	1.174616E-10	NaN
382	1.000000	0.418575	7.3688e+06	-57739.1	955.818	-29736.8	0.000000	0.000000	6.418890	0.001401	NaN	0.000000	0.001583	0.001666	28.0815	0.062165	0.001982	31.3639	54.6173	-167.606	-0.057767	0.417269	-0.641224	-0.642530	0.001401	31.3639	-0.641258	-3.072883E+8	-4.558147E-12	NaN
382	1.000000	0.426586	7.3688e+06	-57739.1	955.818	-29736.8	0.000000	0.000000	6.426899	-0.038404	NaN	0.000000	0.001591	0.001720	28.0816	0.048836	0.001962	24.8946	137.665	-168.397	0.013006	0.425305	-0.633213	-0.634494	-0.038404	24.8946	-0.632056	-2.297502E+8	1.671547E-10	NaN
382	1.000000	0.434595	7.3688e+06	-57739.1	955.818	-29736.8	0.000000	0.000000	6.434909	-0.028499	NaN	0.000000	0.001575	0.001672	28.0815	0.111348	0.002097	53.0908	131.803	-169.275	-0.074321	0.433275	-0.625204	-0.626524	-0.028499	53.0908	-0.624801	-1.826478E+8	1.560320E-10	NaN
382	1.000000	0.442619	7.3688e+06	-57739.1	955.818	-29736.8	0.000000	0.000000	6.442933	0.004407	NaN	0.000000	0.001564	0.001703	28.0819	0.019791	0.001947	10.1633	159.478	-164.513	-0.016540	0.441285	-0.617181	-0.618515	0.004407	10.1633	-0.617506	-1.449925E+8	-3.039131E-11	NaN
382	1.000000	0.450584	7.3688e+06	-57739.1	955.818	-29736.8	0.000000	0.000000	6.450894	-0.109123	NaN	0.000000	0.001539	0.001699	28.0815	0.050704	0.001964	25.8147	-81.5301	-170.713	-0.099446	0.449387	-0.609216	-0.610412	-0.109123	25.8147	-0.606045	-1.008535E+8	1.081994E-9	NaN
382	1.000000	0.458597	7.3688e+06	-57739.1	955.819	-29736.8	0.000000	0.000000	6.458908	-0.080289	NaN	0.000000	0.001576	0.001702	28.0814	0.015698	0.002004	7.832023	-87.3112	-166.61	-0.012430	0.457288	-0.601202	-0.602512	-0.080289	7.832023	-0.593514	-6.778013E+7	1.184543E-9	NaN
382	1.000000	0.466603	7.3688e+06	-57739.1	955.818	-29736.8	0.000000	0.000000	6.466915	-0.057251	NaN	0.000000	0.001586	0.001703	28.0804	0.115624	0.001928	59.9573	-102.703	-167.377	-0.068572	0.465309	-0.593196	-0.594490	-0.057251	59.9573	-0.592480	-6.559275E+7	8.728317E-10	NaN
382	1.000000	0.474600	7.3688e+06	-57739.1	955.818	-29736.8	0.000000	0.000000	6.474914	-0.019928	NaN	0.000000	0.001548	0.001735	28.0801	0.052262	0.001969	26.537	115.012	-165.435	-0.091094	0.473275	-0.585199	-0.586524	-0.019928	26.537	-0.584636	-5.113240E+7	3.897332E-10	NaN
382	1.000000	0.482591	7.3688e+06	-57739.1	955.818	-29736.8	0.000000	0.000000	6.482907	0.025911	NaN	0.000000	0.001572	0.001696	28.0803	0.092675	0.001837	50.4433	175.909	-163.517	0.054513	0.481264	-0.577208	-0.578535	0.025911	50.4433	-0.577593	-4.087906E+7	-6.338503E-10	NaN
382	1.000000	0.490594	7.3688e+06	-57739.1	955.818	-29736.8	0.000000	0.000000	6.490905	-0.081202	NaN	0.000000	0.001559	0.001701	28.0798	0.152834	0.001914	79.8708	68.3071	-163.21	-0.038926	0.489278	-0.569205	-0.570521	-0.081202	79.8708	-0.568443	-3.055701E+7	2.657383E-9	NaN
382	1.000000	0.498622	7.3688e+06	-57739.1	955.816	-29736.8	0.000000	0.000000	6.498933	-0.072491	NaN	0.000000	0.001572	0.001696	28.08	0.039907	0.002017	19.7865	35.6578	-166.286	-0.014072	0.497318	-0.561177	-0.562481	-0.072491	19.7865	-0.558430	-2.221536E+7	3.263115E-9	NaN
382	1.000000	0.506636	7.3688e+06	-57739.1	955.818	-29736.8	0.000000	0.000000	6.506950	-0.016066	NaN	0.000000	0.001508	0.001659	28.0802	0.023738	0.001993	11.9122	-139.354	-166.362	-0.058086	0.505286	-0.553164	-0.554513	-0.016066	11.9122	-0.552152	-1.818694E+7	8.833716E-10	NaN
382	1.000000	0.514637	7.3688e+06	-57739.1	955.818	-29736.8	0.000000	0.000000	6.514952	0.020068	NaN	0.000000	0.001545	0.001695	28.08	0.060273	0.002091	28.8301	48.2952	-165.233	-0.035613	0.513304	-0.545163	-0.546495	0.020068	28.8301	-0.545685	-1.479678E+7	-1.356254E-9	NaN
382	1.000000	0.522670	7.3688e+06	-57739.1	955.818	-29736.8	0.000000	0.000000	6.522984	-0.014279	NaN	0.000000	0.001578	0.001659	28.0802	0.048849	0.001921	25.4232	-117.659	-165.616	0.013113	0.521322	-0.537129	-0.538478	-0.014279	25.4232	-0.536708	-1.110945E+7	1.285330E-9	NaN
382	1.000000	0.530653	7.3688e+06	-57739.1	955.818	-29736.8	0.000000	0.000000	6.530967	-0.028773	NaN	0.000000	0.001624	0.001672	28.0798	0.124630	0.001989	62.6686	136.007	-167.542	-0.033579	0.529303	-0.529146	-0.530496	-0.028773	62.6686	-0.528801	-8.62836e+06	3.334660E-9	NaN
382	1.000000	0.538657	7.3688e+06	-57739.1	955.817	-29736.8	0.000000	0.000000	6.538969	-0.060472	NaN	0.000000	0.001607	0.001703	28.0798	0.095758	0.002063	46.4124	126.102	-162.868	-0.076370	0.537325	-0.521142	-0.522474	-0.060472	46.4124	-0.520165	-6.54471e+06	9.239782E-9	NaN
382	1.000000	0.546669	7.3688e+06	-57739.1	955.819	-29736.8	0.000000	0.000000	6.546983	-0.018050	NaN	0.000000	0.001647	0.001678	28.0801	0.051958	0.002070	25.1063	87.8529	-165.362	0.072232	0.545325	-0.513130	-0.514474	-0.018050	25.1063	-0.512591	-5.13445e+06	3.515540E-9	NaN
382	1.000000	0.554661	7.3688e+06	-57739.1	955.819	-29736.8	0.000000	0.000000	6.554976	0.014109	NaN	0.000000	0.001623	0.001717	28.0803	0.030979	0.002037	15.2073	-112.565	-166.355	-0.007456	0.553348	-0.505138	-0.506451	0.014109	15.2073	-0.505834	-4.13399e+06	-3.412872E-9	NaN
382	1.000000	0.562646	7.3688e+06	-57739.1	955.819	-29736.8	0.000000	0.000000	6.562957	-0.090136	NaN	0.000000	0.001643	0.001748	28.0802	0.120348	0.001966	61.212	141.85	-168.875	-0.110202	0.561346	-0.497153	-0.498453	-0.090136	61.212	-0.496049	-3.0191e+06	2.985523E-8	NaN
382	1.000000	0.570680	7.3688e+06	-57739.1	955.818	-29736.8	0.000000	0.000000	6.570994	-0.024889	NaN	0.000000	0.001595	0.001731	28.08	0.031286	0.002041	15.3272	147.177	-167.591	-0.075142	0.569343	-0.489119	-0.490456	-0.024889	15.3272	-0.487901	-2.32305e+06	1.071411E-8	NaN
382	1.000000	0.578645	7.3688e+06	-57739.1	955.818	-29736.8	0.000000	0.000000	6.578960	0.008283	NaN	0.000000	0.001619	0.001700	28.0801	0.035311	0.002052	17.2066	128.158	-170.686	-0.058138	0.577348	-0.481155	-0.482451	0.008283	17.2066	-0.481516	-1.89123e+06	-4.379767E-9	NaN
382	1.000000	0.586641	7.3688e+06	-57739.1	955.818	-29736.8	0.000000	0.000000	6.586953	-0.052544	NaN	0.000000	0.001621	0.001698	28.08	0.121594	0.002037	59.703	69.1919	-166.76	-0.056986	0.585408	-0.473159	-0.474391	-0.052544	59.703	-0.472499	-1.41397e+06	3.716034E-8	NaN
382	1.000000	0.594658	7.3688e+06	-57739.1	955.818	-29736.8	0.000000	0.000000	6.594972	-0.026927	NaN	0.000000	0.001574	0.001715	28.0801	0.063269	0.002060	30.7087	-73.4293	-166.871	0.006686	0.593336	-0.465141	-0.466463	-0.026927	30.7087	-0.464484	-1.09143e+06	2.467089E-8	NaN
382	1.000000	0.602662	7.3688e+06	-57739.1	955.818	-29736.8	0.000000	0.000000	6.602978	0.032550	NaN	0.000000	0.001586	0.001745	28.0813	0.023924	0.001969	12.1499	84.0293	-168.124	0.049554	0.601386	-0.457137	-0.458413	0.032550	12.1499	-0.459146	-918375	-3.544336E-8	NaN
382	1.000000	0.610665	7.3688e+06	-57739.1	955.818	-29736.8	0.000000	0.000000	6.610977	-0.069661	NaN	0.000000	0.001568	0.001695	28.0816	0.134241	0.001828	73.4209	169.561	-167.107	-0.109630	0.609402	-0.449134	-0.450397	-0.069661	73.4209	-0.448423	-648824	1.073645E-7	NaN
382	1.000000	0.618700	7.3688e+06	-57739.1	955.818	-29736.8	0.000000	0.000000	6.619013	-0.039781	NaN	0.000000	0.001568	0.001717	28.0814	0.055377	0.001961	28.2418	-55.4309	-164.806	-0.033016	0.617373	-0.441099	-0.442426	-0.039781	28.2418	-0.440042	-494269	8.048555E-8	NaN
382	1.000000	0.626676	7.3688e+06	-57739.1	955.819	-29736.8	0.000000	0.000000	6.626990	-0.031326	NaN	0.000000	0.001579	0.001678	28.0815	0.046094	0.001941	23.7482	108.884	-164.644	-0.099682	0.625315	-0.433123	-0.434484	-0.031326	23.7482	-0.432134	-382154	8.197253E-8	NaN
382	1.000000	0.634676	7.3688e+06	-57739.1	955.819	-29736.8	0.000000	0.000000	6.634990	-0.015601	NaN	0.000000	0.001625	0.001718	28.0816	0.066100	0.001848	35.7677	-149.135	-166.72	-0.057140	0.633430	-0.425123	-0.426369	-0.015601	35.7677	-0.424796	-300881	5.185156E-8	NaN
382	1.000000	0.642681	7.3688e+06	-57739.1	955.819	-29736.8	0.000000	0.000000	6.642992	-0.094588	NaN	0.000000	0.001648	0.001704	28.0818	0.012278	0.002107	5.826706	162.395	-165.097	-0.060182	0.641404	-0.417118	-0.418396	-0.094588	5.826706	-0.404943	-157193	6.017339E-7	NaN
382	1.000000	0.650691	7.3688e+06	-57739.1	955.818	-29736.8	0.000000	0.000000	6.651000	-0.139930	NaN	0.000000	0.001628	0.001723	28.0817	0.046361	0.002093	22.1461	174.003	-164.438	-0.093492	0.649325	-0.409108	-0.410474	-0.139930	22.1461	-0.404369	-154264	9.070823E-7	NaN
382	1.000000	0.658721	7.3688e+06	-57739.1	955.819	-29736.8	0.000000	0.000000	6.659034	-0.032666	NaN	0.000000	0.001596	0.001713	28.0815	0.101716	0.001970	51.6413	177.783	-167.262	-0.048992	0.657380	-0.401078	-0.402419	-0.032666	51.6413	-0.400604	-136335	2.395979E-7	NaN
382	1.000000	0.666693	7.3688e+06	-57739.1	955.818	-29736.8	0.000000	0.000000	6.667006	-0.052825	NaN	0.000000	0.001585	0.001719	28.0815	0.048449	0.002028	23.8868	-60.0501	-163.81	-0.039669	0.665423	-0.393106	-0.394376	-0.052825	23.8868	-0.391448	-100895	5.235671E-7	NaN
382	1.000000	0.674690	7.3688e+06	-57739.1	955.819	-29736.8	0.000000	0.000000	6.675002	-0.075588	NaN	0.000000	0.001658	0.001737	28.0814	0.074918	0.001909	39.2374	76.6773	-164.355	-0.070015	0.673336	-0.385109	-0.386463	-0.075588	39.2374	-0.383664	-78062.4	9.682994E-7	NaN
382	1.000000	0.682687	7.3688e+06	-57739.1	955.818	-29736.8	0.000000	0.000000	6.683001	-0.022116	NaN	0.000000	0.001725	0.001709	28.0815	0.074312	0.002016	36.8702	-152.871	-166.256	-0.099148	0.681401	-0.377112	-0.378398	-0.022116	36.8702	-0.376662	-61938.4	3.570672E-7	NaN
382	1.000000	0.690686	7.3688e+06	-57739.1	955.818	-29736.8	0.000000	0.000000	6.691002	0.022577	NaN	0.000000	0.001671	0.001752	28.0817	0.030216	0.002029	14.8906	-4.597805	-165.19	0.080056	0.689385	-0.369113	-0.370414	0.022577	14.8906	-0.370250	-50087.8	-4.507388E-7	NaN
382	1.000000	0.698702	7.3688e+06	-57739.1	955.819	-29736.8	0.000000	0.000000	6.699016	-0.026718	NaN	0.000000	0.001682	0.001730	28.0817	0.085043	0.002070	41.0868	157.863	-168.233	-0.077883	0.697445	-0.361097	-0.362354	-0.026718	41.0868	-0.360609	-36362.4	7.347835E-7	NaN
382	1.000000	0.706731	7.3688e+06	-57739.1	955.819	-29736.8	0.000000	0.000000	6.707046	-0.015425	NaN	0.000000	0.001698	0.001711	28.0814	0.077995	0.001928	40.4454	137.069	-168.947	-0.003363	0.705403	-0.353068	-0.354397	-0.015425	40.4454	-0.352782	-28012.5	5.506495E-7	NaN
382	1.000000	0.714734	7.3688e+06	-57739.1	955.817	-29736.8	0.000000	0.000000	6.715047	-0.039602	NaN	0.000000	0.001682	0.001750	28.0816	0.087331	0.001963	44.4884	137.08	-166.511	-0.140730	0.713362	-0.345065	-0.346437	-0.039602	44.4884	-0.344398	-21163.7	1.871233E-6	NaN
382	1.000000	0.722743	7.3688e+06	-57739.1	955.819	-29736.8	0.000000	0.000000	6.723055	-0.057323	NaN	0.000000	0.001636	0.001716	28.0815	0.020110	0.001954	10.2911	7.800049	-164.028	-0.032204	0.721400	-0.337056	-0.338400	-0.057323	10.2911	-0.332879	-14374.1	3.987931E-6	NaN
382	1.000000	0.730723	7.3688e+06	-57739.1	955.817	-29736.8	0.000000	0.000000	6.731035	-0.050783	NaN	0.000000	0.001661	0.001707	28.0819	0.114333	0.002005	57.0327	-26.9702	-166.862	-0.077624	0.729443	-0.329077	-0.330356	-0.050783	57.0327	-0.328409	-12363.4	4.107535E-6	NaN
382	1.000000	0.738706	7.3688e+06	-57739.1	955.818	-29736.8	0.000000	0.000000	6.739019	-0.056507	NaN	0.000000	0.001683	0.001741	28.0804	0.040798	0.002020	20.2005	106.296	-167.81	-0.018560	0.737409	-0.321093	-0.322391	-0.056507	20.2005	-0.318995	-8991.69	6.284358E-6	NaN
382	1.000000	0.746742	7.3688e+06	-57739.1	955.817	-29736.8	0.000000	0.000000	6.747057	0.001508	NaN	0.000000	0.001699	0.001714	28.0806	0.052831	0.001922	27.4899	165.424	-165.516	0.006811	0.745429	-0.313057	-0.314371	0.001508	27.4899	-0.313098	-7359.79	-2.049414E-7	NaN
382	1.000000	0.754703	7.3688e+06	-57739.1	955.818	-29736.8	0.000000	0.000000	6.755017	-0.020065	NaN	0.000000	0.001682	0.001707	28.0809	0.097128	0.002056	47.2337	-99.9729	-171.445	-0.077590	0.753410	-0.305096	-0.306390	-0.020065	47.2337	-0.304777	-5541.81	3.620565E-6	NaN
382	1.000000	0.762728	7.3688e+06	-57739.1	955.817	-29736.8	0.000000	0.000000	6.763041	-0.037459	NaN	0.000000	0.001686	0.001692	28.0804	0.108903	0.001873	58.1364	98.4788	-166.894	-0.032090	0.761455	-0.297072	-0.298344	-0.037459	58.1364	-0.296588	-4185.96	8.948653E-6	NaN
382	1.000000	0.770743	7.3688e+06	-57739.1	955.819	-29736.8	0.000000	0.000000	6.771055	-0.065451	NaN	0.000000	0.001691	0.001684	28.0806	0.090960	0.001973	46.1042	136.093	-166.107	-0.117383	0.769431	-0.289056	-0.290369	-0.065451	46.1042	-0.287991	-3113.05	2.102474E-5	NaN
382	1.000000	0.778736	7.3688e+06	-57739.1	955.818	-29736.8	0.000000	0.000000	6.779050	-0.026228	NaN	0.000000	0.001691	0.001709	28.0803	0.087749	0.001996	43.9525	117.713	-170.151	-0.033891	0.777449	-0.281063	-0.282351	-0.026228	43.9525	-0.280615	-2411.31	1.087702E-5	NaN
382	1.000000	0.786728	7.3688e+06	-57739.1	955.819	-29736.8	0.000000	0.000000	6.787041	-0.031892	NaN	0.000000	0.001685	0.001700	28.0802	0.074115	0.001956	37.8985	9.666574	-162.641	-0.026238	0.785411	-0.273071	-0.274388	-0.031892	37.8985	-0.272440	-1813.85	1.758236E-5	NaN
382	1.000000	0.794711	7.3688e+06	-57739.1	955.818	-29736.8	0.000000	0.000000	6.795025	-0.032820	NaN	0.000000	0.001692	0.001719	28.0805	0.030701	0.001905	16.1135	-5.688986	-162.79	0.006855	0.793448	-0.265088	-0.266351	-0.032820	16.1135	-0.263560	-1328.63	2.470178E-5	NaN
382	1.000000	0.802779	7.3688e+06	-57739.1	955.818	-29736.8	0.000000	0.000000	6.803091	-0.051704	NaN	0.000000	0.001741	0.001717	28.0803	0.065794	0.001979	33.2444	26.8165	-164.384	-0.073299	0.801469	-0.257021	-0.258330	-0.051704	33.2444	-0.255854	-1012.19	5.108124E-5	NaN
382	1.000000	0.810745	7.3688e+06	-57739.1	955.817	-29736.8	0.000000	0.000000	6.811056	-0.093771	NaN	0.000000	0.001692	0.001677	28.0804	0.025042	0.001936	12.9369	124.265	-167.445	-0.061743	0.809422	-0.249054	-0.250377	-0.093771	12.9369	-0.243618	-654.576	0.000143	NaN
382	1.000000	0.818781	7.3688e+06	-57739.1	955.819	-29736.8	0.000000	0.000000	6.819094	-0.022624	NaN	0.000000	0.001690	0.001702	28.0802	0.026338	0.002063	12.7668	6.810024	-163.178	-0.107761	0.817483	-0.241019	-0.242316	-0.022624	12.7668	-0.239690	-568.463	3.979813E-5	NaN
382	1.000000	0.826752	7.3688e+06	-57739.1	955.819	-29736.8	0.000000	0.000000	6.827069	0.064200	NaN	0.000000	0.001684	0.001707	28.0803	0.031138	0.001911	16.2932	104.23	-165.652	0.007455	0.825508	-0.233048	-0.234291	0.064200	16.2932	-0.236003	-497.723	-0.000129	NaN
382	1.000000	0.834789	7.3688e+06	-57739.1	955.819	-29736.8	0.000000	0.000000	6.835100	-0.086009	NaN	0.000000	0.001664	0.001699	28.0804	0.114384	0.001915	59.737	82.4702	-168.557	-0.124477	0.833490	-0.225011	-0.226309	-0.086009	59.737	-0.223931	-320.878	0.000268	NaN
382	1.000000	0.842752	7.3688e+06	-57739.1	955.818	-29736.8	0.000000	0.000000	6.843067	0.024140	NaN	0.000000	0.001715	0.001702	28.0804	0.070961	0.002055	34.5289	69.324	-165.483	-0.051361	0.841423	-0.217047	-0.218376	0.024140	34.5289	-0.217572	-253.987	-9.504442E-5	NaN
382	1.000000	0.850756	7.3688e+06	-57739.1	955.819	-29736.8	0.000000	0.000000	6.851071	0.003224	NaN	0.000000	0.001680	0.001712	28.0802	0.023800	0.001960	12.1422	-19.0753	-167.086	0.003742	0.849484	-0.209044	-0.210316	0.003224	12.1422	-0.209243	-186.444	-1.729252E-5	NaN
382	1.000000	0.858799	7.3688e+06	-57739.1	955.817	-29736.8	0.000000	0.000000	6.859114	0.004286	NaN	0.000000	0.001646	0.001676	28.0803	0.052097	0.002029	25.6798	90.2572	-164.832	-0.031708	0.857465	-0.201000	-0.202334	0.004286	25.6798	-0.201125	-137.459	-3.117902E-5	NaN
382	1.000000	0.866790	7.3688e+06	-57739.1	955.818	-29736.8	0.000000	0.000000	6.867103	-0.035501	NaN	0.000000	0.001655	0.001717	28.0801	0.093731	0.002052	45.6874	64.5489	-164.941	0.000838	0.865451	-0.193009	-0.194348	-0.035501	45.6874	-0.192426	-98.7363	0.000360	NaN
382	1.000000	0.874800	7.3688e+06	-57739.1	955.819	-29736.8	0.000000	0.000000	6.875111	-0.085741	NaN	0.000000	0.001691	0.001706	28.0815	0.102817	0.001961	52.4315	162.697	-164.555	-0.085138	0.873473	-0.185000	-0.186326	-0.085741	52.4315	-0.183773	-70.7018	0.001213	NaN
382	1.000000	0.882790	7.3688e+06	-57739.1	955.819	-29736.8	0.000000	0.000000	6.883102	-0.072860	NaN	0.000000	0.001689	0.001733	28.0813	0.105656	0.002130	49.612	-63.2085	-164.361	0.011761	0.881445	-0.177009	-0.178355	-0.072860	49.612	-0.175908	-51.9478	0.001403	NaN
382	1.000000	0.890810	7.3688e+06	-57739.1	955.819	-29736.8	0.000000	0.000000	6.891123	-0.041570	NaN	0.000000	0.001677	0.001703	28.0816	0.135074	0.002097	64.4117	115.853	-166.486	-0.022147	0.889498	-0.168989	-0.170301	-0.041570	64.4117	-0.168505	-38.6908	0.001074	NaN
382	1.000000	0.898796	7.3688e+06	-57739.1	955.818	-29736.8	0.000000	0.000000	6.899109	-0.049820	NaN	0.000000	0.001697	0.001699	28.0814	0.129015	0.001910	67.546	-171.496	-164.029	0.016099	0.897488	-0.161003	-0.162311	-0.049820	67.546	-0.160450	-27.9237	0.001784	NaN
382	1.000000	0.906809	7.3688e+06	-57739.1	955.819	-29736.8	0.000000	0.000000	6.907123	-0.037235	NaN	0.000000	0.001736	0.001695	28.0816	0.054744	0.002075	26.3818	-121.612	-168.013	-0.098315	0.905485	-0.152990	-0.154315	-0.037235	26.3818	-0.151931	-19.6397	0.001896	NaN
382	1.000000	0.914787	7.3688e+06	-57739.1	955.818	-29736.8	0.000000	0.000000	6.915100	-0.048043	NaN	0.000000	0.001727	0.001709	28.0817	0.063159	0.002045	30.8899	-168.361	-165.102	-0.049917	0.913544	-0.145012	-0.146255	-0.048043	30.8899	-0.143845	-13.9563	0.003442	NaN
382	1.000000	0.922807	7.3688e+06	-57739.1	955.819	-29736.8	0.000000	0.000000	6.923118	-0.075117	NaN	0.000000	0.001748	0.001690	28.0814	0.014442	0.002019	7.154180	-10.7136	-167.755	-0.087439	0.921504	-0.136992	-0.138295	-0.075117	7.154180	-0.129118	-7.325596	0.010254	NaN
382	1.000000	0.930792	7.3688e+06	-57739.1	955.818	-29736.8	0.000000	0.000000	6.931105	-0.038697	NaN	0.000000	0.001714	0.001657	28.0818	0.105343	0.002068	50.9383	-135.252	-167.75	-0.119868	0.929500	-0.129007	-0.130300	-0.038697	50.9383	-0.128437	-7.105110	0.005446	NaN
382	1.000000	0.938804	7.3688e+06	-57739.1	955.817	-29736.8	0.000000	0.000000	6.939119	0.016594	NaN	0.000000	0.001700	0.001663	28.0816	0.016075	0.002060	7.805088	58.7559	-167.938	-0.051380	0.937519	-0.120995	-0.122280	0.016594	7.805088	-0.122590	-5.446082	-0.003047	NaN
382	1.000000	0.946799	7.3688e+06	-57739.1	955.819	-29736.8	0.000000	0.000000	6.947113	-0.031539	NaN	0.000000	0.001614	0.001659	28.0814	0.041584	0.002068	20.111	76.7944	-162.292	-0.056764	0.945512	-0.113000	-0.114288	-0.031539	20.111	-0.111824	-3.282213	0.009609	NaN
382	1.000000	0.954789	7.3688e+06	-57739.1	955.818	-29736.8	0.000000	0.000000	6.955098	-0.119650	NaN	0.000000	0.001599	0.001627	28.0816	0.081673	0.002027	40.2999	117.795	-166.654	-0.120437	0.953583	-0.105011	-0.106216	-0.119650	40.2999	-0.102784	-2.103931	0.056870	NaN
382	1.000000	0.962791	7.3688e+06	-57739.1	955.819	-29736.8	0.000000	0.000000	6.963104	-0.049498	NaN	0.000000	0.001611	0.001639	28.0816	0.107334	0.001939	55.3531	-157.307	-164.542	-0.087645	0.961547	-0.097008	-0.098253	-0.049498	55.3531	-0.096338	-1.512796	0.032720	NaN
382	1.000000	0.970805	7.3688e+06	-57739.1	955.818	-29736.8	0.000000	0.000000	6.971115	-0.102602	NaN	0.000000	0.001572	0.001644	28.0815	0.101072	0.002021	50.005	-155.248	-162.363	-0.026492	0.969512	-0.088995	-0.090287	-0.102602	50.005	-0.087456	-0.941137	0.109019	NaN
382	1.000000	0.978815	7.3688e+06	-57739.1	955.819	-29736.8	0.000000	0.000000	6.979128	-0.036798	NaN	0.000000	0.001562	0.001625	28.0815	0.062333	0.002015	30.9391	23.1016	-164.434	-0.093386	0.977534	-0.080984	-0.082265	-0.036798	30.9391	-0.080092	-0.622287	0.059133	NaN
382	1.000000	0.986828	7.3688e+06	-57739.1	955.819	-29736.8	0.000000	0.000000	6.987144	0.023536	NaN	0.000000	0.001600	0.001659	28.0815	0.060057	0.001970	30.4832	29.7371	-164.098	0.039233	0.985557	-0.072971	-0.074242	0.023536	30.4832	-0.073550	-0.423467	-0.055580	NaN
382	1.000000	0.994823	7.3688e+06	-57739.1	955.818	-29736.8	0.000000	0.000000	6.995136	-0.036968	NaN	0.000000	0.001614	0.001663	28.0817	0.032296	0.001923	16.7989	-108.317	-162.681	-0.070748	0.993556	-0.064976	-0.066244	-0.036968	16.7989	-0.063326	-0.223799	0.165185	NaN
382	1.000000	1.002818	7.3688e+06	-57739.1	955.818	-29736.8	0.000000	0.000000	7.003135	0.042357	NaN	0.000000	0.001611	0.001675	28.0817	0.073564	0.001876	39.2127	-61.1979	-162.814	-0.011223	1.001453	-0.056981	-0.058347	0.042357	39.2127	-0.057791	-0.155483	-0.272424	NaN
382	1.000000	1.010853	7.3688e+06	-57739.1	955.817	-29736.8	0.000000	0.000000	7.011165	-0.063602	NaN	0.000000	0.001624	0.001668	28.0807	0.095416	0.002042	46.7364	77.4236	-164.876	-0.004790	1.009485	-0.048946	-0.050315	-0.063602	46.7364	-0.047925	-0.078937	0.805735	NaN
382	1.000000	1.018842	7.3688e+06	-57739.1	955.818	-29736.8	0.000000	0.000000	7.019156	-0.014660	NaN	0.000000	0.001609	0.001688	28.0806	0.086875	0.002033	42.7259	-151.273	-163.367	-0.012064	1.017497	-0.040957	-0.042302	-0.014660	42.7259	-0.040700	-0.047494	0.308667	NaN
382	1.000000	1.026860	7.3688e+06	-57739.1	955.818	-29736.8	0.000000	0.000000	7.027171	-0.072607	NaN	0.000000	0.001586	0.001702	28.0803	0.144364	0.002058	70.1478	-91.7014	-165.569	-0.072696	1.025549	-0.032940	-0.034250	-0.072607	70.1478	-0.032163	-0.026489	2.740973	NaN
382	1.000000	1.034842	7.3688e+06	-57739.1	955.818	-29736.8	0.000000	0.000000	7.035158	0.010775	NaN	0.000000	0.001597	0.001707	28.0802	0.060168	0.001958	30.727	-78.7717	-165.381	-0.054889	1.033553	-0.024957	-0.026246	0.010775	30.727	-0.025220	-0.017095	-0.630304	NaN
382	1.000000	1.042850	7.3688e+06	-57739.1	955.818	-29736.8	0.000000	0.000000	7.043161	-0.073136	NaN	0.000000	0.001610	0.001685	28.0801	0.024522	0.002001	12.2577	-82.3692	-165.999	-0.018546	1.041476	-0.016950	-0.018324	-0.073136	12.2577	-0.012475	-0.007800	9.376107	NaN
382	1.000000	1.050852	7.3688e+06	-57739.1	955.818	-29736.8	0.000000	0.000000	7.051167	0.012776	NaN	0.000000	0.001591	0.001651	28.08	0.070479	0.002076	33.9543	23.3916	-163.384	-0.082851	1.049541	-0.008947	-0.010258	0.012776	33.9543	-0.009229	-0.005945	-2.148946	NaN
382	1.000000	1.058860	7.3688e+06	-57739.1	955.819	-29736.8	0.000000	0.000000	7.059172	-0.063676	NaN	0.000000	0.001639	0.001609	28.0802	0.068650	0.001950	35.1983	108.072	-162.222	-0.065587	1.057508	-0.000939	-0.002291	-0.063676	35.1983	0.000418	0.000315	-202.193	1812.13
382	1.000000	1.066848	7.3688e+06	-57739.1	955.819	-29736.8	0.000000	0.000000	7.067329	4.042650	NaN	0.000000	0.001570	0.001574	28.0802	5.011524	0.001747	2868.1	14.2096	-170.03	3.161365	1.065492	0.007049	0.005693	4.042650	2868.1	0.005991	0.005056	799.513	36850.8
382	2.000000	1.072353	7.3688e+06	-57739.1	955.818	-29736.8	0.000000	0.000000	7.073076	9.908342	NaN	0.000000	0.001566	0.001598	28.0807	10.1241	0.001810	5594.49	10.8846	-175.764	9.448799	1.072093	0.012554	0.012293	9.908342	5594.49	0.011226	0.010576	936.881	49702.2
382	2.000000	1.074365	7.3688e+06	-57739.1	955.818	-29736.8	0.000000	0.000000	7.075179	12.1325	NaN	0.000000	0.001604	0.001621	28.0798	11.944	0.001803	6625.95	3.702667	-170.078	11.1944	1.074101	0.014566	0.014302	12.1325	6625.95	0.013192	0.012950	936.88	53197.2
382	2.000000	1.076366	7.3688e+06	-57739.1	955.818	-29736.8	0.000000	0.000000	7.077262	14.1293	NaN	0.000000	0.001619	0.001641	28.0797	13.8808	0.001689	8219.23	6.716549	-174.694	13.7337	1.076073	0.016567	0.016274	14.1293	8219.23	0.015277	0.015657	902.419	60013.3
382	2.000000	1.078359	7.3688e+06	-57739.1	955.818	-29736.8	0.000000	0.000000	7.079416	18.0377	NaN	0.000000	0.001604	0.001644	28.0797	16.4259	0.001785	9200.88	7.164327	-175.079	17.9106	1.078010	0.018560	0.018211	18.0377	9200.88	0.017090	0.018174	992.522	62356.5
382	2.000000	1.080362	7.3688e+06	-57739.1	955.818	-29736.8	0.000000	0.000000	7.081560	21.4802	NaN	0.000000	0.001615	0.001605	28.08	18.595	0.001838	10116.5	7.843344	-175.662	21.1728	1.080065	0.020562	0.020266	21.4802	10116.5	0.018970	0.020950	1025.33	63857.8
382	2.000000	1.082305	7.3688e+06	-57739.1	955.818	-29736.8	0.000000	0.000000	7.083613	24.1467	NaN	0.000000	0.001630	0.001604	28.0801	20.1892	0.001724	11707.8	6.654754	-176.776	23.7739	1.082039	0.022506	0.022239	24.1467	11707.8	0.020959	0.024071	1003.13	68944.4
382	2.000000	1.084317	7.3688e+06	-57739.1	955.818	-29736.8	0.000000	0.000000	7.085904	30.9117	NaN	0.000000	0.001615	0.001645	28.0801	22.8999	0.001903	12035.3	6.453969	-177.051	29.6225	1.083934	0.024518	0.024135	30.9117	12035.3	0.022592	0.026780	1154.3	67193.4
382	2.000000	1.086310	7.3688e+06	-57739.1	955.818	-29736.8	0.000000	0.000000	7.088006	33.5737	NaN	0.000000	0.001643	0.001630	28.0799	24.1108	0.001663	14498.7	5.001527	-179.208	31.3412	1.086006	0.026511	0.026206	33.5737	14498.7	0.024774	0.030606	1096.95	75717.6
382	2.000000	1.088307	7.3688e+06	-57739.1	955.819	-29736.8	0.000000	0.000000	7.090097	35.8664	NaN	0.000000	0.001592	0.001618	28.08	26.1956	0.001786	14665.7	6.772202	-179.261	35.4379	1.087975	0.028508	0.028176	35.8664	14665.7	0.026674	0.034131	1050.85	72527.8
382	2.000000	1.090318	7.3688e+06	-57739.1	955.819	-29736.8	0.000000	0.000000	7.092313	40.8301	NaN	0.000000	0.001609	0.001623	28.0807	28.0662	0.001744	16096.3	4.898970	-177.841	39.6321	1.090048	0.030519	0.030249	40.8301	16096.3	0.028617	0.037925	1076.6	75515.3
382	2.000000	1.092289	7.3688e+06	-57739.1	955.818	-29736.8	0.000000	0.000000	7.094564	47.6393	NaN	0.000000	0.001627	0.001647	28.0818	29.9599	0.001826	16408.1	5.773318	-179.299	46.3711	1.091958	0.032490	0.032158	47.6393	16408.1	0.030312	0.041393	1150.9	73683.3
382	2.000000	1.094297	7.3688e+06	-57739.1	955.819	-29736.8	0.000000	0.000000	7.096826	53.8044	NaN	0.000000	0.001613	0.001618	28.0814	31.9127	0.001805	17678.7	6.209009	-179.308	52.8018	1.093981	0.034498	0.034181	53.8044	17678.7	0.032215	0.045460	1183.54	75754.1
382	2.000000	1.096316	7.3688e+06	-57739.1	955.819	-29736.8	0.000000	0.000000	7.099040	58.545	NaN	0.000000	0.001627	0.001635	28.0812	32.963	0.001717	19194.4	4.810381	-179.832	58.3264	1.096008	0.036517	0.036209	58.545	19194.4	0.034229	0.049967	1171.68	78452.9
382	2.000000	1.098248	7.3688e+06	-57739.1	955.819	-29736.8	0.000000	0.000000	7.101289	66.2428	NaN	0.000000	0.001625	0.001622	28.0809	35.8013	0.001861	19237.7	4.239140	-179.006	63.5527	1.097882	0.038449	0.038083	66.2428	19237.7	0.035866	0.053783	1231.67	75788.7
382	2.000000	1.100268	7.3688e+06	-57739.1	955.819	-29736.8	0.000000	0.000000	7.103604	73.4256	NaN	0.000000	0.001616	0.001660	28.0815	37.6357	0.001745	21562	3.328550	-179.829	70.4229	1.099945	0.040469	0.040146	73.4256	21562	0.037915	0.058751	1249.77	81274.2
382	2.000000	1.102289	7.3688e+06	-57739.1	955.818	-29736.8	0.000000	0.000000	7.105941	81.0961	NaN	0.000000	0.001605	0.001618	28.0813	39.393	0.001768	22276.8	4.355991	-179.895	80.5833	1.101997	0.042490	0.042198	81.0961	22276.8	0.039760	0.063409	1278.94	80825.9
382	2.000000	1.104266	7.3688e+06	-57739.1	955.819	-29736.8	0.000000	0.000000	7.108216	88.3533	NaN	0.000000	0.001653	0.001621	28.0813	42.8073	0.001911	22405.2	6.686377	177.434	87.0713	1.103895	0.044467	0.044095	88.3533	22405.2	0.041509	0.067988	1299.55	78506.9
382	2.000000	1.106331	7.3688e+06	-57739.1	955.819	-29736.8	0.000000	0.000000	7.110588	95.8163	NaN	0.000000	0.001607	0.001607	28.0811	44.189	0.001804	24489.4	6.965752	176.146	97.2305	1.105876	0.046532	0.046076	95.8163	24489.4	0.043597	0.073655	1300.88	82442.4
382	2.000000	1.108240	7.3688e+06	-57739.1	955.818	-29736.8	0.000000	0.000000	7.112703	100.818	NaN	0.000000	0.001597	0.001653	28.0812	44.7179	0.001699	26325.8	1.051021	-178.772	98.3456	1.107946	0.048441	0.048147	100.818	26325.8	0.045569	0.079211	1272.77	85459.8
382	2.000000	1.110295	7.3688e+06	-57739.1	955.818	-29736.8	0.000000	0.000000	7.115252	112.832	NaN	0.000000	0.001626	0.001623	28.0814	48.055	0.001769	27168.1	7.791251	175.294	111.68	1.109869	0.050495	0.050070	112.832	27168.1	0.047380	0.084489	1335.47	85395.1
382	2.000000	1.112261	7.3688e+06	-57739.1	955.819	-29736.8	0.000000	0.000000	7.117544	120.743	NaN	0.000000	0.001607	0.001618	28.0819	50.0587	0.001721	29087	10.1201	172.328	121.513	1.111863	0.052462	0.052064	120.743	29087	0.049349	0.090411	1335.5	88381.6
382	2.000000	1.114236	7.3688e+06	-57739.1	955.819	-29736.8	0.000000	0.000000	7.119498	120.244	NaN	0.000000	0.001639	0.001613	28.0814	52.8455	0.001767	29904	6.621311	173.867	117.069	1.114093	0.054437	0.054294	120.244	29904	0.051421	0.096856	1241.47	87788.8
382	2.000000	1.116273	7.3688e+06	-57739.1	955.819	-29736.8	0.000000	0.000000	7.122189	136.134	NaN	0.000000	0.001580	0.001655	28.0823	53.2587	0.001881	28321.1	4.774370	177.037	136.75	1.115926	0.056474	0.056127	136.134	28321.1	0.052869	0.101486	1341.4	81223
382	2.000000	1.118273	7.3688e+06	-57739.1	955.82	-29736.8	0.000000	0.000000	7.124462	142.776	NaN	0.000000	0.001590	0.001639	28.0813	56.3897	0.001854	30415.8	8.396898	174.14	142.896	1.117847	0.058474	0.058048	142.776	30415.8	0.054953	0.108335	1317.9	84428.1
382	2.000000	1.120296	7.3688e+06	-57739.1	955.819	-29736.8	0.000000	0.000000	7.126833	151.211	NaN	0.000000	0.001610	0.001611	28.0815	57.9084	0.001909	30332	5.464159	176.959	151.308	1.119938	0.060497	0.060139	151.211	30332	0.056758	0.114441	1321.3	81918.7
382	2.000000	1.122195	7.3688e+06	-57739.1	955.819	-29736.8	0.000000	0.000000	7.129219	163.079	NaN	0.000000	0.001594	0.001623	28.0812	58.1608	0.001668	34867.4	0.899997	179.067	159.18	1.121920	0.062395	0.062120	163.079	34867.4	0.058888	0.121849	1338.37	91260.1
382	2.000000	1.124201	7.3688e+06	-57739.1	955.818	-29736.8	0.000000	0.000000	7.131767	176.219	NaN	0.000000	0.001611	0.001611	28.0809	61.6571	0.001679	36725.2	4.672214	174.189	173.508	1.123944	0.064402	0.064145	176.219	36725.2	0.060803	0.128705	1369.17	93527.6
382	2.000000	1.126193	7.3688e+06	-57739.1	955.82	-29736.8	0.000000	0.000000	7.134117	184.932	NaN	0.000000	0.001628	0.001666	28.0802	63.0258	0.001757	35867	5.740561	173.938	181.727	1.125874	0.066394	0.066075	184.932	35867	0.062527	0.135026	1369.6	89178.3
382	2.000000	1.128223	7.3688e+06	-57739.1	955.819	-29736.8	0.000000	0.000000	7.136530	194.242	NaN	0.000000	0.001615	0.001672	28.08	65.3591	0.001758	37183.5	4.081212	175.542	190.436	1.127863	0.068424	0.068064	194.242	37183.5	0.064506	0.142459	1363.5	90007.5
382	2.000000	1.130210	7.3688e+06	-57739.1	955.819	-29736.8	0.000000	0.000000	7.139200	210.851	NaN	0.000000	0.001621	0.001644	28.0802	68.2464	0.001777	38398.3	8.279798	171.641	207.22	1.129823	0.070410	0.070024	210.851	38398.3	0.066292	0.149332	1411.96	90783.8
382	2.000000	1.132279	7.3688e+06	-57739.1	955.819	-29736.8	0.000000	0.000000	7.141452	215.288	NaN	0.000000	0.001625	0.001672	28.0802	69.7238	0.001749	39868	10.1982	168.906	219.585	1.131981	0.072480	0.072182	215.288	39868	0.068430	0.157759	1364.66	91706.5
382	2.000000	1.134258	7.3688e+06	-57739.1	955.819	-29736.8	0.000000	0.000000	7.143937	227.585	NaN	0.000000	0.001601	0.001640	28.0802	72.2688	0.001823	39649.9	6.466109	173.115	227.342	1.133838	0.074459	0.074039	227.585	39649.9	0.070154	0.164716	1381.68	89258
382	2.000000	1.136225	7.3688e+06	-57739.1	955.819	-29736.8	0.000000	0.000000	7.146506	242.217	NaN	0.000000	0.001604	0.001623	28.0806	72.8944	0.001879	38795.2	2.947514	176.38	241.513	1.135987	0.076426	0.076187	242.217	38795.2	0.071743	0.171252	1414.39	85651.2
382	2.000000	1.138258	7.3688e+06	-57739.1	955.82	-29736.8	0.000000	0.000000	7.148778	248.035	NaN	0.000000	0.001625	0.001636	28.0799	75.8915	0.001868	40634.9	5.196264	174.162	249.702	1.137855	0.078459	0.078056	248.035	40634.9	0.073881	0.180231	1376.2	87449.6
382	2.000000	1.140298	7.3688e+06	-57739.1	955.819	-29736.8	0.000000	0.000000	7.151475	263.996	NaN	0.000000	0.001607	0.001643	28.0799	76.4297	0.001683	45423.3	5.163926	173.941	265.468	1.139972	0.080499	0.080173	263.996	45423.3	0.076140	0.189958	1389.76	95218.9
382	2.000000	1.142179	7.3688e+06	-57739.1	955.82	-29736.8	0.000000	0.000000	7.154223	285.087	NaN	0.000000	0.001597	0.001649	28.0802	77.0359	0.001703	45227.1	1.218047	177.569	283.538	1.141806	0.082379	0.082006	285.087	45227.1	0.077652	0.196599	1450.09	93192.5
382	2.000000	1.144256	7.3688e+06	-57739.1	955.82	-29736.8	0.000000	0.000000	7.156484	289.542	NaN	0.000000	0.001562	0.001671	28.08	80.8926	0.001823	44379.1	6.275164	172	288.383	1.143985	0.084457	0.084186	289.542	44379.1	0.079563	0.205151	1411.36	89518.9
382	2.000000	1.146189	7.3688e+06	-57739.1	955.818	-29736.8	0.000000	0.000000	7.159174	307.917	NaN	0.000000	0.001703	0.001689	28.0802	82.1811	0.001745	47091.9	8.337303	170.161	305.038	1.145889	0.086390	0.086090	307.917	47091.9	0.081486	0.213925	1439.37	93022.6
382	2.000000	1.148255	7.3688e+06	-57739.1	955.82	-29736.8	0.000000	0.000000	7.161775	320.932	NaN	0.000000	0.001662	0.001652	28.0801	84.1688	0.001781	47246.1	5.043967	173.347	322.747	1.147796	0.088456	0.087997	320.932	47246.1	0.083361	0.222645	1441.45	91481.3
382	2.000000	1.150272	7.3688e+06	-57739.1	955.82	-29736.8	0.000000	0.000000	7.164354	334.591	NaN	0.000000	0.001689	0.001650	28.08	87.0475	0.001814	47977.9	5.696491	172.678	334.384	1.149885	0.090473	0.090086	334.591	47977.9	0.085242	0.231559	1444.95	91092.7
382	2.000000	1.152190	7.3688e+06	-57739.1	955.82	-29736.8	0.000000	0.000000	7.166744	346.057	NaN	0.000000	0.001679	0.001659	28.0801	86.8841	0.001685	51557.4	1.401101	176.216	344.618	1.151927	0.092391	0.092128	346.057	51557.4	0.087357	0.241773	1431.33	95798.8
382	2.000000	1.154182	7.3688e+06	-57739.1	955.82	-29736.8	0.000000	0.000000	7.169569	366.308	NaN	0.000000	0.001643	0.001707	28.0801	90.6884	0.001827	49637	3.415453	174.695	363.537	1.153825	0.094383	0.094026	366.308	49637	0.088848	0.249099	1470.53	90864.1
382	2.000000	1.156203	7.3688e+06	-57739.1	955.82	-29736.8	0.000000	0.000000	7.172097	378.648	NaN	0.000000	0.001607	0.001697	28.0799	90.786	0.001724	52661.3	2.233739	175.044	377.822	1.155865	0.096404	0.096066	378.648	52661.3	0.091011	0.259909	1456.85	94374.5
382	2.000000	1.158173	7.3688e+06	-57739.1	955.819	-29736.8	0.000000	0.000000	7.174747	395.173	NaN	0.000000	0.001591	0.001694	28.0801	93.9326	0.001807	51994.9	4.603355	173.02	393.177	1.157840	0.098374	0.098041	395.173	51994.9	0.092674	0.268363	1472.53	91700.8
382	2.000000	1.160263	7.3688e+06	-57739.1	955.819	-29736.8	0.000000	0.000000	7.177434	409.683	NaN	0.000000	0.001635	0.001688	28.0813	96.9889	0.001838	52780.1	6.776454	170.868	411.091	1.159879	0.100463	0.100080	409.683	52780.1	0.094642	0.278534	1470.85	91370
382	2.000000	1.162222	7.3688e+06	-57739.1	955.819	-29736.8	0.000000	0.000000	7.180133	427.643	NaN	0.000000	0.001626	0.001664	28.0812	97.416	0.001759	55366.5	5.404860	171.433	429.187	1.161846	0.102423	0.102047	427.643	55366.5	0.096630	0.288988	1479.79	94098
382	2.000000	1.164097	7.3688e+06	-57739.1	955.819	-29736.8	0.000000	0.000000	7.182764	446.019	NaN	0.000000	0.001636	0.001700	28.0815	99.2387	0.001794	55322.7	4.163547	173.235	439.572	1.163878	0.104298	0.104078	446.019	55322.7	0.098251	0.297646	1498.49	92646
382	2.000000	1.166065	7.3688e+06	-57739.1	955.82	-29736.8	0.000000	0.000000	7.185229	458.11	NaN	0.000000	0.001623	0.001682	28.0813	99.772	0.001785	55888.2	3.187854	173.982	452.184	1.165678	0.106266	0.105879	458.11	55888.2	0.100118	0.307763	1488.52	92041.8
382	2.000000	1.168243	7.3688e+06	-57739.1	955.819	-29736.8	0.000000	0.000000	7.187765	466.819	NaN	0.000000	0.001671	0.001698	28.0813	104.185	0.001879	55457.2	6.309845	170.36	468.495	1.167973	0.108444	0.108173	466.819	55457.2	0.102131	0.318848	1464.08	89730.3
382	2.000000	1.170294	7.3688e+06	-57739.1	955.819	-29736.8	0.000000	0.000000	7.190548	484.583	NaN	0.000000	0.001611	0.001672	28.0814	105.048	0.001799	58382.2	5.570443	171.695	489.2	1.169900	0.110495	0.110101	484.583	58382.2	0.104270	0.330834	1464.73	92736.1