File: remote_trans/data/nanoindenter/0828-1/data/Data_2025-08-06,11h17m57s/2025-07-22_16-23-58_1_396.txt
2025-07-22, 16:23:58, 1
Index	Phase	Displacement	Time	Pos X	Pos Y	Pos Z	Rot A	Rot B	Piezo Z	Force A	Force B	Gripper	Voltage A	Voltage B	Temperature	Amplitude force	Amplitude pos	Stiffness	Phase shift	Phase excitation	Force A raw	Displacement raw	HMax	HMax raw	Real Force	Real Stiffness	Contact Depth	Area	Hardness	Reduced Mod.
[#]	[#]	[um]	[s]	[um]	[um]	[um]	[m°]	[m°]	[um]	[uN]	[uN]	[V]	[V]	[V]	[°C]	[uN]	[um]	[N/m]	[°]	[°]	[uN]	[um]	[um]	[um]	[uN]	[N/m]	[um]	[um^2]	[MPa]	[MPa]
396	1.000000	0.002754	7.36893e+06	-57289.1	1005.82	-29737.2	0.000000	0.000000	6.002832	-0.061952	NaN	0.000000	0.001608	0.001709	28.0806	0.041313	0.000956	43.2189	-104.169	-162.2	-0.043369	0.001446	-1.092339	-1.093648	-0.061952	43.2189	-1.091264	-3.826336E+14	1.619090E-16	NaN
396	1.000000	0.012781	7.36893e+06	-57289.1	1005.82	-29737.2	0.000000	0.000000	6.012862	0.001824	NaN	0.000000	0.001571	0.001683	28.081	0.041287	0.001191	34.662	-114.933	16.8148	0.012240	0.011357	-1.082312	-1.083736	0.001824	34.662	-1.082352	-2.904739E+14	-6.278014E-18	NaN
396	1.000000	0.022712	7.36893e+06	-57289.1	1005.82	-29737.2	0.000000	0.000000	6.022794	0.044460	NaN	0.000000	0.001560	0.001684	28.0811	0.069576	0.001837	37.8667	-32.1186	-163.642	0.033892	0.021394	-1.072382	-1.073699	0.044460	37.8667	-1.073262	-2.192898E+14	-2.027447E-16	NaN
396	1.000000	0.032657	7.36893e+06	-57289.1	1005.82	-29737.2	0.000000	0.000000	6.032736	-0.053849	NaN	0.000000	0.001583	0.001687	28.0812	0.062971	0.002046	30.779	-105.032	15.9676	-0.074510	0.031297	-1.062436	-1.063796	-0.053849	30.779	-1.061124	-1.506349E+14	3.574813E-16	NaN
396	1.000000	0.042675	7.36893e+06	-57289.1	1005.82	-29737.2	0.000000	0.000000	6.042754	-0.041860	NaN	0.000000	0.001568	0.001670	28.0812	0.020602	0.001969	10.4648	-31.7542	-161.356	-0.006862	0.041393	-1.052418	-1.053700	-0.041860	10.4648	-1.049418	-1.048558E+14	3.992163E-16	NaN
396	1.000000	0.052677	7.36893e+06	-57289.1	1005.82	-29737.2	0.000000	0.000000	6.052756	-0.042315	NaN	0.000000	0.001583	0.001684	28.0812	0.012543	0.001877	6.681589	115.338	16.0286	-0.006212	0.051344	-1.042416	-1.043750	-0.042315	6.681589	-1.037666	-7.287610E+13	5.806410E-16	NaN
396	1.000000	0.062673	7.36893e+06	-57289.1	1005.82	-29737.2	0.000000	0.000000	6.062754	0.016703	NaN	0.000000	0.001594	0.001684	28.0811	0.051529	0.002093	24.625	45.8405	-163.131	0.052386	0.061346	-1.032421	-1.033748	0.016703	24.625	-1.032929	-6.293348E+13	-2.654110E-16	NaN
396	1.000000	0.072682	7.36893e+06	-57289.1	1005.82	-29737.2	0.000000	0.000000	6.072762	-0.010163	NaN	0.000000	0.001597	0.001698	28.0813	0.019514	0.001927	10.1271	29.0964	13.4433	-0.108840	0.071277	-1.022412	-1.023816	-0.010163	10.1271	-1.021659	-4.438863E+13	2.289562E-16	NaN
396	1.000000	0.082675	7.36893e+06	-57289.1	1005.82	-29737.2	0.000000	0.000000	6.082754	-0.028308	NaN	0.000000	0.001600	0.001665	28.0813	0.060355	0.002046	29.4952	-95.5714	-167.906	-0.002364	0.081346	-1.012418	-1.013747	-0.028308	29.4952	-1.011699	-3.260200E+13	8.683027E-16	NaN
396	1.000000	0.092676	7.36893e+06	-57289.1	1005.82	-29737.2	0.000000	0.000000	6.092757	-0.004184	NaN	0.000000	0.001601	0.001641	28.081	0.109456	0.001966	55.6811	157.154	12.869	-0.009000	0.091353	-1.002417	-1.003740	-0.004184	55.6811	-1.002361	-2.440919E+13	1.714080E-16	NaN
396	1.000000	0.102679	7.36893e+06	-57289.1	1005.82	-29737.2	0.000000	0.000000	6.102760	-0.004356	NaN	0.000000	0.001609	0.001685	28.0811	0.116089	0.002122	54.6991	-143.267	-166.557	-0.067742	0.101324	-0.992414	-0.993769	-0.004356	54.6991	-0.992354	-1.789866E+13	2.433813E-16	NaN
396	1.000000	0.112704	7.36893e+06	-57289.1	1005.82	-29737.2	0.000000	0.000000	6.112783	-0.021960	NaN	0.000000	0.001623	0.001666	28.0815	0.069511	0.001977	35.1559	81.3546	10.3925	0.016160	0.111339	-0.982390	-0.983755	-0.021960	35.1559	-0.981921	-1.295075E+13	1.695648E-15	NaN
396	1.000000	0.122683	7.36893e+06	-57289.1	1005.82	-29737.2	0.000000	0.000000	6.122762	-0.033492	NaN	0.000000	0.001618	0.001640	28.0812	0.104164	0.002025	51.4383	96.4616	-168.014	-0.102516	0.121425	-0.972410	-0.973669	-0.033492	51.4383	-0.971922	-9.496526E+12	3.526713E-15	NaN
396	1.000000	0.132704	7.36893e+06	-57289.1	1005.82	-29737.2	0.000000	0.000000	6.132780	-0.112440	NaN	0.000000	0.001588	0.001657	28.0811	0.067301	0.001974	34.0894	23.6928	13.3217	-0.022185	0.131362	-0.962389	-0.963732	-0.112440	34.0894	-0.959916	-6.542321E+12	1.718653E-14	NaN
396	1.000000	0.142713	7.36893e+06	-57289.1	1005.82	-29737.2	0.000000	0.000000	6.142794	0.016643	NaN	0.000000	0.001616	0.001684	28.0812	0.015672	0.002137	7.332372	-14.8228	-161.907	-0.003702	0.141431	-0.952381	-0.953663	0.016643	7.332372	-0.954083	-5.458738E+12	-3.048787E-15	NaN
396	1.000000	0.152714	7.36893e+06	-57289.1	1005.82	-29737.2	0.000000	0.000000	6.152795	0.016065	NaN	0.000000	0.001618	0.001681	28.0801	0.122455	0.001930	63.4445	-2.345450	15.1296	-0.006656	0.151365	-0.942380	-0.943728	0.016065	63.4445	-0.942569	-3.817696E+12	-4.208162E-15	NaN
396	1.000000	0.162690	7.36893e+06	-57289.1	1005.82	-29737.3	0.000000	0.000000	6.162769	-0.037735	NaN	0.000000	0.001626	0.001673	28.0802	0.103618	0.001952	53.0954	17.6039	-161.805	-0.017716	0.161428	-0.932403	-0.933665	-0.037735	53.0954	-0.931870	-2.738026E+12	1.378191E-14	NaN
396	1.000000	0.172728	7.36893e+06	-57289.1	1005.82	-29737.3	0.000000	0.000000	6.172807	-0.020912	NaN	0.000000	0.001620	0.001662	28.08	0.037699	0.001860	20.2731	-12.7209	16.8423	-0.028496	0.171364	-0.922366	-0.923729	-0.020912	20.2731	-0.921592	-1.989313E+12	1.051219E-14	NaN
396	1.000000	0.182725	7.36893e+06	-57289.1	1005.82	-29737.3	0.000000	0.000000	6.182804	-0.059227	NaN	0.000000	0.001616	0.001663	28.0803	0.034024	0.001923	17.6946	-74.6693	-166.775	0.008285	0.181391	-0.912368	-0.913702	-0.059227	17.6946	-0.909858	-1.381145E+12	4.288257E-14	NaN
396	1.000000	0.192758	7.36893e+06	-57289.1	1005.82	-29737.3	0.000000	0.000000	6.192838	-0.008194	NaN	0.000000	0.001631	0.001605	28.0801	0.079158	0.002094	37.8037	96.7637	12.6844	-0.071849	0.191377	-0.902336	-0.903716	-0.008194	37.8037	-0.902173	-1.087507E+12	7.534799E-15	NaN
396	1.000000	0.202722	7.36894e+06	-57289.1	1005.82	-29737.3	0.000000	0.000000	6.202801	-0.019952	NaN	0.000000	0.001593	0.001654	28.0804	0.069844	0.001943	35.942	108.023	-165.225	-0.027604	0.201407	-0.892372	-0.893686	-0.019952	35.942	-0.891955	-7.913092E+11	2.521442E-14	NaN
396	1.000000	0.212725	7.36894e+06	-57289.1	1005.82	-29737.3	0.000000	0.000000	6.212801	-0.111891	NaN	0.000000	0.001591	0.001670	28.0801	0.067634	0.002028	33.3476	154.274	12.8897	-0.029434	0.211352	-0.882369	-0.883741	-0.111891	33.3476	-0.879852	-5.428859E+11	2.061045E-13	NaN
396	1.000000	0.222727	7.36894e+06	-57289.1	1005.82	-29737.3	0.000000	0.000000	6.222806	-0.042129	NaN	0.000000	0.001565	0.001673	28.0805	0.110061	0.002052	53.6415	-105.719	-165.035	-0.017793	0.221440	-0.872366	-0.873653	-0.042129	53.6415	-0.871777	-4.221730E+11	9.979068E-14	NaN
396	1.000000	0.232756	7.36894e+06	-57289.1	1005.82	-29737.3	0.000000	0.000000	6.232836	-0.022885	NaN	0.000000	0.001552	0.001693	28.0802	0.121679	0.002028	60.0012	-147.1	16.4695	0.061994	0.231354	-0.862337	-0.863740	-0.022885	60.0012	-0.862051	-3.118021E+11	7.339606E-14	NaN
396	1.000000	0.242752	7.36894e+06	-57289.1	1005.82	-29737.3	0.000000	0.000000	6.242832	-0.020237	NaN	0.000000	0.001607	0.001701	28.0802	0.079264	0.002158	36.7386	-12.2119	-162.188	0.009423	0.241479	-0.852341	-0.853615	-0.020237	36.7386	-0.851928	-2.274289E+11	8.898160E-14	NaN
396	1.000000	0.252767	7.36894e+06	-57289.1	1005.82	-29737.3	0.000000	0.000000	6.252845	-0.063642	NaN	0.000000	0.001639	0.001670	28.0802	0.078519	0.001957	40.1154	-166.051	16.4679	-0.082807	0.251367	-0.842326	-0.843726	-0.063642	40.1154	-0.841136	-1.624386E+11	3.917922E-13	NaN
396	1.000000	0.262766	7.36894e+06	-57289.1	1005.82	-29737.3	0.000000	0.000000	6.262845	-0.043399	NaN	0.000000	0.001607	0.001636	28.0803	0.083753	0.002000	41.8788	5.486962	-165.795	-0.068388	0.261441	-0.832327	-0.833653	-0.043399	41.8788	-0.831550	-1.204457E+11	3.603217E-13	NaN
396	1.000000	0.272763	7.36894e+06	-57289.1	1005.82	-29737.3	0.000000	0.000000	6.272844	0.018097	NaN	0.000000	0.001591	0.001640	28.0804	0.054462	0.002138	25.4783	-111.984	14.3224	0.003083	0.271402	-0.822331	-0.823691	0.018097	25.4783	-0.822863	-9.184151E+10	-1.970481E-13	NaN
396	1.000000	0.282789	7.36894e+06	-57289.1	1005.82	-29737.3	0.000000	0.000000	6.282870	0.011198	NaN	0.000000	0.001615	0.001677	28.081	0.018355	0.001963	9.350275	-167.443	-163.379	0.066397	0.281416	-0.812305	-0.813677	0.011198	9.350275	-0.813203	-6.792414E+10	-1.648571E-13	NaN
396	1.000000	0.292783	7.36894e+06	-57289.1	1005.82	-29737.3	0.000000	0.000000	6.292862	-0.018926	NaN	0.000000	0.001597	0.001714	28.0815	0.075537	0.001953	38.6687	112.721	15.3365	-0.081314	0.291352	-0.802311	-0.803741	-0.018926	38.6687	-0.801944	-4.777994E+10	3.961018E-13	NaN
396	1.000000	0.302764	7.36894e+06	-57289.1	1005.82	-29737.3	0.000000	0.000000	6.302842	-0.053756	NaN	0.000000	0.001635	0.001646	28.0813	0.039865	0.002113	18.8681	3.237987	-169.14	-0.084442	0.301522	-0.792329	-0.793572	-0.053756	18.8681	-0.790193	-3.309026E+10	1.624537E-12	NaN
396	1.000000	0.312754	7.36894e+06	-57289.1	1005.82	-29737.3	0.000000	0.000000	6.312830	-0.110977	NaN	0.000000	0.001635	0.001676	28.0814	0.123517	0.002051	60.2154	129.029	14.2038	-0.158689	0.311433	-0.782340	-0.783661	-0.110977	60.2154	-0.780958	-2.478810E+10	4.477039E-12	NaN
396	1.000000	0.322764	7.36894e+06	-57289.1	1005.82	-29737.3	0.000000	0.000000	6.322844	-0.018851	NaN	0.000000	0.001624	0.001694	28.0814	0.080351	0.002133	37.6717	-82.1225	-163.537	0.024850	0.321500	-0.772330	-0.773593	-0.018851	37.6717	-0.771954	-1.870145E+10	1.007977E-12	NaN
396	1.000000	0.332817	7.36894e+06	-57289.1	1005.82	-29737.3	0.000000	0.000000	6.332897	-0.005769	NaN	0.000000	0.001619	0.001671	28.0814	0.090010	0.001964	45.8193	-116.235	16.0048	0.060922	0.331407	-0.762276	-0.763686	-0.005769	45.8193	-0.762182	-1.377155E+10	4.189401E-13	NaN
396	1.000000	0.342785	7.36894e+06	-57289.1	1005.82	-29737.3	0.000000	0.000000	6.342865	-0.004546	NaN	0.000000	0.001605	0.001686	28.0812	0.040641	0.002002	20.304	-98.4757	-163.046	0.041361	0.341453	-0.752309	-0.753641	-0.004546	20.304	-0.752141	-1.005449E+10	4.520911E-13	NaN
396	1.000000	0.352785	7.36894e+06	-57289.1	1005.82	-29737.3	0.000000	0.000000	6.352866	0.022128	NaN	0.000000	0.001628	0.001688	28.0815	0.078579	0.002012	39.065	104.628	15.3554	0.055484	0.351454	-0.742309	-0.743640	0.022128	39.065	-0.742733	-7.486561E+9	-2.955636E-12	NaN
396	1.000000	0.362804	7.36894e+06	-57289.1	1005.82	-29737.3	0.000000	0.000000	6.362883	-0.047543	NaN	0.000000	0.001635	0.001691	28.081	0.111896	0.001949	57.4139	-44.2615	-164.592	-0.069770	0.361431	-0.732289	-0.733662	-0.047543	57.4139	-0.731668	-5.291078E+9	8.985557E-12	NaN
396	1.000000	0.372809	7.36894e+06	-57289.1	1005.82	-29737.3	0.000000	0.000000	6.372894	0.106854	NaN	0.000000	0.001633	0.001705	28.0814	0.083570	0.001987	42.0497	67.8536	13.3229	0.013075	0.371408	-0.722284	-0.723685	0.106854	42.0497	-0.724190	-4.184190E+9	-2.553760E-11	NaN
396	1.000000	0.382809	7.36894e+06	-57289.1	1005.82	-29737.3	0.000000	0.000000	6.382890	0.007871	NaN	0.000000	0.001599	0.001683	28.0812	0.076864	0.002095	36.6823	4.070394	-167.195	0.010332	0.381483	-0.712285	-0.713610	0.007871	36.6823	-0.712446	-2.893485E+9	-2.720166E-12	NaN
396	1.000000	0.392813	7.36894e+06	-57289.1	1005.82	-29737.3	0.000000	0.000000	6.392895	0.035561	NaN	0.000000	0.001627	0.001686	28.0815	0.083376	0.001980	42.1115	99.0624	16.8026	-0.051674	0.391424	-0.702280	-0.703669	0.035561	42.1115	-0.702914	-2.144457E+9	-1.658269E-11	NaN
396	1.000000	0.402794	7.36894e+06	-57289.1	1005.82	-29737.3	0.000000	0.000000	6.402876	0.027673	NaN	0.000000	0.001618	0.001708	28.0813	0.033844	0.001905	17.7624	-70.3564	-166.339	-0.014852	0.401446	-0.692299	-0.693648	0.027673	17.7624	-0.693468	-1.593309E+9	-1.736810E-11	NaN
396	1.000000	0.412831	7.36894e+06	-57289.1	1005.82	-29737.3	0.000000	0.000000	6.412911	-0.015291	NaN	0.000000	0.001612	0.001705	28.082	0.093539	0.002010	46.5387	-112.606	12.4795	-0.041133	0.411473	-0.682263	-0.683621	-0.015291	46.5387	-0.682016	-1.111162E+9	1.376125E-11	NaN
396	1.000000	0.422853	7.36894e+06	-57289.1	1005.82	-29737.3	0.000000	0.000000	6.422934	0.001615	NaN	0.000000	0.001597	0.001670	28.0798	0.046806	0.002146	21.8126	116.214	-167.399	-0.079433	0.421558	-0.672240	-0.673536	0.001615	21.8126	-0.672296	-8.181077E+8	-1.973776E-12	NaN
396	1.000000	0.432849	7.36894e+06	-57289.1	1005.82	-29737.3	0.000000	0.000000	6.432929	-0.006531	NaN	0.000000	0.001598	0.001686	28.0801	0.041785	0.002009	20.803	-176.439	17.3865	-0.056566	0.431515	-0.662245	-0.663579	-0.006531	20.803	-0.662009	-5.915456E+8	1.103986E-11	NaN
396	1.000000	0.442808	7.36894e+06	-57289.1	1005.82	-29737.3	0.000000	0.000000	6.442888	0.008358	NaN	0.000000	0.001606	0.001703	28.08	0.065885	0.002066	31.8927	99.6447	-168.908	-0.001975	0.441525	-0.652286	-0.653569	0.008358	31.8927	-0.652482	-4.379891E+8	-1.908192E-11	NaN
396	1.000000	0.452806	7.36894e+06	-57289.1	1005.82	-29737.3	0.000000	0.000000	6.452885	-0.020880	NaN	0.000000	0.001607	0.001753	28.0801	0.056314	0.002052	27.4442	-109.605	17.6853	0.010268	0.451468	-0.642288	-0.643625	-0.020880	27.4442	-0.641717	-3.117817E+8	6.696923E-11	NaN
396	1.000000	0.462844	7.36894e+06	-57289.1	1005.82	-29737.3	0.000000	0.000000	6.462925	0.010330	NaN	0.000000	0.001593	0.001759	28.0798	0.116027	0.002031	57.1229	-5.500527	-162.059	0.013583	0.461484	-0.632249	-0.633610	0.010330	57.1229	-0.632385	-2.321508E+8	-4.449896E-11	NaN
396	1.000000	0.472852	7.36894e+06	-57289.1	1005.82	-29737.3	0.000000	0.000000	6.472933	0.021331	NaN	0.000000	0.001625	0.001689	28.0799	0.034038	0.001963	17.3368	-28.7261	14.2161	-0.002781	0.471402	-0.622242	-0.623692	0.021331	17.3368	-0.623165	-1.734312E+8	-1.229919E-10	NaN
396	1.000000	0.482853	7.36894e+06	-57289.1	1005.82	-29737.3	0.000000	0.000000	6.482934	0.015449	NaN	0.000000	0.001648	0.001722	28.0801	0.044999	0.001956	23.003	84.1252	-164.697	-0.014373	0.481547	-0.612240	-0.613546	0.015449	23.003	-0.612744	-1.246987E+8	-1.238896E-10	NaN
396	1.000000	0.492860	7.36894e+06	-57289.1	1005.82	-29737.3	0.000000	0.000000	6.492938	-0.045451	NaN	0.000000	0.001640	0.001674	28.0799	0.074648	0.002063	36.1812	-21.0021	20.1088	-0.016492	0.491484	-0.602234	-0.603609	-0.045451	36.1812	-0.601292	-8.674548E+7	5.239547E-10	NaN
396	1.000000	0.502851	7.36894e+06	-57289.1	1005.82	-29737.3	0.000000	0.000000	6.502933	0.045915	NaN	0.000000	0.001624	0.001708	28.0799	0.037259	0.002064	18.0556	129.495	-161.885	0.094687	0.501522	-0.592243	-0.593571	0.045915	18.0556	-0.594150	-6.916172E+7	-6.638746E-10	NaN
396	1.000000	0.512845	7.36894e+06	-57289.1	1005.82	-29737.3	0.000000	0.000000	6.512925	-0.005814	NaN	0.000000	0.001691	0.001691	28.0798	0.043938	0.001892	23.2236	-50.1337	12.7313	0.025796	0.511463	-0.582249	-0.583630	-0.005814	23.2236	-0.582061	-4.711561E+7	1.234002E-10	NaN
396	1.000000	0.522875	7.36894e+06	-57289.1	1005.82	-29737.3	0.000000	0.000000	6.522952	-0.077097	NaN	0.000000	0.001616	0.001673	28.0801	0.101680	0.002088	48.7019	70.0288	-166.331	-0.071554	0.521510	-0.572218	-0.573583	-0.077097	48.7019	-0.571031	-3.318022E+7	2.323590E-9	NaN
396	1.000000	0.532893	7.36894e+06	-57289.1	1005.82	-29737.3	0.000000	0.000000	6.532971	-0.064574	NaN	0.000000	0.001628	0.001723	28.0799	0.088518	0.002113	41.8921	-178.661	14.3201	-0.092488	0.531507	-0.562200	-0.563586	-0.064574	41.8921	-0.561044	-2.414459E+7	2.674488E-9	NaN
396	1.000000	0.542874	7.36894e+06	-57289.1	1005.82	-29737.3	0.000000	0.000000	6.542953	-0.036664	NaN	0.000000	0.001615	0.001704	28.0799	0.102703	0.001992	51.5471	32.6939	-166.374	-0.067520	0.541566	-0.552220	-0.553527	-0.036664	51.5471	-0.551686	-1.791884E+7	2.046112E-9	NaN
396	1.000000	0.552857	7.36894e+06	-57289.1	1005.82	-29737.3	0.000000	0.000000	6.552933	-0.106505	NaN	0.000000	0.001640	0.001737	28.08	0.107402	0.001948	55.1486	-112.771	12.1541	-0.078020	0.551452	-0.542236	-0.543641	-0.106505	55.1486	-0.540788	-1.265556E+7	8.415694E-9	NaN
396	1.000000	0.562891	7.36894e+06	-57289.1	1005.82	-29737.3	0.000000	0.000000	6.562972	0.023387	NaN	0.000000	0.001626	0.001673	28.0813	0.100153	0.001954	51.2551	124.3	-161.934	0.003878	0.561596	-0.532202	-0.533498	0.023387	51.2551	-0.532545	-9.72543e+06	-2.404735E-9	NaN
396	1.000000	0.572887	7.36894e+06	-57289.1	1005.82	-29737.3	0.000000	0.000000	6.572967	-0.025869	NaN	0.000000	0.001554	0.001710	28.081	0.068480	0.001961	34.9277	100.289	12.6576	-0.066915	0.571493	-0.522206	-0.523600	-0.025869	34.9277	-0.521651	-6.86358e+06	3.768967E-9	NaN
396	1.000000	0.582877	7.36894e+06	-57289.1	1005.82	-29737.3	0.000000	0.000000	6.582959	0.031494	NaN	0.000000	0.001569	0.001651	28.0808	0.075946	0.002077	36.562	-87.8795	-166.888	0.093050	0.581571	-0.512216	-0.513523	0.031494	36.562	-0.512862	-5.17934e+06	-6.080618E-9	NaN
396	1.000000	0.592882	7.36894e+06	-57289.1	1005.82	-29737.3	0.000000	0.000000	6.592960	-0.069697	NaN	0.000000	0.001608	0.001715	28.0814	0.079702	0.002081	38.3062	-29.111	10.0898	-0.029050	0.591549	-0.502211	-0.503545	-0.069697	38.3062	-0.500847	-3.52232e+06	1.978732E-8	NaN
396	1.000000	0.602891	7.36894e+06	-57289.1	1005.82	-29737.3	0.000000	0.000000	6.602970	-0.022549	NaN	0.000000	0.001591	0.001713	28.0815	0.068505	0.002028	33.774	-156.433	-163.874	-0.029922	0.601575	-0.492203	-0.493519	-0.022549	33.774	-0.491702	-2.62527e+06	8.589358E-9	NaN
396	1.000000	0.612902	7.36894e+06	-57289.1	1005.82	-29737.3	0.000000	0.000000	6.612981	-0.025617	NaN	0.000000	0.001628	0.001698	28.0814	0.048471	0.001944	24.9349	3.713071	13.6738	-0.037867	0.611559	-0.482191	-0.483534	-0.025617	24.9349	-0.481421	-1.88545e+06	1.358683E-8	NaN
396	1.000000	0.622906	7.36894e+06	-57289.1	1005.82	-29737.3	0.000000	0.000000	6.622986	-0.003293	NaN	0.000000	0.001605	0.001687	28.0817	0.098205	0.001992	49.3045	98.5221	-166.798	-0.005150	0.621599	-0.472188	-0.473495	-0.003293	49.3045	-0.472137	-1.39759e+06	2.355978E-9	NaN
396	1.000000	0.632923	7.36894e+06	-57289.1	1005.82	-29737.3	0.000000	0.000000	6.633002	-0.031927	NaN	0.000000	0.001601	0.001666	28.0817	0.083264	0.002048	40.6602	135.626	15.9715	-0.016127	0.631603	-0.462171	-0.463490	-0.031927	40.6602	-0.461582	-993679	3.213010E-8	NaN
396	1.000000	0.642945	7.36894e+06	-57289.1	1005.82	-29737.3	0.000000	0.000000	6.643026	0.010444	NaN	0.000000	0.001587	0.001679	28.082	0.104759	0.001878	55.7777	-97.4853	-162.426	-0.035557	0.641614	-0.452149	-0.453479	0.010444	55.7777	-0.452289	-735477	-1.420075E-8	NaN
396	1.000000	0.652921	7.36894e+06	-57289.1	1005.82	-29737.3	0.000000	0.000000	6.652999	-0.056361	NaN	0.000000	0.001587	0.001671	28.0814	0.144303	0.002021	71.412	-50.6302	13.8608	-0.027334	0.651573	-0.442173	-0.443520	-0.056361	71.412	-0.441581	-519598	1.084705E-7	NaN
396	1.000000	0.662948	7.36894e+06	-57289.1	1005.82	-29737.3	0.000000	0.000000	6.663025	-0.089131	NaN	0.000000	0.001635	0.001710	28.0817	0.079835	0.002005	39.8193	137.268	-163.75	-0.056648	0.661608	-0.432146	-0.433485	-0.089131	39.8193	-0.430467	-361964	2.462427E-7	NaN
396	1.000000	0.672925	7.36894e+06	-57289.1	1005.82	-29737.3	0.000000	0.000000	6.673008	0.077161	NaN	0.000000	0.001631	0.001669	28.0817	0.045593	0.001952	23.3615	130.687	18.5384	0.045207	0.671574	-0.422169	-0.423520	0.077161	23.3615	-0.424646	-299412	-2.577098E-7	NaN
396	1.000000	0.682936	7.36894e+06	-57289.1	1005.82	-29737.3	0.000000	0.000000	6.683014	-0.054656	NaN	0.000000	0.001635	0.001652	28.0816	0.050642	0.002047	24.7343	102.641	-165.403	-0.044555	0.681647	-0.412158	-0.413447	-0.054656	24.7343	-0.410500	-188589	2.898175E-7	NaN
396	1.000000	0.692933	7.36894e+06	-57289.1	1005.82	-29737.3	0.000000	0.000000	6.693011	-0.059194	NaN	0.000000	0.001582	0.001658	28.0804	0.053849	0.002023	26.6197	-46.0375	12.5007	-0.016682	0.691627	-0.402161	-0.403466	-0.059194	26.6197	-0.400493	-135838	4.357659E-7	NaN
396	1.000000	0.702939	7.36894e+06	-57289.1	1005.82	-29737.3	0.000000	0.000000	6.703018	-0.034096	NaN	0.000000	0.001643	0.001662	28.0802	0.093411	0.002110	44.2606	-63.3909	-166.375	-0.019444	0.701618	-0.392155	-0.393475	-0.034096	44.2606	-0.391577	-101325	3.365007E-7	NaN
396	1.000000	0.712945	7.36894e+06	-57289.1	1005.82	-29737.3	0.000000	0.000000	6.713025	-0.022836	NaN	0.000000	0.001605	0.001692	28.0805	0.067463	0.002008	33.5931	29.6682	15.7878	0.003107	0.711643	-0.382148	-0.383450	-0.022836	33.5931	-0.381638	-73012	3.127670E-7	NaN
396	1.000000	0.722957	7.36894e+06	-57289.1	1005.82	-29737.3	0.000000	0.000000	6.723036	-0.022875	NaN	0.000000	0.001631	0.001676	28.0801	0.093754	0.001991	47.0931	-165.784	-165.068	-0.017172	0.721604	-0.372137	-0.373489	-0.022875	47.0931	-0.371773	-52680.3	4.342175E-7	NaN
396	1.000000	0.732996	7.36894e+06	-57289.1	1005.82	-29737.3	0.000000	0.000000	6.733076	-0.005978	NaN	0.000000	0.001633	0.001703	28.0803	0.015238	0.002007	7.592436	6.413017	13.1895	0.020574	0.731558	-0.362097	-0.363536	-0.005978	7.592436	-0.361507	-37464.4	1.595748E-7	NaN
396	1.000000	0.742972	7.36894e+06	-57289.1	1005.82	-29737.3	0.000000	0.000000	6.743052	-0.011877	NaN	0.000000	0.001641	0.001667	28.0804	0.063548	0.002054	30.939	28.863	-167.246	-0.061342	0.741617	-0.352122	-0.353476	-0.011877	30.939	-0.351834	-27139.9	4.376156E-7	NaN
396	1.000000	0.752980	7.36894e+06	-57289.1	1005.82	-29737.3	0.000000	0.000000	6.753061	0.006425	NaN	0.000000	0.001605	0.001691	28.0805	0.062524	0.002020	30.9578	-48.611	15.048	0.021104	0.751577	-0.342113	-0.343516	0.006425	30.9578	-0.342269	-19706.5	-3.260273E-7	NaN
396	1.000000	0.762987	7.36894e+06	-57289.1	1005.82	-29737.3	0.000000	0.000000	6.763068	0.008186	NaN	0.000000	0.001609	0.001687	28.0802	0.038685	0.001840	21.0251	107.608	-164.671	0.005101	0.761674	-0.332106	-0.333419	0.008186	21.0251	-0.332398	-14143.3	-5.788037E-7	NaN
396	1.000000	0.772991	7.36894e+06	-57289.1	1005.82	-29737.3	0.000000	0.000000	6.773071	-0.005041	NaN	0.000000	0.001615	0.001701	28.0802	0.041680	0.001873	22.2504	-105.262	14.9322	-0.061657	0.771606	-0.322102	-0.323488	-0.005041	22.2504	-0.321932	-9932.71	5.075462E-7	NaN
396	1.000000	0.783003	7.36894e+06	-57289.1	1005.82	-29737.3	0.000000	0.000000	6.783083	-0.025527	NaN	0.000000	0.001641	0.001678	28.0804	0.085464	0.001987	43.0218	-77.4544	-165.677	-0.063426	0.781708	-0.312090	-0.313386	-0.025527	43.0218	-0.311645	-7004.76	3.644216E-6	NaN
396	1.000000	0.792979	7.36894e+06	-57289.1	1005.82	-29737.3	0.000000	0.000000	6.793057	-0.051965	NaN	0.000000	0.001595	0.001683	28.0803	0.045189	0.001973	22.9004	30.1098	10.9267	0.057317	0.791647	-0.302115	-0.303447	-0.051965	22.9004	-0.300413	-4772.88	1.088760E-5	NaN
396	1.000000	0.802964	7.36894e+06	-57289.1	1005.82	-29737.3	0.000000	0.000000	6.803042	-0.056034	NaN	0.000000	0.001597	0.001706	28.0804	0.042175	0.002100	20.0826	-104.969	-163.486	-0.017410	0.801732	-0.292130	-0.293361	-0.056034	20.0826	-0.290037	-3340.86	1.677239E-5	NaN
396	1.000000	0.812988	7.36894e+06	-57289.1	1005.82	-29737.3	0.000000	0.000000	6.813068	-0.002721	NaN	0.000000	0.001623	0.001674	28.0803	0.119110	0.002027	58.7706	-12.4198	12.1658	-0.114640	0.811596	-0.282105	-0.283498	-0.002721	58.7706	-0.282071	-2536.21	1.072841E-6	NaN
396	1.000000	0.823005	7.36894e+06	-57289.1	1005.82	-29737.3	0.000000	0.000000	6.823082	-0.078128	NaN	0.000000	0.001597	0.001687	28.0805	0.081719	0.001970	41.4737	109.743	-161.942	0.014268	0.821647	-0.272089	-0.273447	-0.078128	41.4737	-0.270676	-1705.36	4.581337E-5	NaN
396	1.000000	0.832989	7.36894e+06	-57289.1	1005.82	-29737.3	0.000000	0.000000	6.833070	0.009662	NaN	0.000000	0.001592	0.001685	28.0817	0.089475	0.002077	43.0867	-120.584	18.0238	-0.055553	0.831660	-0.262104	-0.263434	0.009662	43.0867	-0.262272	-1269.72	-7.609400E-6	NaN
396	1.000000	0.842978	7.36894e+06	-57289.1	1005.82	-29737.3	0.000000	0.000000	6.843053	-0.116072	NaN	0.000000	0.001589	0.001678	28.0814	0.081867	0.001924	42.5452	-72.0069	-166.578	-0.085899	0.841702	-0.252116	-0.253391	-0.116072	42.5452	-0.250070	-824.22	0.000141	NaN
396	1.000000	0.853011	7.36894e+06	-57289.1	1005.82	-29737.3	0.000000	0.000000	6.853090	-0.040893	NaN	0.000000	0.001606	0.001655	28.0815	0.041072	0.001967	20.8756	124.503	16.0711	-0.040777	0.851637	-0.242082	-0.243456	-0.040893	20.8756	-0.240613	-587.664	6.958489E-5	NaN
396	1.000000	0.863012	7.36894e+06	-57289.1	1005.82	-29737.3	0.000000	0.000000	6.863089	-0.080948	NaN	0.000000	0.001559	0.001658	28.0818	0.075163	0.002030	37.0328	86.9007	-165.637	-0.071612	0.861721	-0.232082	-0.233373	-0.080948	37.0328	-0.230443	-406.914	0.000199	NaN
396	1.000000	0.872994	7.36894e+06	-57289.1	1005.82	-29737.3	0.000000	0.000000	6.873072	-0.055813	NaN	0.000000	0.001572	0.001652	28.0818	0.099940	0.001989	50.2502	135.329	12.7447	-0.048616	0.871701	-0.222100	-0.223392	-0.055813	50.2502	-0.221267	-291.009	0.000192	NaN
396	1.000000	0.883026	7.36894e+06	-57289.1	1005.82	-29737.3	0.000000	0.000000	6.883102	-0.102268	NaN	0.000000	0.001599	0.001645	28.0816	0.112675	0.002047	55.051	-128.417	-162.701	0.016052	0.881689	-0.212067	-0.213404	-0.102268	55.051	-0.210674	-196.667	0.000520	NaN
396	1.000000	0.893021	7.36894e+06	-57289.1	1005.82	-29737.3	0.000000	0.000000	6.893099	-0.062557	NaN	0.000000	0.001590	0.001639	28.0817	0.094168	0.001973	47.734	65.92	15.3084	-0.118261	0.891664	-0.202072	-0.203430	-0.062557	47.734	-0.201090	-137.274	0.000456	NaN
396	1.000000	0.903046	7.36894e+06	-57289.1	1005.82	-29737.3	0.000000	0.000000	6.903123	-0.078739	NaN	0.000000	0.001585	0.001686	28.0818	0.078524	0.001901	41.3107	-117.612	-162.772	-0.025565	0.901708	-0.192048	-0.193386	-0.078739	41.3107	-0.190618	-92.1198	0.000855	NaN
396	1.000000	0.913045	7.36894e+06	-57289.1	1005.82	-29737.3	0.000000	0.000000	6.913125	-0.029271	NaN	0.000000	0.001616	0.001689	28.0817	0.154872	0.002025	76.4879	-44.3695	12.2685	-0.051869	0.911647	-0.182048	-0.183447	-0.029271	76.4879	-0.181761	-65.3702	0.000448	NaN
396	1.000000	0.923026	7.36894e+06	-57289.1	1005.82	-29737.3	0.000000	0.000000	6.923105	-0.030236	NaN	0.000000	0.001616	0.001703	28.0815	0.137193	0.002122	64.6547	-76.6236	-163.948	0.005791	0.921709	-0.172067	-0.173385	-0.030236	64.6547	-0.171716	-43.9912	0.000687	NaN
396	1.000000	0.933043	7.36894e+06	-57289.1	1005.82	-29737.3	0.000000	0.000000	6.933123	-0.014847	NaN	0.000000	0.001616	0.001646	28.0819	0.031937	0.002099	15.2145	-116.57	12.0889	-0.039854	0.931703	-0.162050	-0.163390	-0.014847	15.2145	-0.161318	-28.9316	0.000513	NaN
396	1.000000	0.943049	7.36894e+06	-57289.1	1005.82	-29737.3	0.000000	0.000000	6.943128	-0.021894	NaN	0.000000	0.001606	0.001672	28.0817	0.094270	0.001951	48.3245	174.03	-169.208	-0.020771	0.941752	-0.152045	-0.153342	-0.021894	48.3245	-0.151705	-19.4548	0.001125	NaN
396	1.000000	0.953021	7.36894e+06	-57289.1	1005.82	-29737.3	0.000000	0.000000	6.953098	-0.084361	NaN	0.000000	0.001567	0.001683	28.0818	0.057123	0.002008	28.4428	23.4912	14.7564	-0.058034	0.951675	-0.142072	-0.143418	-0.084361	28.4428	-0.139848	-11.7518	0.007179	NaN
396	1.000000	0.963037	7.36894e+06	-57289.1	1005.82	-29737.3	0.000000	0.000000	6.963115	-0.051843	NaN	0.000000	0.001621	0.001594	28.0816	0.156854	0.001988	78.9111	-124.018	-164.216	-0.029549	0.961760	-0.132056	-0.133334	-0.051843	78.9111	-0.131564	-8.171476	0.006344	NaN
396	1.000000	0.973050	7.36894e+06	-57289.1	1005.82	-29737.3	0.000000	0.000000	6.973127	-0.076297	NaN	0.000000	0.001700	0.001620	28.0808	0.125335	0.001920	65.2748	114.216	12.4515	-0.022806	0.971743	-0.122044	-0.123351	-0.076297	65.2748	-0.121167	-5.100100	0.014960	NaN
396	1.000000	0.983065	7.36894e+06	-57289.1	1005.82	-29737.3	0.000000	0.000000	6.983145	-0.021073	NaN	0.000000	0.001719	0.001604	28.0805	0.055404	0.001903	29.117	-42.3638	-167.449	-0.067043	0.981733	-0.112028	-0.113360	-0.021073	29.117	-0.111485	-3.229108	0.006526	NaN
396	1.000000	0.993071	7.36894e+06	-57289.1	1005.82	-29737.3	0.000000	0.000000	6.993149	-0.068757	NaN	0.000000	0.001632	0.001623	28.0808	0.069110	0.002030	34.0499	-128.403	12.8908	0.009933	0.991725	-0.102022	-0.103368	-0.068757	34.0499	-0.100508	-1.875039	0.036670	NaN
396	1.000000	1.003086	7.36894e+06	-57289.1	1005.82	-29737.3	0.000000	0.000000	7.003163	-0.090227	NaN	0.000000	0.001616	0.001655	28.0808	0.138962	0.001901	73.0967	44.5379	-167.019	-0.061054	1.001794	-0.092007	-0.093300	-0.090227	73.0967	-0.091081	-1.145790	0.078747	NaN
396	1.000000	1.013072	7.36894e+06	-57289.1	1005.82	-29737.3	0.000000	0.000000	7.013151	-0.029453	NaN	0.000000	0.001581	0.001624	28.0807	0.085108	0.001984	42.8995	-116.89	13.4207	-0.044100	1.011698	-0.082022	-0.083395	-0.029453	42.8995	-0.081507	-0.674799	0.043647	NaN
396	1.000000	1.023062	7.36894e+06	-57289.1	1005.82	-29737.3	0.000000	0.000000	7.023142	-0.005382	NaN	0.000000	0.001526	0.001649	28.0804	0.047678	0.001927	24.745	176.053	-164.306	0.023085	1.021769	-0.072031	-0.073324	-0.005382	24.745	-0.071868	-0.382482	0.014071	NaN
396	1.000000	1.033079	7.36894e+06	-57289.1	1005.82	-29737.3	0.000000	0.000000	7.033157	-0.065813	NaN	0.000000	0.001587	0.001625	28.0805	0.111259	0.002035	54.6682	45.524	16.191	-0.019611	1.031710	-0.062014	-0.063383	-0.065813	54.6682	-0.061112	-0.193762	0.339659	NaN
396	1.000000	1.043045	7.36894e+06	-57289.1	1005.82	-29737.3	0.000000	0.000000	7.043124	-0.050467	NaN	0.000000	0.001550	0.001625	28.0805	0.045164	0.002005	22.5279	60.8892	-164.082	0.022225	1.041725	-0.052048	-0.053369	-0.050467	22.5279	-0.050368	-0.093619	0.539067	NaN
396	1.000000	1.053096	7.36894e+06	-57289.1	1005.82	-29737.3	0.000000	0.000000	7.053174	-0.055841	NaN	0.000000	0.001534	0.001602	28.0804	0.054845	0.001852	29.6093	28.0497	14.1279	-0.000526	1.051766	-0.041997	-0.043327	-0.055841	29.6093	-0.040583	-0.047105	1.185458	NaN
396	1.000000	1.063093	7.36894e+06	-57289.1	1005.82	-29737.3	0.000000	0.000000	7.063173	-0.023886	NaN	0.000000	0.001581	0.001628	28.0805	0.076265	0.001897	40.1981	-157.199	-166.849	-0.053413	1.061750	-0.032000	-0.033343	-0.023886	40.1981	-0.031554	-0.025452	0.938483	NaN
396	1.000000	1.073084	7.36894e+06	-57289.1	1005.82	-29737.3	0.000000	0.000000	7.073161	-0.073500	NaN	0.000000	0.001568	0.001611	28.0804	0.017996	0.002038	8.828862	134.817	15.7676	-0.022773	1.071803	-0.022010	-0.023291	-0.073500	8.828862	-0.015766	-0.009739	7.546864	NaN
396	1.000000	1.083113	7.36894e+06	-57289.1	1005.82	-29737.3	0.000000	0.000000	7.083191	-0.065650	NaN	0.000000	0.001594	0.001590	28.0806	0.116255	0.002060	56.4446	134.507	-162.857	-0.111521	1.081830	-0.011980	-0.013263	-0.065650	56.4446	-0.011108	-0.007020	9.352429	NaN
396	1.000000	1.093085	7.36894e+06	-57289.1	1005.82	-29737.3	0.000000	0.000000	7.093167	0.042490	NaN	0.000000	0.001595	0.001606	28.0802	0.103103	0.002022	50.984	-22.9392	16.0115	0.038322	1.091708	-0.002009	-0.003385	0.042490	50.984	-0.002634	-0.001874	-22.6749	NaN
396	1.000000	1.103079	7.36894e+06	-57289.1	1005.82	-29737.3	0.000000	0.000000	7.103398	5.813262	NaN	0.000000	0.001549	0.001625	28.0816	6.408208	0.001686	3801.01	14.6158	-174.174	4.403832	1.101824	0.007985	0.006731	5.813262	3801.01	0.006838	0.005874	989.589	45309.5
396	2.000000	1.107216	7.36894e+06	-57289.1	1005.82	-29737.3	0.000000	0.000000	7.107688	9.503709	NaN	0.000000	0.001575	0.001587	28.0814	10.3249	0.001680	6146.12	6.760082	6.139659	7.985801	1.106933	0.012123	0.011839	9.503709	6146.12	0.010963	0.010271	925.262	55406.4
396	2.000000	1.109704	7.36894e+06	-57289.1	1005.82	-29737.3	0.000000	0.000000	7.110273	11.8831	NaN	0.000000	0.001627	0.001594	28.0822	13.3821	0.001715	7802.05	5.020983	-172.603	11.5849	1.109410	0.014610	0.014317	11.8831	7802.05	0.013468	0.013297	893.697	61817.6
396	2.000000	1.112235	7.36894e+06	-57289.1	1005.82	-29737.3	0.000000	0.000000	7.113019	17.1087	NaN	0.000000	0.001561	0.001610	28.0815	15.6009	0.001594	9786.73	6.225343	6.604543	15.8005	1.111850	0.017142	0.016757	17.1087	9786.73	0.015831	0.016409	1042.65	69802.6
396	2.000000	1.114700	7.36894e+06	-57289.1	1005.82	-29737.3	0.000000	0.000000	7.115572	19.2313	NaN	0.000000	0.001586	0.001619	28.0818	18.688	0.001775	10529.1	7.974191	-177.395	19.3647	1.114362	0.019606	0.019268	19.2313	10529.1	0.018236	0.019846	969.002	68284.4
396	2.000000	1.117228	7.36894e+06	-57289.1	1005.82	-29737.3	0.000000	0.000000	7.118453	27.8138	NaN	0.000000	0.001589	0.001604	28.0815	22.1164	0.001686	13114.9	4.582667	3.272598	27.914	1.116882	0.022135	0.021789	27.8138	13114.9	0.020544	0.023404	1188.4	78322.7
396	2.000000	1.119693	7.36894e+06	-57289.1	1005.82	-29737.3	0.000000	0.000000	7.120958	28.7894	NaN	0.000000	0.001604	0.001628	28.082	25.3641	0.001887	13445	8.341176	179.804	29.6604	1.119417	0.024600	0.024324	28.7894	13445	0.022994	0.027467	1048.14	74118.7
396	2.000000	1.122131	7.36894e+06	-57289.1	1005.82	-29737.3	0.000000	0.000000	7.123779	38.0943	NaN	0.000000	0.001639	0.001571	28.0814	26.688	0.001783	14967.5	3.879972	3.763220	34.3671	1.121710	0.027038	0.026617	38.0943	14967.5	0.025129	0.031251	1219	77355.9
396	2.000000	1.124681	7.36894e+06	-57289.1	1005.82	-29737.3	0.000000	0.000000	7.126499	42.216	NaN	0.000000	0.001636	0.001614	28.0818	29.2857	0.001741	16822.3	12.4093	176.596	44.1247	1.124310	0.029588	0.029217	42.216	16822.3	0.027706	0.036122	1168.69	80866.7
396	2.000000	1.127172	7.36894e+06	-57289.1	1005.82	-29737.3	0.000000	0.000000	7.129227	47.9753	NaN	0.000000	0.001617	0.001619	28.0815	32.367	0.001844	17551.2	5.582920	0.675289	48.1653	1.126760	0.032079	0.031666	47.9753	17551.2	0.030029	0.040803	1175.77	79384
396	2.000000	1.129626	7.36894e+06	-57289.1	1005.82	-29737.3	0.000000	0.000000	7.132111	58.4406	NaN	0.000000	0.001639	0.001610	28.0819	35.2758	0.001799	19613.2	2.077293	-177.274	57.341	1.129391	0.034533	0.034297	58.4406	19613.2	0.032298	0.045641	1280.44	83877
396	2.000000	1.132144	7.36894e+06	-57289.1	1005.82	-29737.3	0.000000	0.000000	7.134933	65.8168	NaN	0.000000	0.001604	0.001614	28.0813	38.0722	0.001787	21299.9	4.827442	-0.432390	63.2126	1.131843	0.037051	0.036749	65.8168	21299.9	0.034733	0.051127	1287.32	86064.5
396	2.000000	1.134599	7.36894e+06	-57289.1	1005.82	-29737.3	0.000000	0.000000	7.138244	86.6324	NaN	0.000000	0.001591	0.001618	28.0817	40.399	0.001715	23550.2	7.177658	175.722	84.8007	1.134233	0.039506	0.039139	86.6324	23550.2	0.036747	0.055891	1550.03	91011.5
396	2.000000	1.137146	7.36894e+06	-57289.1	1005.82	-29737.3	0.000000	0.000000	7.141228	97.2606	NaN	0.000000	0.001598	0.001588	28.0823	43.5315	0.001730	25155.6	4.094795	-1.489601	97.3882	1.136722	0.042053	0.041628	97.2606	25155.6	0.039153	0.061857	1572.34	92408.6
396	2.000000	1.139549	7.36894e+06	-57289.1	1005.82	-29737.3	0.000000	0.000000	7.144125	109.248	NaN	0.000000	0.001607	0.001615	28.0803	46.5236	0.001669	27869.7	1.450084	179.421	105.009	1.139279	0.044456	0.044186	109.248	27869.7	0.041516	0.068004	1606.49	97642.1
396	2.000000	1.142141	7.36894e+06	-57289.1	1005.82	-29737.3	0.000000	0.000000	7.147271	122.735	NaN	0.000000	0.001603	0.001617	28.0803	49.0779	0.001794	27349.1	6.591566	-4.006904	122.071	1.141763	0.047048	0.046670	122.735	27349.1	0.043682	0.073889	1661.07	91923.3
396	2.000000	1.144563	7.36894e+06	-57289.1	1005.82	-29737.3	0.000000	0.000000	7.150270	136.754	NaN	0.000000	0.001574	0.001601	28.0809	51.0899	0.001707	29924.5	2.089970	178.623	132.603	1.144309	0.049470	0.049216	136.754	29924.5	0.046042	0.080574	1697.25	96317.2
396	2.000000	1.147099	7.36894e+06	-57289.1	1005.82	-29737.3	0.000000	0.000000	7.153713	158.812	NaN	0.000000	0.001595	0.001598	28.0805	54.2672	0.001725	31453.8	5.771907	-4.622459	156.219	1.146715	0.052005	0.051622	158.812	31453.8	0.048218	0.086986	1825.72	97436.5
396	2.000000	1.149597	7.36894e+06	-57289.1	1005.82	-29737.3	0.000000	0.000000	7.156969	177.208	NaN	0.000000	0.001599	0.001594	28.0807	57.4929	0.001777	32354.4	2.624230	177.802	177.292	1.149366	0.054504	0.054273	177.208	32354.4	0.050396	0.093642	1892.41	96599.1
396	2.000000	1.152098	7.36894e+06	-57289.1	1005.82	-29737.3	0.000000	0.000000	7.160270	196.665	NaN	0.000000	0.001619	0.001645	28.0801	60.1596	0.001788	33651	7.604555	-6.930845	194.093	1.151759	0.057004	0.056666	196.665	33651	0.052621	0.100686	1953.24	96891.6
396	2.000000	1.154689	7.36894e+06	-57289.1	1005.82	-29737.3	0.000000	0.000000	7.163441	210.778	NaN	0.000000	0.001630	0.001624	28.0806	62.5509	0.001708	36619.2	6.460608	172.828	214.62	1.154325	0.059595	0.059231	210.778	36619.2	0.055278	0.109423	1926.26	101141
396	2.000000	1.157093	7.36894e+06	-57289.1	1005.82	-29737.3	0.000000	0.000000	7.166981	238.36	NaN	0.000000	0.001627	0.001592	28.0804	65.5922	0.001727	37975.5	3.058655	-4.164217	236.682	1.156742	0.061999	0.061649	238.36	37975.5	0.057292	0.116277	2049.94	101749
396	2.000000	1.159548	7.36894e+06	-57289.1	1005.82	-29737.3	0.000000	0.000000	7.170150	255.735	NaN	0.000000	0.001623	0.001595	28.0807	69.4991	0.001767	39328.1	5.935818	172.457	254.381	1.159317	0.064454	0.064223	255.735	39328.1	0.059577	0.124297	2057.44	101917
396	2.000000	1.162032	7.36894e+06	-57289.1	1005.82	-29737.3	0.000000	0.000000	7.173722	282.168	NaN	0.000000	0.001646	0.001625	28.0803	71.659	0.001794	39933.5	6.097019	-6.859904	276.687	1.161525	0.066939	0.066432	282.168	39933.5	0.061639	0.131752	2141.66	100515
396	2.000000	1.164487	7.36894e+06	-57289.1	1005.82	-29737.3	0.000000	0.000000	7.177183	306.608	NaN	0.000000	0.001602	0.001655	28.0807	72.5136	0.001640	44213.9	5.350090	172.192	299.963	1.164113	0.069394	0.069020	306.608	44213.9	0.064193	0.141271	2170.35	107475
396	2.000000	1.167102	7.36894e+06	-57289.1	1005.82	-29737.3	0.000000	0.000000	7.180988	335.543	NaN	0.000000	0.001688	0.001626	28.0805	74.9927	0.001784	42044.3	8.720109	-10.1227	333.554	1.166716	0.072008	0.071623	335.543	42044.3	0.066023	0.148286	2262.81	99754
396	2.000000	1.169479	7.36894e+06	-57289.1	1005.82	-29737.3	0.000000	0.000000	7.184369	359.94	NaN	0.000000	0.001675	0.001605	28.0806	76.7459	0.001625	47223.4	2.516146	174.946	353.979	1.169222	0.074386	0.074128	359.94	47223.4	0.068669	0.158716	2267.82	108298
396	2.000000	1.172059	7.36894e+06	-57289.1	1005.82	-29737.3	0.000000	0.000000	7.187850	381.848	NaN	0.000000	0.001647	0.001592	28.0805	80.3927	0.001807	44477.4	9.365170	-11.2873	377.015	1.171712	0.076966	0.076619	381.848	44477.4	0.070527	0.166237	2297	99666.3
396	2.000000	1.174582	7.36894e+06	-57289.1	1005.82	-29737.3	0.000000	0.000000	7.190985	396.698	NaN	0.000000	0.001663	0.001631	28.082	83.1948	0.001862	44674.6	3.640356	173.92	394.227	1.174314	0.079489	0.079221	396.698	44674.6	0.072829	0.175786	2256.71	97351.3
396	2.000000	1.177002	7.36894e+06	-57289.1	1005.82	-29737.3	0.000000	0.000000	7.194995	435.346	NaN	0.000000	0.001615	0.001596	28.0817	85.4364	0.001810	47206.6	4.077094	-6.493805	430.004	1.176671	0.081909	0.081577	435.346	47206.6	0.074992	0.184986	2353.39	100278
396	2.000000	1.179527	7.36894e+06	-57289.1	1005.82	-29737.3	0.000000	0.000000	7.198694	463.889	NaN	0.000000	0.001605	0.001620	28.0822	89.0007	0.001703	52254	6.633526	169.768	461.652	1.179253	0.084434	0.084159	463.889	52254	0.077776	0.197149	2352.99	107522
396	2.000000	1.182011	7.36894e+06	-57289.1	1005.82	-29737.3	0.000000	0.000000	7.202389	493.322	NaN	0.000000	0.001584	0.001635	28.0817	89.9101	0.001782	50468.1	5.000619	-7.831494	487.681	1.181663	0.086918	0.086569	493.322	50468.1	0.079587	0.205256	2403.44	101775
396	2.000000	1.184572	7.36894e+06	-57289.1	1005.82	-29737.3	0.000000	0.000000	7.206033	519.641	NaN	0.000000	0.001597	0.001621	28.0818	92.7875	0.001929	48113	7.486115	169.907	518.365	1.184161	0.089479	0.089067	519.641	48113	0.081379	0.213429	2434.72	95150
396	2.000000	1.186973	7.36894e+06	-57289.1	1005.82	-29737.3	0.000000	0.000000	7.209805	552.955	NaN	0.000000	0.001591	0.001631	28.0816	94.9539	0.001743	54487.2	6.726792	-9.816787	544.262	1.186589	0.091880	0.091496	552.955	54487.2	0.084269	0.226925	2436.73	104503
396	2.000000	1.189530	7.36894e+06	-57289.1	1005.82	-29737.3	0.000000	0.000000	7.212936	566.921	NaN	0.000000	0.001559	0.001681	28.0817	97.9793	0.001812	54075.6	2.419285	174.693	564.341	1.189219	0.094437	0.094126	566.921	54075.6	0.086574	0.237968	2382.34	101278
396	2.000000	1.192157	7.36894e+06	-57289.1	1005.82	-29737.3	0.000000	0.000000	7.216587	591.817	NaN	0.000000	0.001594	0.001680	28.0818	99.6774	0.001701	58598.8	3.431940	-7.390343	591.722	1.191872	0.097064	0.096778	591.817	58598.8	0.089489	0.252280	2345.87	106591
396	2.000000	1.194549	7.36894e+06	-57289.1	1005.82	-29737.3	0.000000	0.000000	7.220123	619.612	NaN	0.000000	0.001586	0.001667	28.0817	102.963	0.001897	54270.3	1.822962	174.649	618.762	1.194321	0.099456	0.099227	619.612	54270.3	0.090893	0.259313	2389.44	97369.5
396	2.000000	1.196979	7.36894e+06	-57289.1	1005.82	-29737.3	0.000000	0.000000	7.224103	657.277	NaN	0.000000	0.001570	0.001657	28.0817	105.542	0.001808	58385.1	4.854546	-8.905516	650.802	1.196579	0.101886	0.101485	657.277	58385.1	0.093442	0.272314	2413.67	102221
396	2.000000	1.199478	7.36894e+06	-57289.1	1005.82	-29737.3	0.000000	0.000000	7.228169	695.383	NaN	0.000000	0.001638	0.001676	28.0817	108.738	0.001922	56576.5	5.446235	170.944	690.486	1.199197	0.104384	0.104103	695.383	56576.5	0.095166	0.281274	2472.27	97464.1
396	2.000000	1.201959	7.36894e+06	-57289.1	1005.82	-29737.3	0.000000	0.000000	7.231868	724.982	NaN	0.000000	0.001638	0.001681	28.0816	110.177	0.001720	64058.2	6.338054	-10.7241	715.235	1.201717	0.106866	0.106624	724.982	64058.2	0.098378	0.298326	2430.17	107153
396	2.000000	1.203964	7.36894e+06	-57289.1	1005.82	-29737.3	0.000000	0.000000	7.235266	758.833	NaN	0.000000	0.001651	0.001690	28.0817	112.025	0.001870	59914.3	1.660144	-5.466115	751.815	1.203552	0.108871	0.108458	758.833	59914.3	0.099372	0.303699	2498.63	99330.3