File: remote_trans/data/nanoindenter/0828-1/data/Data_2025-08-06,11h17m57s/2025-07-22_16-23-58_1_757.txt
2025-07-22, 16:23:58, 1
Index	Phase	Displacement	Time	Pos X	Pos Y	Pos Z	Rot A	Rot B	Piezo Z	Force A	Force B	Gripper	Voltage A	Voltage B	Temperature	Amplitude force	Amplitude pos	Stiffness	Phase shift	Phase excitation	Force A raw	Displacement raw	HMax	HMax raw	Real Force	Real Stiffness	Contact Depth	Area	Hardness	Reduced Mod.
[#]	[#]	[um]	[s]	[um]	[um]	[um]	[m°]	[m°]	[um]	[uN]	[uN]	[V]	[V]	[V]	[°C]	[uN]	[um]	[N/m]	[°]	[°]	[uN]	[um]	[um]	[um]	[uN]	[N/m]	[um]	[um^2]	[MPa]	[MPa]
757	1.000000	0.002376	7.37246e+06	-39239.1	1005.82	-29794.5	0.000000	0.000000	6.002767	-0.056421	NaN	0.000000	0.001563	0.001753	28.0809	0.069366	0.000884	78.4774	4.889573	-162.828	-0.014097	0.001089	-1.088753	-1.090040	-0.056421	78.4774	-1.088214	-3.481994E+14	1.620353E-16	NaN
757	1.000000	0.012480	7.37246e+06	-39239.1	1005.82	-29794.5	0.000000	0.000000	6.012872	-0.017444	NaN	0.000000	0.001628	0.001739	28.0808	0.093238	0.001260	73.9821	67.9142	15.4223	0.001737	0.010972	-1.078650	-1.080158	-0.017444	73.9821	-1.078473	-2.576384E+14	6.770555E-17	NaN
757	1.000000	0.022384	7.37246e+06	-39239.1	1005.82	-29794.5	0.000000	0.000000	6.022776	-0.018898	NaN	0.000000	0.001635	0.001736	28.0822	0.135800	0.001788	75.9514	-74.7019	-163.458	0.024868	0.021107	-1.068746	-1.070022	-0.018898	75.9514	-1.068559	-1.895960E+14	9.967349E-17	NaN
757	1.000000	0.032350	7.37246e+06	-39239.1	1005.82	-29794.5	0.000000	0.000000	6.032743	0.018357	NaN	0.000000	0.001605	0.001728	28.0818	0.036437	0.001965	18.5463	135.956	12.4906	0.067093	0.031001	-1.058780	-1.060129	0.018357	18.5463	-1.059522	-1.433493E+14	-1.280592E-16	NaN
757	1.000000	0.042350	7.37246e+06	-39239.1	1005.82	-29794.5	0.000000	0.000000	6.042745	0.066950	NaN	0.000000	0.001595	0.001748	28.0823	0.091227	0.001895	48.1328	-112.542	-168.652	0.071970	0.040990	-1.048780	-1.050139	0.066950	48.1328	-1.049823	-1.061775E+14	-6.305488E-16	NaN
757	1.000000	0.052377	7.37246e+06	-39239.1	1005.82	-29794.5	0.000000	0.000000	6.052765	-0.101246	NaN	0.000000	0.001693	0.001734	28.082	0.109031	0.001958	55.6773	65.2086	10.2438	-0.083555	0.050997	-1.038753	-1.040132	-0.101246	55.6773	-1.037389	-7.225259E+13	1.401272E-15	NaN
757	1.000000	0.062358	7.37246e+06	-39239.1	1005.82	-29794.5	0.000000	0.000000	6.062751	0.011395	NaN	0.000000	0.001692	0.001719	28.0822	0.053479	0.002151	24.8656	131.094	-166.579	0.050248	0.061081	-1.028772	-1.030049	0.011395	24.8656	-1.029116	-5.592212E+13	-2.037597E-16	NaN
757	1.000000	0.072351	7.37246e+06	-39239.1	1005.82	-29794.5	0.000000	0.000000	6.072743	-0.025898	NaN	0.000000	0.001692	0.001767	28.0821	0.000798	0.001954	0.408376	-177.957	16.1787	-0.002268	0.070993	-1.018778	-1.020136	-0.025898	0.408376	-0.971216	-9.290616E+12	2.787524E-15	NaN
757	1.000000	0.082400	7.37246e+06	-39239.1	1005.82	-29794.5	0.000000	0.000000	6.082789	-0.095959	NaN	0.000000	0.001703	0.001766	28.082	0.014818	0.002003	7.397767	117.195	-165.064	-0.010354	0.081069	-1.008729	-1.010060	-0.095959	7.397767	-0.999001	-2.199472E+13	4.362801E-15	NaN
757	1.000000	0.092347	7.37246e+06	-39239.1	1005.82	-29794.5	0.000000	0.000000	6.092741	0.038500	NaN	0.000000	0.001691	0.001704	28.0819	0.067994	0.002030	33.4957	-45.4175	14.5363	-0.003488	0.091052	-0.998782	-1.000078	0.038500	33.4957	-0.999644	-2.243791E+13	-1.715854E-15	NaN
757	1.000000	0.102361	7.37246e+06	-39239.1	1005.82	-29794.5	0.000000	0.000000	6.102754	0.000101	NaN	0.000000	0.001683	0.001724	28.0819	0.041587	0.001959	21.2335	67.8464	-166.174	0.056106	0.101077	-0.988769	-0.990052	0.000101	21.2335	-0.988772	-1.601674E+13	-6.284780E-18	NaN
757	1.000000	0.112362	7.37246e+06	-39239.1	1005.82	-29794.5	0.000000	0.000000	6.112754	-0.010030	NaN	0.000000	0.001674	0.001712	28.082	0.051682	0.002127	24.2957	-146.466	15.6108	-0.029411	0.110996	-0.978768	-0.980134	-0.010030	24.2957	-0.978458	-1.163154E+13	8.623126E-16	NaN
757	1.000000	0.122371	7.37246e+06	-39239.1	1005.82	-29794.5	0.000000	0.000000	6.122764	-0.000784	NaN	0.000000	0.001628	0.001698	28.0818	0.113372	0.002015	56.2602	51.5809	-165.767	-0.035695	0.121132	-0.968758	-0.969997	-0.000784	56.2602	-0.968748	-8.605716E+12	9.115522E-17	NaN
757	1.000000	0.132385	7.37246e+06	-39239.1	1005.82	-29794.5	0.000000	0.000000	6.132776	-0.036794	NaN	0.000000	0.001680	0.001733	28.0818	0.093144	0.001967	47.3602	137.61	12.4039	0.028482	0.131043	-0.958745	-0.960086	-0.036794	47.3602	-0.958162	-6.195696E+12	5.938599E-15	NaN
757	1.000000	0.142399	7.37246e+06	-39239.1	1005.82	-29794.5	0.000000	0.000000	6.142792	-0.001508	NaN	0.000000	0.001708	0.001735	28.0818	0.127770	0.001834	69.6612	-62.881	-163.273	0.037852	0.141010	-0.948730	-0.950119	-0.001508	69.6612	-0.948714	-4.620445E+12	3.264496E-16	NaN
757	1.000000	0.152400	7.37246e+06	-39239.1	1005.82	-29794.5	0.000000	0.000000	6.152794	0.036623	NaN	0.000000	0.001685	0.001723	28.0817	0.022232	0.002057	10.8072	147.145	14.7558	0.021606	0.150970	-0.938729	-0.940159	0.036623	10.8072	-0.941271	-3.666776E+12	-9.987872E-15	NaN
757	1.000000	0.162403	7.37246e+06	-39239.1	1005.82	-29794.5	0.000000	0.000000	6.162797	0.024581	NaN	0.000000	0.001687	0.001753	28.0806	0.048754	0.001958	24.8943	-137.369	-167.088	0.014677	0.161122	-0.928727	-0.930007	0.024581	24.8943	-0.929467	-2.541009E+12	-9.673894E-15	NaN
757	1.000000	0.172414	7.37246e+06	-39239.1	1005.82	-29794.5	0.000000	0.000000	6.172807	0.004627	NaN	0.000000	0.001641	0.001772	28.0804	0.029606	0.001989	14.8811	-128.324	16.0884	0.047508	0.171023	-0.918715	-0.920107	0.004627	14.8811	-0.918948	-1.832337E+12	-2.525090E-15	NaN
757	1.000000	0.182413	7.37246e+06	-39239.1	1005.82	-29794.5	0.000000	0.000000	6.182806	-0.008548	NaN	0.000000	0.001685	0.001772	28.0805	0.112615	0.002005	56.1635	128.228	-166.196	-0.045797	0.181049	-0.908716	-0.910081	-0.008548	56.1635	-0.908602	-1.328242E+12	6.435291E-15	NaN
757	1.000000	0.192443	7.37246e+06	-39239.1	1005.82	-29794.5	0.000000	0.000000	6.192836	0.006232	NaN	0.000000	0.001696	0.001793	28.0806	0.116739	0.002051	56.9238	-14.033	15.1962	0.035376	0.191046	-0.898686	-0.900083	0.006232	56.9238	-0.898768	-9.781925E+11	-6.371354E-15	NaN
757	1.000000	0.202402	7.37246e+06	-39239.1	1005.82	-29794.5	0.000000	0.000000	6.202796	0.025482	NaN	0.000000	0.001739	0.001785	28.0806	0.060729	0.001977	30.7235	166.822	-165.814	0.031101	0.201111	-0.888728	-0.890019	0.025482	30.7235	-0.889350	-7.296659E+11	-3.492322E-14	NaN
757	1.000000	0.212430	7.37246e+06	-39239.1	1005.82	-29794.5	0.000000	0.000000	6.212824	0.023050	NaN	0.000000	0.001696	0.001794	28.0805	0.103726	0.001919	54.0522	-92.9706	12.7402	-0.046085	0.211046	-0.878700	-0.880083	0.023050	54.0522	-0.879019	-5.289897E+11	-4.357280E-14	NaN
757	1.000000	0.222405	7.37246e+06	-39239.1	1005.82	-29794.5	0.000000	0.000000	6.222797	-0.027374	NaN	0.000000	0.001704	0.001784	28.0808	0.120051	0.002052	58.5016	173.724	-167.432	-0.016086	0.221098	-0.868724	-0.870032	-0.027374	58.5016	-0.868373	-3.796969E+11	7.209442E-14	NaN
757	1.000000	0.232428	7.37246e+06	-39239.1	1005.82	-29794.5	0.000000	0.000000	6.232818	-0.067962	NaN	0.000000	0.001697	0.001773	28.0807	0.006817	0.002034	3.350962	-106.28	12.1272	-0.004832	0.231053	-0.858701	-0.860076	-0.067962	3.350962	-0.843490	-1.748127E+11	3.887689E-13	NaN
757	1.000000	0.242404	7.37246e+06	-39239.1	1005.82	-29794.5	0.000000	0.000000	6.242799	0.043550	NaN	0.000000	0.001670	0.001770	28.0808	0.159601	0.001917	83.2684	-157.035	-165.58	-0.015447	0.241064	-0.848725	-0.850066	0.043550	83.2684	-0.849117	-2.083466E+11	-2.090256E-13	NaN
757	1.000000	0.252431	7.37246e+06	-39239.1	1005.82	-29794.5	0.000000	0.000000	6.252824	-0.008927	NaN	0.000000	0.001683	0.001771	28.0809	0.082411	0.001983	41.552	-151.169	12.1214	-0.010887	0.251108	-0.838698	-0.840021	-0.008927	41.552	-0.838537	-1.497856E+11	5.959984E-14	NaN
757	1.000000	0.262449	7.37246e+06	-39239.1	1005.82	-29794.5	0.000000	0.000000	6.262842	0.011440	NaN	0.000000	0.001665	0.001770	28.0809	0.031362	0.002113	14.8405	12.8424	-165.539	-0.006080	0.261144	-0.828680	-0.829985	0.011440	14.8405	-0.829259	-1.121336E+11	-1.020238E-13	NaN
757	1.000000	0.272462	7.37246e+06	-39239.1	1005.82	-29794.5	0.000000	0.000000	6.272855	0.011300	NaN	0.000000	0.001690	0.001762	28.0808	0.057071	0.002009	28.4013	-23.5638	14.632	-0.002546	0.271111	-0.818667	-0.820018	0.011300	28.4013	-0.818966	-8.131793E+10	-1.389664E-13	NaN
757	1.000000	0.282464	7.37246e+06	-39239.1	1005.82	-29794.5	0.000000	0.000000	6.282856	-0.017737	NaN	0.000000	0.001659	0.001758	28.0811	0.035380	0.001909	18.5338	170.701	-165.481	-0.018286	0.281142	-0.808665	-0.809988	-0.017737	18.5338	-0.807947	-5.763972E+10	3.077161E-13	NaN
757	1.000000	0.292450	7.37246e+06	-39239.1	1005.82	-29794.5	0.000000	0.000000	6.292844	0.030674	NaN	0.000000	0.001689	0.001735	28.0821	0.088776	0.002051	43.2783	-4.810315	17.1438	-0.018625	0.291115	-0.798679	-0.800015	0.030674	43.2783	-0.799211	-4.386814E+10	-6.992424E-13	NaN
757	1.000000	0.302477	7.37246e+06	-39239.1	1005.82	-29794.5	0.000000	0.000000	6.302868	-0.038004	NaN	0.000000	0.001678	0.001719	28.0822	0.077846	0.002010	38.7294	-8.538988	-168.767	0.033087	0.301117	-0.788652	-0.790012	-0.038004	38.7294	-0.787917	-3.081663E+10	1.233239E-12	NaN
757	1.000000	0.312486	7.37246e+06	-39239.1	1005.82	-29794.5	0.000000	0.000000	6.312881	0.034947	NaN	0.000000	0.001663	0.001706	28.082	0.088870	0.001929	46.0777	154.753	15.9264	0.022791	0.311121	-0.778643	-0.780009	0.034947	46.0777	-0.779212	-2.347050E+10	-1.488996E-12	NaN
757	1.000000	0.322484	7.37246e+06	-39239.1	1005.82	-29794.5	0.000000	0.000000	6.322879	0.053380	NaN	0.000000	0.001688	0.001752	28.082	0.040619	0.001963	20.6902	160.606	-167.933	0.019107	0.321181	-0.768646	-0.769949	0.053380	20.6902	-0.770581	-1.791432E+10	-2.979759E-12	NaN
757	1.000000	0.332479	7.37246e+06	-39239.1	1005.82	-29794.5	0.000000	0.000000	6.332872	0.015725	NaN	0.000000	0.001681	0.001760	28.0822	0.154666	0.002021	76.5166	-149.935	11.2047	0.012092	0.331139	-0.758651	-0.759990	0.015725	76.5166	-0.758805	-1.238925E+10	-1.269267E-12	NaN
757	1.000000	0.342472	7.37246e+06	-39239.1	1005.82	-29794.5	0.000000	0.000000	6.342864	-0.018286	NaN	0.000000	0.001635	0.001738	28.0822	0.136599	0.001971	69.303	-44.8377	-168.61	0.018159	0.341114	-0.748657	-0.750015	-0.018286	69.303	-0.748460	-8.958803E+9	2.041084E-12	NaN
757	1.000000	0.352476	7.37246e+06	-39239.1	1005.82	-29794.5	0.000000	0.000000	6.352867	-0.048416	NaN	0.000000	0.001627	0.001775	28.0821	0.015383	0.002073	7.421722	-105.878	16.2663	0.012944	0.351093	-0.738654	-0.740037	-0.048416	7.421722	-0.733761	-5.650140E+9	8.568987E-12	NaN
757	1.000000	0.362491	7.37246e+06	-39239.1	1005.82	-29794.5	0.000000	0.000000	6.362883	-0.037379	NaN	0.000000	0.001634	0.001757	28.0819	0.144814	0.001993	72.678	-169.896	-167.44	0.009650	0.361126	-0.728638	-0.730003	-0.037379	72.678	-0.728252	-4.753226E+9	7.863994E-12	NaN
757	1.000000	0.372520	7.37246e+06	-39239.1	1005.82	-29794.5	0.000000	0.000000	6.372912	-0.033733	NaN	0.000000	0.001577	0.001778	28.0825	0.052061	0.001916	27.1738	93.4479	16.6612	-0.052135	0.371116	-0.718609	-0.720013	-0.033733	27.1738	-0.717678	-3.410383E+9	9.891255E-12	NaN
757	1.000000	0.382499	7.37246e+06	-39239.1	1005.82	-29794.5	0.000000	0.000000	6.382892	-0.013848	NaN	0.000000	0.001624	0.001769	28.0821	0.121663	0.002001	60.8112	49.6511	-163.585	0.023318	0.381183	-0.708630	-0.709947	-0.013848	60.8112	-0.708459	-2.552828E+9	5.424445E-12	NaN
757	1.000000	0.392502	7.37246e+06	-39239.1	1005.82	-29794.5	0.000000	0.000000	6.392893	-0.025324	NaN	0.000000	0.001579	0.001734	28.0823	0.050322	0.002078	24.2202	133.326	15.5569	-0.003567	0.391118	-0.698628	-0.700012	-0.025324	24.2202	-0.697844	-1.828439E+9	1.384983E-11	NaN
757	1.000000	0.402523	7.37246e+06	-39239.1	1005.82	-29794.5	0.000000	0.000000	6.402915	-0.038770	NaN	0.000000	0.001622	0.001694	28.0822	0.154861	0.002090	74.0821	50.0883	-164.101	-0.030212	0.401223	-0.688606	-0.689907	-0.038770	74.0821	-0.688214	-1.350525E+9	2.870765E-11	NaN
757	1.000000	0.412523	7.37246e+06	-39239.1	1005.82	-29794.5	0.000000	0.000000	6.412915	-0.039907	NaN	0.000000	0.001651	0.001726	28.0826	0.017460	0.001995	8.749797	-139.859	12.0079	-0.092473	0.411171	-0.678606	-0.679959	-0.039907	8.749797	-0.675185	-8.960770E+8	4.453568E-11	NaN
757	1.000000	0.422484	7.37246e+06	-39239.1	1005.82	-29794.5	0.000000	0.000000	6.422877	-0.009619	NaN	0.000000	0.001597	0.001784	28.0817	0.117295	0.001912	61.351	-164.105	-162.455	0.067783	0.421192	-0.668645	-0.669938	-0.009619	61.351	-0.668528	-7.265037E+8	1.323992E-11	NaN
757	1.000000	0.432545	7.37246e+06	-39239.1	1005.82	-29794.5	0.000000	0.000000	6.432937	-0.040011	NaN	0.000000	0.001588	0.001744	28.0809	0.064533	0.002056	31.3841	29.6501	11.8847	0.041240	0.431189	-0.658584	-0.659940	-0.040011	31.3841	-0.657628	-5.151955E+8	7.766120E-11	NaN
757	1.000000	0.442554	7.37246e+06	-39239.1	1005.82	-29794.5	0.000000	0.000000	6.442946	-0.004653	NaN	0.000000	0.001611	0.001759	28.0807	0.013339	0.002129	6.265996	168.567	-168.845	0.000879	0.441222	-0.648576	-0.649907	-0.004653	6.265996	-0.648019	-3.804305E+8	1.223083E-11	NaN
757	1.000000	0.452526	7.37246e+06	-39239.1	1005.82	-29794.5	0.000000	0.000000	6.452919	0.018935	NaN	0.000000	0.001613	0.001746	28.081	0.051625	0.002024	25.5091	71.1187	12.9978	0.006009	0.451120	-0.638604	-0.640009	0.018935	25.5091	-0.639160	-2.875873E+8	-6.584091E-11	NaN
757	1.000000	0.462512	7.37246e+06	-39239.1	1005.82	-29794.5	0.000000	0.000000	6.462907	0.071003	NaN	0.000000	0.001634	0.001752	28.0808	0.133212	0.002083	63.9537	164.15	-165.739	-5.946368E-5	0.461234	-0.628618	-0.629896	0.071003	63.9537	-0.629450	-2.115800E+8	-3.355859E-10	NaN
757	1.000000	0.472516	7.37246e+06	-39239.1	1005.82	-29794.5	0.000000	0.000000	6.472908	-0.026072	NaN	0.000000	0.001591	0.001706	28.0808	0.092608	0.002111	43.8695	-5.310628	15.7705	0.006958	0.471175	-0.618613	-0.619954	-0.026072	43.8695	-0.618168	-1.480623E+8	1.760871E-10	NaN
757	1.000000	0.482540	7.37246e+06	-39239.1	1005.82	-29794.5	0.000000	0.000000	6.482933	-0.008193	NaN	0.000000	0.001576	0.001733	28.0809	0.034350	0.001929	17.8073	111.2	-169.498	0.028222	0.481184	-0.608589	-0.609945	-0.008193	17.8073	-0.608244	-1.081316E+8	7.576853E-11	NaN
757	1.000000	0.492518	7.37246e+06	-39239.1	1005.82	-29794.5	0.000000	0.000000	6.492909	-0.054212	NaN	0.000000	0.001633	0.001737	28.0809	0.114185	0.002041	55.9447	22.9964	15.1972	-0.062476	0.491149	-0.598611	-0.599980	-0.054212	55.9447	-0.597884	-7.786127E+7	6.962635E-10	NaN
757	1.000000	0.502554	7.37246e+06	-39239.1	1005.82	-29794.5	0.000000	0.000000	6.502949	0.055570	NaN	0.000000	0.001683	0.001749	28.0808	0.128814	0.001987	64.8267	32.0846	-167.24	0.001786	0.501261	-0.588575	-0.589869	0.055570	64.8267	-0.589218	-5.914087E+7	-9.396263E-10	NaN
757	1.000000	0.512548	7.37246e+06	-39239.1	1005.82	-29794.5	0.000000	0.000000	6.512943	0.044875	NaN	0.000000	0.001665	0.001735	28.0809	0.120492	0.001926	62.5484	178.54	14.32	0.001406	0.511185	-0.578581	-0.579945	0.044875	62.5484	-0.579120	-4.291153E+7	-1.045764E-9	NaN
757	1.000000	0.522576	7.37246e+06	-39239.1	1005.82	-29794.5	0.000000	0.000000	6.522971	0.063539	NaN	0.000000	0.001700	0.001781	28.0811	0.073556	0.001966	37.4221	89.702	-167.277	-0.048842	0.521252	-0.568554	-0.569878	0.063539	37.4221	-0.569827	-3.193344E+7	-1.989739E-9	NaN
757	1.000000	0.532569	7.37246e+06	-39239.1	1005.82	-29794.5	0.000000	0.000000	6.532961	-0.029011	NaN	0.000000	0.001700	0.001764	28.0808	0.055802	0.001959	28.4908	-71.2863	11.5795	-0.041731	0.531190	-0.558560	-0.559939	-0.029011	28.4908	-0.557796	-2.177148E+7	1.332524E-9	NaN
757	1.000000	0.542534	7.37246e+06	-39239.1	1005.82	-29794.5	0.000000	0.000000	6.542926	-0.024638	NaN	0.000000	0.001700	0.001777	28.0809	0.090326	0.002021	44.6879	177.383	-167.249	-0.056219	0.541255	-0.548596	-0.549875	-0.024638	44.6879	-0.548182	-1.602407E+7	1.537537E-9	NaN
757	1.000000	0.552561	7.37246e+06	-39239.1	1005.82	-29794.5	0.000000	0.000000	6.552957	0.060917	NaN	0.000000	0.001710	0.001775	28.0809	0.059572	0.002137	27.8829	-37.8497	15.3348	-0.055121	0.551220	-0.538568	-0.539909	0.060917	27.8829	-0.540207	-1.242287E+7	-4.903637E-9	NaN
757	1.000000	0.562584	7.37246e+06	-39239.1	1005.82	-29794.5	0.000000	0.000000	6.562977	0.000425	NaN	0.000000	0.001726	0.001718	28.0821	0.055895	0.001960	28.5155	-116.491	-166.855	0.063174	0.561232	-0.528545	-0.529897	0.000425	28.5155	-0.528556	-8.56098e+06	-4.961548E-11	NaN
757	1.000000	0.572573	7.37246e+06	-39239.1	1005.82	-29794.5	0.000000	0.000000	6.572965	-0.006382	NaN	0.000000	0.001623	0.001745	28.082	0.083075	0.001952	42.5592	108.058	14.5653	0.014426	0.571264	-0.518556	-0.519866	-0.006382	42.5592	-0.518444	-6.19377e+06	1.030402E-9	NaN
757	1.000000	0.582575	7.37246e+06	-39239.1	1005.82	-29794.5	0.000000	0.000000	6.582967	-0.027113	NaN	0.000000	0.001629	0.001762	28.0822	0.056662	0.001976	28.6693	-30.4373	-169.024	-0.029768	0.581285	-0.508554	-0.509844	-0.027113	28.6693	-0.507845	-4.40953e+06	6.148800E-9	NaN
757	1.000000	0.592564	7.37246e+06	-39239.1	1005.82	-29794.5	0.000000	0.000000	6.592958	0.008584	NaN	0.000000	0.001647	0.001718	28.0824	0.217823	0.002072	105.135	5.265904	15.4115	-0.002490	0.591201	-0.498565	-0.499929	0.008584	105.135	-0.498626	-3.27983e+06	-2.617114E-9	NaN
757	1.000000	0.602575	7.37246e+06	-39239.1	1005.82	-29794.5	0.000000	0.000000	6.602968	-0.011419	NaN	0.000000	0.001651	0.001729	28.0823	0.076385	0.001933	39.5261	-18.5978	-165.457	0.013948	0.601255	-0.488554	-0.489875	-0.011419	39.5261	-0.488337	-2.3559e+06	4.847134E-9	NaN
757	1.000000	0.612611	7.37246e+06	-39239.1	1005.82	-29794.5	0.000000	0.000000	6.613003	-0.010686	NaN	0.000000	0.001638	0.001689	28.082	0.112756	0.002136	52.7992	124.346	11.2204	-0.014762	0.611278	-0.478519	-0.479852	-0.010686	52.7992	-0.478367	-1.70868e+06	6.254001E-9	NaN
757	1.000000	0.622596	7.37246e+06	-39239.1	1005.82	-29794.5	0.000000	0.000000	6.622987	-0.048545	NaN	0.000000	0.001629	0.001763	28.0823	0.061819	0.002041	30.2941	-178.087	-166.221	-0.054191	0.621282	-0.468533	-0.469847	-0.048545	30.2941	-0.467331	-1.19666e+06	4.056665E-8	NaN
757	1.000000	0.632610	7.37246e+06	-39239.1	1005.82	-29794.5	0.000000	0.000000	6.633004	0.033011	NaN	0.000000	0.001642	0.001761	28.0822	0.042387	0.001999	21.2064	-42.5836	16.3891	0.026319	0.631249	-0.458519	-0.459880	0.033011	21.2064	-0.459687	-934575	-3.532215E-8	NaN
757	1.000000	0.642588	7.37246e+06	-39239.1	1005.82	-29794.5	0.000000	0.000000	6.642982	0.035452	NaN	0.000000	0.001656	0.001772	28.0824	0.065626	0.002033	32.2795	-10.0649	-165.914	-0.013962	0.641289	-0.448542	-0.449840	0.035452	32.2795	-0.449365	-668968	-5.299523E-8	NaN
757	1.000000	0.652603	7.37246e+06	-39239.1	1005.82	-29794.5	0.000000	0.000000	6.652997	0.045993	NaN	0.000000	0.001612	0.001787	28.0822	0.089187	0.001971	45.2385	-79.069	15.7545	-0.049221	0.651258	-0.438527	-0.439871	0.045993	45.2385	-0.439289	-482315	-9.535954E-8	NaN
757	1.000000	0.662610	7.37246e+06	-39239.1	1005.82	-29794.5	0.000000	0.000000	6.663002	-0.039235	NaN	0.000000	0.001634	0.001741	28.0825	0.018923	0.002009	9.418332	-104.325	-165.033	0.071288	0.661357	-0.428519	-0.429773	-0.039235	9.418332	-0.425395	-306813	1.278780E-7	NaN
757	1.000000	0.672644	7.37246e+06	-39239.1	1005.82	-29794.5	0.000000	0.000000	6.673037	0.014405	NaN	0.000000	0.001613	0.001755	28.0822	0.097370	0.001887	51.6011	153.645	17.2843	-0.030065	0.671280	-0.418485	-0.419850	0.014405	51.6011	-0.418695	-246547	-5.842719E-8	NaN
757	1.000000	0.682638	7.37246e+06	-39239.1	1005.82	-29794.5	0.000000	0.000000	6.683033	0.058906	NaN	0.000000	0.001620	0.001737	28.0823	0.090533	0.001995	45.3778	-19.2868	-170.857	0.046779	0.681319	-0.408491	-0.409810	0.058906	45.3778	-0.409465	-182303	-3.231245E-7	NaN
757	1.000000	0.692610	7.37246e+06	-39239.1	1005.82	-29794.5	0.000000	0.000000	6.693001	-0.043146	NaN	0.000000	0.001581	0.001758	28.0822	0.115527	0.001993	57.955	72.5453	13.8665	-0.081816	0.691286	-0.398520	-0.399843	-0.043146	57.955	-0.397961	-125000	3.451672E-7	NaN
757	1.000000	0.702629	7.37246e+06	-39239.1	1005.82	-29794.5	0.000000	0.000000	6.703020	-0.046137	NaN	0.000000	0.001608	0.001721	28.0813	0.119510	0.002005	59.6164	158.313	-164.715	-0.006533	0.701317	-0.388500	-0.389813	-0.046137	59.6164	-0.387920	-89825.8	5.136279E-7	NaN
757	1.000000	0.712615	7.37246e+06	-39239.1	1005.82	-29794.5	0.000000	0.000000	6.713009	0.026571	NaN	0.000000	0.001583	0.001713	28.081	0.039994	0.002043	19.5752	148.318	15.1709	0.073774	0.711283	-0.378514	-0.379846	0.026571	19.5752	-0.379532	-68103.9	-3.901485E-7	NaN
757	1.000000	0.722655	7.37246e+06	-39239.1	1005.82	-29794.5	0.000000	0.000000	6.723046	-0.041463	NaN	0.000000	0.001588	0.001740	28.0811	0.021930	0.002006	10.9346	21.5161	-169.14	-0.081312	0.721347	-0.368474	-0.369782	-0.041463	10.9346	-0.365630	-42968.1	9.649824E-7	NaN
757	1.000000	0.732617	7.37246e+06	-39239.1	1005.82	-29794.5	0.000000	0.000000	6.733010	5.486095E-5	NaN	0.000000	0.001562	0.001723	28.0812	0.078362	0.001935	40.5024	-87.8877	13.5716	-0.040568	0.731325	-0.358512	-0.359804	5.486095E-5	40.5024	-0.358513	-33911.6	-1.617765E-9	NaN
757	1.000000	0.742655	7.37246e+06	-39239.1	1005.82	-29794.5	0.000000	0.000000	6.743049	0.030516	NaN	0.000000	0.001623	0.001744	28.0811	0.068156	0.001863	36.5766	1.531616	-165.14	-0.014006	0.741316	-0.348474	-0.349813	0.030516	36.5766	-0.349100	-24770.4	-1.231942E-6	NaN
757	1.000000	0.752643	7.37246e+06	-39239.1	1005.82	-29794.5	0.000000	0.000000	6.753035	-0.014393	NaN	0.000000	0.001662	0.001768	28.0809	0.056168	0.001916	29.3136	-17.234	9.936490	-0.032245	0.751293	-0.338486	-0.339836	-0.014393	29.3136	-0.338118	-17143.9	8.395528E-7	NaN
757	1.000000	0.762690	7.37246e+06	-39239.1	1005.82	-29794.5	0.000000	0.000000	6.763084	0.029415	NaN	0.000000	0.001672	0.001765	28.0811	0.072480	0.002006	36.1234	44.15	-166.279	0.046357	0.761302	-0.328439	-0.329828	0.029415	36.1234	-0.329050	-12633.8	-2.328252E-6	NaN
757	1.000000	0.772708	7.37246e+06	-39239.1	1005.82	-29794.5	0.000000	0.000000	6.773105	0.085772	NaN	0.000000	0.001606	0.001734	28.0812	0.109035	0.001966	55.4674	42.1771	17.1658	0.082462	0.771301	-0.318421	-0.319828	0.085772	55.4674	-0.319581	-9172.1	-9.351357E-6	NaN
757	1.000000	0.782669	7.37246e+06	-39239.1	1005.82	-29794.5	0.000000	0.000000	6.783059	-0.061397	NaN	0.000000	0.001666	0.001742	28.0813	0.079226	0.001978	40.0467	-90.8168	-166.051	-0.031412	0.781313	-0.308460	-0.309816	-0.061397	40.0467	-0.307311	-6042.61	1.016062E-5	NaN
757	1.000000	0.792662	7.37246e+06	-39239.1	1005.82	-29794.5	0.000000	0.000000	6.793053	-0.032730	NaN	0.000000	0.001641	0.001780	28.0811	0.052085	0.002005	25.9714	-44.2907	11.2959	0.079372	0.791286	-0.298467	-0.299844	-0.032730	25.9714	-0.297522	-4322.38	7.572297E-6	NaN
757	1.000000	0.802660	7.37246e+06	-39239.1	1005.82	-29794.5	0.000000	0.000000	6.803052	-0.028792	NaN	0.000000	0.001648	0.001763	28.0812	0.058585	0.002112	27.735	155.047	-167.554	-0.059356	0.801353	-0.288469	-0.289776	-0.028792	27.735	-0.287691	-3080.91	9.345232E-6	NaN
757	1.000000	0.812653	7.37246e+06	-39239.1	1005.82	-29794.5	0.000000	0.000000	6.813046	0.002640	NaN	0.000000	0.001604	0.001730	28.0814	0.091047	0.001876	48.5395	-51.5548	14.5831	0.036928	0.811348	-0.278476	-0.279782	0.002640	48.5395	-0.278517	-2241.76	-1.177438E-6	NaN
757	1.000000	0.822674	7.37246e+06	-39239.1	1005.82	-29794.5	0.000000	0.000000	6.823066	-0.024247	NaN	0.000000	0.001606	0.001768	28.0812	0.086972	0.002051	42.4146	-178.88	-165.344	-0.095032	0.821409	-0.268456	-0.269721	-0.024247	42.4146	-0.268027	-1554.27	1.560037E-5	NaN
757	1.000000	0.832679	7.37246e+06	-39239.1	1005.82	-29794.5	0.000000	0.000000	6.833070	-0.059236	NaN	0.000000	0.001577	0.001731	28.0817	0.051138	0.001828	27.9694	-143.422	12.8095	-0.085907	0.831332	-0.258450	-0.259798	-0.059236	27.9694	-0.256862	-1048.94	5.647238E-5	NaN
757	1.000000	0.842687	7.37246e+06	-39239.1	1005.82	-29794.5	0.000000	0.000000	6.843081	0.031720	NaN	0.000000	0.001605	0.001741	28.0825	0.047506	0.001975	24.0522	43.1383	-161.954	0.027949	0.841367	-0.248443	-0.249763	0.031720	24.0522	-0.249432	-805.702	-3.936882E-5	NaN
757	1.000000	0.852713	7.37246e+06	-39239.1	1005.82	-29794.5	0.000000	0.000000	6.853106	0.022110	NaN	0.000000	0.001606	0.001743	28.0828	0.057255	0.002078	27.5507	-166.356	13.7523	-0.018377	0.851347	-0.238417	-0.239782	0.022110	27.5507	-0.239019	-554.904	-3.984506E-5	NaN
757	1.000000	0.862688	7.37246e+06	-39239.1	1005.82	-29794.5	0.000000	0.000000	6.863080	-0.013342	NaN	0.000000	0.001622	0.001771	28.0825	0.038284	0.001982	19.3133	24.6762	-168.309	0.001149	0.861405	-0.228442	-0.229724	-0.013342	19.3133	-0.227923	-371.269	3.593566E-5	NaN
757	1.000000	0.872676	7.37246e+06	-39239.1	1005.82	-29794.5	0.000000	0.000000	6.873071	0.039380	NaN	0.000000	0.001627	0.001753	28.0826	0.172262	0.002077	82.9302	172.363	14.9696	0.043285	0.871330	-0.218453	-0.219800	0.039380	82.9302	-0.218809	-265.846	-0.000148	NaN
757	1.000000	0.882692	7.37246e+06	-39239.1	1005.82	-29794.5	0.000000	0.000000	6.883087	0.050722	NaN	0.000000	0.001625	0.001780	28.0824	0.037499	0.002026	18.5086	-33.9717	-165.079	0.064247	0.881428	-0.208437	-0.209701	0.050722	18.5086	-0.210492	-195.34	-0.000260	NaN
757	1.000000	0.892651	7.37246e+06	-39239.1	1005.82	-29794.5	0.000000	0.000000	6.893044	0.002865	NaN	0.000000	0.001634	0.001785	28.0826	0.047533	0.002095	22.6901	78.8814	17.675	0.015782	0.891351	-0.198479	-0.199778	0.002865	22.6901	-0.198573	-124.804	-2.295454E-5	NaN
757	1.000000	0.902723	7.37246e+06	-39239.1	1005.82	-29794.5	0.000000	0.000000	6.903116	0.015906	NaN	0.000000	0.001652	0.001779	28.0823	0.057406	0.001983	28.9513	103.448	-167.254	0.060797	0.901417	-0.188407	-0.189713	0.015906	28.9513	-0.188819	-85.9563	-0.000185	NaN
757	1.000000	0.912746	7.37246e+06	-39239.1	1005.82	-29794.5	0.000000	0.000000	6.913137	-0.038047	NaN	0.000000	0.001623	0.001748	28.0825	0.106358	0.002032	52.3389	14.1423	14.5324	-0.000376	0.911330	-0.178383	-0.179799	-0.038047	52.3389	-0.177838	-56.0539	0.000679	NaN
757	1.000000	0.922694	7.37246e+06	-39239.1	1005.82	-29794.5	0.000000	0.000000	6.923087	0.028381	NaN	0.000000	0.001631	0.001771	28.0826	0.091159	0.002011	45.3274	-137.953	-168.726	0.012289	0.921417	-0.168436	-0.169713	0.028381	45.3274	-0.168905	-39.3174	-0.000722	NaN
757	1.000000	0.932728	7.37246e+06	-39239.1	1005.82	-29794.5	0.000000	0.000000	6.933122	0.028645	NaN	0.000000	0.001643	0.001756	28.0825	0.059064	0.001950	30.2843	173.768	12.4132	0.023796	0.931380	-0.158402	-0.159749	0.028645	30.2843	-0.159111	-26.4345	-0.001084	NaN
757	1.000000	0.942710	7.37246e+06	-39239.1	1005.82	-29794.5	0.000000	0.000000	6.943102	-0.023867	NaN	0.000000	0.001681	0.001811	28.0825	0.161977	0.001888	85.8034	78.1547	-167.801	-0.114979	0.941394	-0.148419	-0.149736	-0.023867	85.8034	-0.148211	-16.7993	0.001421	NaN
757	1.000000	0.952740	7.37246e+06	-39239.1	1005.82	-29794.5	0.000000	0.000000	6.953137	0.096450	NaN	0.000000	0.001649	0.001747	28.0827	0.136649	0.002035	67.1649	-74.553	13.9277	0.040279	0.951349	-0.138389	-0.139780	0.096450	67.1649	-0.139466	-11.5594	-0.008344	NaN
757	1.000000	0.962706	7.37246e+06	-39239.1	1005.82	-29794.5	0.000000	0.000000	6.963101	0.073663	NaN	0.000000	0.001685	0.001742	28.0826	0.066910	0.002001	33.4372	-71.927	-166.909	-0.079711	0.961394	-0.128424	-0.129735	0.073663	33.4372	-0.130076	-7.646947	-0.009633	NaN
757	1.000000	0.972760	7.37246e+06	-39239.1	1005.82	-29794.5	0.000000	0.000000	6.973154	0.019099	NaN	0.000000	0.001613	0.001779	28.0819	0.089909	0.002031	44.2652	-58.9113	15.4548	0.015291	0.971408	-0.118369	-0.119721	0.019099	44.2652	-0.118693	-4.546005	-0.004201	NaN
757	1.000000	0.982697	7.37246e+06	-39239.1	1005.82	-29794.5	0.000000	0.000000	6.983087	-0.048093	NaN	0.000000	0.001607	0.001756	28.0816	0.028354	0.001984	14.2917	-157.386	-167.447	-0.081259	0.981419	-0.108433	-0.109711	-0.048093	14.2917	-0.105909	-2.459046	0.019558	NaN
757	1.000000	0.992749	7.37246e+06	-39239.1	1005.82	-29794.5	0.000000	0.000000	6.993142	0.002205	NaN	0.000000	0.001636	0.001734	28.0817	0.028224	0.001987	14.2013	22.3001	14.6176	0.053895	0.991388	-0.098380	-0.099742	0.002205	14.2013	-0.098497	-1.691671	-0.001303	NaN
757	1.000000	1.002765	7.37246e+06	-39239.1	1005.82	-29794.5	0.000000	0.000000	7.003158	-4.603319E-5	NaN	0.000000	0.001585	0.001768	28.081	0.014353	0.002188	6.560290	164.841	-165.044	-0.028827	1.001438	-0.088364	-0.089692	-4.603319E-5	6.560290	-0.088359	-0.988813	4.655400E-5	NaN
757	1.000000	1.012732	7.37246e+06	-39239.1	1005.82	-29794.5	0.000000	0.000000	7.013126	0.016859	NaN	0.000000	0.001620	0.001747	28.0814	0.183046	0.001977	92.5827	104.41	13.7654	0.046053	1.011431	-0.078397	-0.079698	0.016859	92.5827	-0.078534	-0.568637	-0.029649	NaN
757	1.000000	1.022761	7.37246e+06	-39239.1	1005.82	-29794.5	0.000000	0.000000	7.023157	0.069707	NaN	0.000000	0.001580	0.001757	28.0814	0.050681	0.001854	27.3356	-49.1111	-164.674	0.045098	1.021441	-0.068369	-0.069688	0.069707	27.3356	-0.070281	-0.347066	-0.200846	NaN
757	1.000000	1.032762	7.37246e+06	-39239.1	1005.82	-29794.5	0.000000	0.000000	7.033155	-0.002173	NaN	0.000000	0.001616	0.001758	28.0815	0.062546	0.001963	31.8644	-18.8357	15.1984	0.045973	1.031429	-0.058367	-0.059700	-0.002173	31.8644	-0.058316	-0.161040	0.013496	NaN
757	1.000000	1.042774	7.37246e+06	-39239.1	1005.82	-29794.5	0.000000	0.000000	7.043168	0.046892	NaN	0.000000	0.001702	0.001731	28.0812	0.057139	0.002013	28.3789	140.034	-167.639	0.131979	1.041409	-0.048356	-0.049720	0.046892	28.3789	-0.049595	-0.088711	-0.528585	NaN
757	1.000000	1.052742	7.37246e+06	-39239.1	1005.82	-29794.5	0.000000	0.000000	7.053135	-0.000286	NaN	0.000000	0.001729	0.001751	28.0814	0.113325	0.002081	54.4524	-147.598	11.4697	-0.030447	1.051438	-0.038387	-0.039691	-0.000286	54.4524	-0.038383	-0.040403	0.007083	NaN
757	1.000000	1.062756	7.37246e+06	-39239.1	1005.82	-29794.5	0.000000	0.000000	7.063145	-0.100768	NaN	0.000000	0.001672	0.001772	28.0814	0.030492	0.002005	15.2047	-173.161	-165.779	-0.067517	1.061461	-0.028374	-0.029668	-0.100768	15.2047	-0.023403	-0.015337	6.570063	NaN
757	1.000000	1.072775	7.37246e+06	-39239.1	1005.82	-29794.5	0.000000	0.000000	7.073166	-0.054639	NaN	0.000000	0.001714	0.001761	28.0812	0.078557	0.002026	38.7787	-146.787	16.1573	0.007985	1.071383	-0.018354	-0.019746	-0.054639	38.7787	-0.017298	-0.010702	5.105577	NaN
757	1.000000	1.082789	7.37246e+06	-39239.1	1005.82	-29794.5	0.000000	0.000000	7.083179	-0.062185	NaN	0.000000	0.001611	0.001706	28.0812	0.090185	0.002015	44.7523	-125.049	-161.576	-0.055383	1.081462	-0.008341	-0.009668	-0.062185	44.7523	-0.007299	-0.004818	12.9064	NaN
757	1.000000	1.092778	7.37246e+06	-39239.1	1005.82	-29794.5	0.000000	0.000000	7.093426	6.210161	NaN	0.000000	0.001607	0.001765	28.0813	6.593884	0.001829	3605.71	12.9485	8.718913	4.558272	1.091455	0.001649	0.000325	6.210161	3605.71	0.000357	0.000268	23129.7	201047
757	2.000000	1.097324	7.37246e+06	-39239.1	1005.82	-29794.5	0.000000	0.000000	7.098232	12.5537	NaN	0.000000	0.001567	0.001771	28.0818	10.629	0.001650	6440.19	5.949287	-172.178	12.3998	1.097025	0.006194	0.005896	12.5537	6440.19	0.004732	0.003890	3226.91	94336.2
757	2.000000	1.099779	7.37246e+06	-39239.1	1005.82	-29794.5	0.000000	0.000000	7.100840	16.2517	NaN	0.000000	0.001627	0.001752	28.0826	13.6522	0.001668	8185.79	7.639649	3.544632	15.2768	1.099496	0.008650	0.008366	16.2517	8185.79	0.007161	0.006193	2624.02	95031.5
757	2.000000	1.102242	7.37246e+06	-39239.1	1005.82	-29794.5	0.000000	0.000000	7.103468	20.2638	NaN	0.000000	0.001593	0.001706	28.0825	16.4551	0.001710	9620.32	3.215477	-174.561	18.4012	1.101928	0.011113	0.010799	20.2638	9620.32	0.009533	0.008667	2337.97	94410.8
757	2.000000	1.104764	7.37246e+06	-39239.1	1005.82	-29794.5	0.000000	0.000000	7.106247	26.5366	NaN	0.000000	0.001603	0.001729	28.0826	19.1542	0.001765	10850.3	7.285977	0.898367	24.4697	1.104413	0.013635	0.013283	26.5366	10850.3	0.011800	0.011252	2358.44	93455.1
757	2.000000	1.107255	7.37246e+06	-39239.1	1005.82	-29794.5	0.000000	0.000000	7.108949	31.682	NaN	0.000000	0.001644	0.001773	28.0829	21.2925	0.001754	12137.6	6.555728	-179.33	31.7046	1.106972	0.016125	0.015843	31.682	12137.6	0.014168	0.014192	2232.46	93087.2
757	2.000000	1.109741	7.37246e+06	-39239.1	1005.82	-29794.5	0.000000	0.000000	7.111699	38.0875	NaN	0.000000	0.001582	0.001761	28.0822	24.2971	0.001801	13489.6	5.310721	1.681552	38.0063	1.109394	0.018611	0.018264	38.0875	13489.6	0.016494	0.017329	2197.88	93622.8
757	2.000000	1.112225	7.37246e+06	-39239.1	1005.82	-29794.5	0.000000	0.000000	7.114359	42.3686	NaN	0.000000	0.001645	0.001725	28.0829	27.3999	0.002001	13693.7	5.572426	-178.339	42.8062	1.111946	0.021096	0.020816	42.3686	13693.7	0.018775	0.020655	2051.3	87053.8
757	2.000000	1.114693	7.37246e+06	-39239.1	1005.82	-29794.5	0.000000	0.000000	7.117217	51.8585	NaN	0.000000	0.001599	0.001747	28.0824	28.9107	0.001918	15070.6	4.333387	2.300158	49.0541	1.114378	0.023564	0.023249	51.8585	15070.6	0.020983	0.024110	2150.88	88675.4
757	2.000000	1.117212	7.37246e+06	-39239.1	1005.82	-29794.5	0.000000	0.000000	7.120121	61.2229	NaN	0.000000	0.001585	0.001749	28.0824	30.6839	0.001861	16484.5	4.006778	-178.764	60.949	1.116916	0.026083	0.025786	61.2229	16484.5	0.023297	0.027990	2187.28	90021.3
757	2.000000	1.119673	7.37246e+06	-39239.1	1005.82	-29794.5	0.000000	0.000000	7.122905	69.1057	NaN	0.000000	0.001609	0.001739	28.0823	33.4479	0.001753	19075.2	-0.443163	3.453662	66.3537	1.119377	0.028543	0.028248	69.1057	19075.2	0.025826	0.032535	2124.01	96619.3
757	2.000000	1.122188	7.37246e+06	-39239.1	1005.82	-29794.5	0.000000	0.000000	7.125809	78.5592	NaN	0.000000	0.001587	0.001732	28.0826	36.4004	0.001687	21583.4	5.935126	176.4	76.6505	1.121836	0.031058	0.030706	78.5592	21583.4	0.028328	0.037350	2103.3	102034
757	2.000000	1.124732	7.37246e+06	-39239.1	1005.82	-29794.5	0.000000	0.000000	7.128760	88.4469	NaN	0.000000	0.001547	0.001766	28.0824	38.6011	0.001739	22200.7	5.260808	-2.843234	86.9826	1.124433	0.033603	0.033304	88.4469	22200.7	0.030615	0.042028	2104.5	98939.9
757	2.000000	1.127155	7.37246e+06	-39239.1	1005.82	-29794.5	0.000000	0.000000	7.131598	98.5786	NaN	0.000000	0.001587	0.001736	28.0832	40.757	0.001654	24636.6	7.252101	174.019	95.7112	1.126859	0.036025	0.035729	98.5786	24636.6	0.033024	0.047245	2086.52	103556
757	2.000000	1.129685	7.37246e+06	-39239.1	1005.82	-29794.5	0.000000	0.000000	7.134548	108.793	NaN	0.000000	0.001592	0.001768	28.0821	44.0368	0.001775	24815.5	10.1278	-8.599283	106.856	1.129294	0.038556	0.038165	108.793	24815.5	0.035268	0.052371	2077.37	99072.1
757	2.000000	1.132199	7.37246e+06	-39239.1	1005.82	-29794.5	0.000000	0.000000	7.137577	121.313	NaN	0.000000	0.001540	0.001789	28.082	46.2149	0.001829	25268.9	3.459840	177.863	119.191	1.131838	0.041070	0.040709	121.313	25268.9	0.037469	0.057652	2104.24	96150.8
757	2.000000	1.134610	7.37246e+06	-39239.1	1005.82	-29794.5	0.000000	0.000000	7.140514	134.117	NaN	0.000000	0.001567	0.001749	28.081	48.0211	0.001825	26312.5	5.473293	-3.661083	128.974	1.134314	0.043481	0.043185	134.117	26312.5	0.039658	0.063147	2123.87	95666
757	2.000000	1.137182	7.37246e+06	-39239.1	1005.82	-29794.5	0.000000	0.000000	7.143682	148.616	NaN	0.000000	0.001558	0.001734	28.0812	49.1255	0.001755	27993.4	5.496667	175.061	146.151	1.136744	0.046052	0.045615	148.616	27993.4	0.042071	0.069489	2138.7	97021.9
757	2.000000	1.139667	7.37246e+06	-39239.1	1005.82	-29794.5	0.000000	0.000000	7.146504	156.82	NaN	0.000000	0.001559	0.001718	28.0812	51.7333	0.001737	29789.3	4.036378	-4.627191	154.659	1.139300	0.048537	0.048171	156.82	29789.3	0.044589	0.076425	2051.95	98450
757	2.000000	1.142260	7.37246e+06	-39239.1	1005.82	-29794.5	0.000000	0.000000	7.149476	166.044	NaN	0.000000	0.001581	0.001716	28.0814	55.0357	0.001735	31718.2	6.105002	173.433	168.641	1.141900	0.051131	0.050770	166.044	31718.2	0.047205	0.083969	1977.45	100005
757	2.000000	1.144666	7.37246e+06	-39239.1	1005.82	-29794.5	0.000000	0.000000	7.152600	183.505	NaN	0.000000	0.001567	0.001677	28.081	56.9399	0.001831	31097.7	6.014927	-6.400450	179.429	1.144323	0.053537	0.053194	183.505	31097.7	0.049111	0.089685	2046.1	94872.6
757	2.000000	1.147162	7.37246e+06	-39239.1	1005.82	-29794.5	0.000000	0.000000	7.155458	192.308	NaN	0.000000	0.001589	0.001742	28.0812	59.8185	0.001777	33670.5	3.140062	175.258	190.183	1.146908	0.056033	0.055779	192.308	33670.5	0.051749	0.097897	1964.39	98319.1
757	2.000000	1.149693	7.37246e+06	-39239.1	1005.82	-29794.5	0.000000	0.000000	7.158665	208.791	NaN	0.000000	0.001589	0.001741	28.081	62.2484	0.001907	32640.9	2.511782	-2.656333	208.097	1.149257	0.058563	0.058128	208.791	32640.9	0.053766	0.104408	1999.77	92293.2
757	2.000000	1.152119	7.37246e+06	-39239.1	1005.82	-29794.5	0.000000	0.000000	7.161692	223.392	NaN	0.000000	0.001587	0.001728	28.0811	62.975	0.001813	34733.1	0.116269	178.136	220.637	1.151822	0.060990	0.060692	223.392	34733.1	0.056166	0.112421	1987.11	94644.2
757	2.000000	1.154654	7.37246e+06	-39239.1	1005.82	-29794.5	0.000000	0.000000	7.164894	239.631	NaN	0.000000	0.001582	0.001744	28.0809	65.2379	0.001746	37364.9	2.233643	-4.043270	235.761	1.154314	0.063525	0.063184	239.631	37364.9	0.058715	0.121240	1976.5	98042.3
757	2.000000	1.157138	7.37246e+06	-39239.1	1005.82	-29794.5	0.000000	0.000000	7.168045	255.86	NaN	0.000000	0.001573	0.001757	28.0809	67.8032	0.001784	38013.6	7.070326	170.887	253.283	1.156837	0.066009	0.065708	255.86	38013.6	0.060961	0.129276	1979.18	96595
757	2.000000	1.159579	7.37246e+06	-39239.1	1005.82	-29794.5	0.000000	0.000000	7.171170	272.503	NaN	0.000000	0.001605	0.001756	28.081	69.4694	0.001704	40778.5	1.929613	-4.760638	266.631	1.159284	0.068450	0.068154	272.503	40778.5	0.063438	0.138424	1968.6	100138
757	2.000000	1.162128	7.37246e+06	-39239.1	1005.82	-29794.5	0.000000	0.000000	7.174342	287.67	NaN	0.000000	0.001585	0.001734	28.0812	73.6274	0.001798	40949.2	3.592481	173.285	284.731	1.161950	0.070998	0.070821	287.67	40949.2	0.065729	0.147151	1954.94	97529.8
757	2.000000	1.164655	7.37246e+06	-39239.1	1005.82	-29794.5	0.000000	0.000000	7.177836	311.203	NaN	0.000000	0.001582	0.001717	28.081	74.9224	0.001820	41155.4	5.802578	-7.442119	308.501	1.164160	0.073526	0.073030	311.203	41155.4	0.067855	0.155471	2001.68	95362
757	2.000000	1.167120	7.37246e+06	-39239.1	1005.82	-29794.5	0.000000	0.000000	7.181008	328.393	NaN	0.000000	0.001608	0.001715	28.0823	78.1619	0.001827	42783.5	4.999132	172.225	324.379	1.166757	0.075991	0.075628	328.393	42783.5	0.070234	0.165041	1989.76	96217.3
757	2.000000	1.169639	7.37246e+06	-39239.1	1005.82	-29794.5	0.000000	0.000000	7.184246	345.905	NaN	0.000000	0.001585	0.001720	28.0823	79.8372	0.001914	41703.9	2.997549	-4.922510	342.696	1.169242	0.078509	0.078113	345.905	41703.9	0.072289	0.173522	1993.43	91468.8
757	2.000000	1.172144	7.37246e+06	-39239.1	1005.82	-29794.5	0.000000	0.000000	7.187324	359.864	NaN	0.000000	0.001621	0.001672	28.0824	82.71	0.001863	44388.6	7.672239	169.276	358.64	1.171745	0.081014	0.080615	359.864	44388.6	0.074934	0.184736	1947.99	94355.7
757	2.000000	1.174693	7.37246e+06	-39239.1	1005.82	-29794.5	0.000000	0.000000	7.190559	376.533	NaN	0.000000	0.001586	0.001683	28.0822	83.9124	0.001767	47476.2	5.771876	-9.417611	375.831	1.174388	0.083564	0.083259	376.533	47476.2	0.077616	0.196440	1916.78	97866.5
757	2.000000	1.177100	7.37247e+06	-39239.1	1005.82	-29794.5	0.000000	0.000000	7.193831	397.605	NaN	0.000000	0.001581	0.001699	28.0826	84.784	0.001713	49508.4	3.910740	172.09	395.247	1.176844	0.085970	0.085715	397.605	49508.4	0.079947	0.206888	1921.84	99445.5
757	2.000000	1.179649	7.37247e+06	-39239.1	1005.82	-29794.5	0.000000	0.000000	7.197148	416.274	NaN	0.000000	0.001567	0.001733	28.0826	87.9241	0.001718	51172.5	5.381753	-9.164906	415.235	1.179216	0.088520	0.088086	416.274	51172.5	0.082419	0.218242	1907.4	100079
757	2.000000	1.182116	7.37247e+06	-39239.1	1005.82	-29794.5	0.000000	0.000000	7.200370	434.654	NaN	0.000000	0.001611	0.001731	28.0823	91.5776	0.001837	49850.3	5.670552	170.428	431.803	1.181837	0.090987	0.090708	434.654	49850.3	0.084447	0.227772	1908.28	95431.2
757	2.000000	1.184614	7.37247e+06	-39239.1	1005.82	-29794.5	0.000000	0.000000	7.203937	460.671	NaN	0.000000	0.001593	0.001718	28.0824	93.4353	0.001887	49506.6	9.058781	-12.5694	456.905	1.184269	0.093485	0.093139	460.671	49506.6	0.086506	0.237638	1938.54	92785.2
757	2.000000	1.187124	7.37247e+06	-39239.1	1005.82	-29794.5	0.000000	0.000000	7.206993	473.952	NaN	0.000000	0.001569	0.001720	28.0827	92.799	0.001732	53572.9	1.655890	173.866	473.619	1.186815	0.095994	0.095685	473.952	53572.9	0.089359	0.251635	1883.49	97573.7
757	2.000000	1.189516	7.37247e+06	-39239.1	1005.82	-29794.5	0.000000	0.000000	7.210238	494.723	NaN	0.000000	0.001554	0.001748	28.0823	97.0153	0.001702	57005.2	1.643450	-6.437288	486.31	1.189141	0.098386	0.098011	494.723	57005.2	0.091877	0.264297	1871.84	101307
757	2.000000	1.192124	7.37247e+06	-39239.1	1005.82	-29794.5	0.000000	0.000000	7.213930	521.08	NaN	0.000000	0.001574	0.001780	28.0825	100.95	0.001865	54131.5	3.803266	172.023	519.227	1.191703	0.100995	0.100574	521.08	54131.5	0.093775	0.274034	1901.52	94476
757	2.000000	1.194136	7.37247e+06	-39239.1	1005.82	-29794.5	0.000000	0.000000	7.216869	543.648	NaN	0.000000	0.001560	0.001748	28.0825	101.43	0.001723	58852.8	4.797945	170.379	543.939	1.193656	0.103006	0.102527	543.648	58852.8	0.096078	0.286068	1900.41	100532