File: remote_trans/data/nanoindenter/0828-1/data/Data_2025-08-06,11h17m57s/2025-07-22_16-23-58_1_77.txt
2025-07-22, 16:23:58, 1
Index	Phase	Displacement	Time	Pos X	Pos Y	Pos Z	Rot A	Rot B	Piezo Z	Force A	Force B	Gripper	Voltage A	Voltage B	Temperature	Amplitude force	Amplitude pos	Stiffness	Phase shift	Phase excitation	Force A raw	Displacement raw	HMax	HMax raw	Real Force	Real Stiffness	Contact Depth	Area	Hardness	Reduced Mod.
[#]	[#]	[um]	[s]	[um]	[um]	[um]	[m°]	[m°]	[um]	[uN]	[uN]	[V]	[V]	[V]	[°C]	[uN]	[um]	[N/m]	[°]	[°]	[uN]	[um]	[um]	[um]	[uN]	[N/m]	[um]	[um^2]	[MPa]	[MPa]
77	1.000000	0.002182	7.36579e+06	-42489.1	955.818	-29783.1	0.000000	0.000000	6.002793	-0.113680	NaN	0.000000	0.001608	0.001723	28.1098	0.085927	0.000953	90.1441	30.3147	-174.602	-0.079771	0.000996	-0.742057	-0.743243	-0.113680	90.1441	-0.741111	-7.115231E+9	1.597699E-11	NaN
77	1.000000	0.010107	7.36579e+06	-42489.1	955.819	-29783.1	0.000000	0.000000	6.010723	0.008196	NaN	0.000000	0.001627	0.001682	28.11	0.031734	0.001164	27.2672	128.031	-165.985	-0.042106	0.008804	-0.734132	-0.735434	0.008196	27.2672	-0.734357	-5.756887E+9	-1.423747E-12	NaN
77	1.000000	0.018167	7.36579e+06	-42489.1	955.819	-29783.1	0.000000	0.000000	6.018782	-0.029852	NaN	0.000000	0.001605	0.001684	28.1104	0.157202	0.001758	89.4047	-28.7542	-167.577	-0.046294	0.016803	-0.726071	-0.727435	-0.029852	89.4047	-0.725821	-4.403967E+9	6.778464E-12	NaN
77	1.000000	0.026168	7.36579e+06	-42489.1	955.819	-29783.1	0.000000	0.000000	6.026785	0.019407	NaN	0.000000	0.001600	0.001697	28.11	0.027380	0.001852	14.7822	-152.738	-165.283	-0.059316	0.024793	-0.718070	-0.719446	0.019407	14.7822	-0.719055	-3.561116E+9	-5.449776E-12	NaN
77	1.000000	0.034124	7.36579e+06	-42489.1	955.818	-29783.1	0.000000	0.000000	6.034737	-0.066540	NaN	0.000000	0.001595	0.001717	28.1106	0.108495	0.001867	58.1166	6.408077	-162.414	0.011806	0.032812	-0.710114	-0.711427	-0.066540	58.1166	-0.709256	-2.617522E+9	2.542107E-11	NaN
77	1.000000	0.042144	7.36579e+06	-42489.1	955.819	-29783.1	0.000000	0.000000	6.042757	-0.078627	NaN	0.000000	0.001616	0.001682	28.111	0.045630	0.001902	23.9962	-103.986	-164.186	-0.075770	0.040854	-0.702094	-0.703385	-0.078627	23.9962	-0.699637	-1.934515E+9	4.064439E-11	NaN
77	1.000000	0.050166	7.36579e+06	-42489.1	955.817	-29783.1	0.000000	0.000000	6.050779	-0.062002	NaN	0.000000	0.001628	0.001686	28.1106	0.090107	0.001915	47.0545	-139.816	-168.204	-0.005158	0.048822	-0.694073	-0.695416	-0.062002	47.0545	-0.693084	-1.574224E+9	3.938558E-11	NaN
77	1.000000	0.058121	7.36579e+06	-42489.1	955.818	-29783.1	0.000000	0.000000	6.058737	-0.000105	NaN	0.000000	0.001584	0.001676	28.1106	0.043394	0.002048	21.1869	-46.4402	-167.221	0.050851	0.056846	-0.686118	-0.687393	-0.000105	21.1869	-0.686114	-1.264168E+9	8.315148E-14	NaN
77	1.000000	0.066138	7.36579e+06	-42489.1	955.819	-29783.1	0.000000	0.000000	6.066752	-0.048583	NaN	0.000000	0.001624	0.001705	28.11	0.109725	0.001972	55.629	69.8189	-167.736	-0.046059	0.064819	-0.678101	-0.679420	-0.048583	55.629	-0.677446	-9.622063E+8	5.049125E-11	NaN
77	1.000000	0.074130	7.36579e+06	-42489.1	955.819	-29783.1	0.000000	0.000000	6.074745	-0.035945	NaN	0.000000	0.001610	0.001704	28.1089	0.060941	0.001887	32.2989	162.448	-167.042	-0.065008	0.072841	-0.670108	-0.671398	-0.035945	32.2989	-0.669274	-7.437875E+8	4.832740E-11	NaN
77	1.000000	0.082144	7.3658e+06	-42489.1	955.818	-29783.1	0.000000	0.000000	6.082758	-0.034552	NaN	0.000000	0.001590	0.001705	28.1094	0.102033	0.001963	51.966	47.3074	-165.024	-0.098253	0.080856	-0.662095	-0.663382	-0.034552	51.966	-0.661596	-5.838859E+8	5.917609E-11	NaN
77	1.000000	0.090155	7.3658e+06	-42489.1	955.818	-29783.1	0.000000	0.000000	6.090769	-0.026844	NaN	0.000000	0.001591	0.001729	28.1095	0.104039	0.002061	50.4692	-144.633	-164.36	-0.074814	0.088773	-0.654084	-0.655465	-0.026844	50.4692	-0.653685	-4.549329E+8	5.900582E-11	NaN
77	1.000000	0.098176	7.3658e+06	-42489.1	955.819	-29783.1	0.000000	0.000000	6.098788	-0.091264	NaN	0.000000	0.001596	0.001694	28.1092	0.111332	0.002097	53.0957	158.821	-170.144	-0.069240	0.096898	-0.646063	-0.647341	-0.091264	53.0957	-0.644773	-3.433757E+8	2.657848E-10	NaN
77	1.000000	0.106182	7.3658e+06	-42489.1	955.818	-29783.1	0.000000	0.000000	6.106797	-0.031911	NaN	0.000000	0.001562	0.001729	28.1096	0.043581	0.001978	22.0304	-88.2016	-168.224	-0.033599	0.104821	-0.638056	-0.639418	-0.031911	22.0304	-0.636970	-2.683550E+8	1.189128E-10	NaN
77	1.000000	0.114155	7.3658e+06	-42489.1	955.818	-29783.1	0.000000	0.000000	6.114768	-0.073693	NaN	0.000000	0.001609	0.001687	28.1111	0.066654	0.001921	34.7062	109.037	-163.152	-0.064795	0.112830	-0.630084	-0.631409	-0.073693	34.7062	-0.628491	-2.052599E+8	3.590236E-10	NaN
77	1.000000	0.122184	7.3658e+06	-42489.1	955.819	-29783.1	0.000000	0.000000	6.122799	-0.018606	NaN	0.000000	0.001622	0.001742	28.1116	0.074773	0.002035	36.7402	122.889	-168.205	-0.011281	0.120858	-0.622054	-0.623381	-0.018606	36.7402	-0.621674	-1.654424E+8	1.124593E-10	NaN
77	1.000000	0.130161	7.3658e+06	-42489.1	955.818	-29783.1	0.000000	0.000000	6.130776	-0.029684	NaN	0.000000	0.001590	0.001725	28.1116	0.088713	0.001989	44.6019	-55.0583	-166.083	-0.170729	0.128870	-0.614077	-0.615368	-0.029684	44.6019	-0.613578	-1.280368E+8	2.318410E-10	NaN
77	1.000000	0.138171	7.3658e+06	-42489.1	955.819	-29783.1	0.000000	0.000000	6.138783	-0.094126	NaN	0.000000	0.001577	0.001724	28.1113	0.164466	0.001907	86.2626	56.6124	-166.804	0.014614	0.136836	-0.606067	-0.607402	-0.094126	86.2626	-0.605249	-9.834070E+7	9.571446E-10	NaN
77	1.000000	0.146198	7.3658e+06	-42489.1	955.817	-29783.1	0.000000	0.000000	6.146812	-0.058438	NaN	0.000000	0.001588	0.001732	28.1113	0.040063	0.001901	21.0738	-115.814	-163.956	-0.118160	0.144847	-0.598040	-0.599392	-0.058438	21.0738	-0.595961	-7.325178E+7	7.977665E-10	NaN
77	1.000000	0.154181	7.3658e+06	-42489.1	955.818	-29783.1	0.000000	0.000000	6.154795	-0.050436	NaN	0.000000	0.001591	0.001704	28.1107	0.040311	0.001962	20.5453	-92.4007	-165.237	-0.096207	0.152866	-0.590057	-0.591372	-0.050436	20.5453	-0.588216	-5.728903E+7	8.803858E-10	NaN
77	1.000000	0.162186	7.3658e+06	-42489.1	955.818	-29783.1	0.000000	0.000000	6.162798	-0.101848	NaN	0.000000	0.001589	0.001684	28.1112	0.094022	0.001953	48.1457	-61.7469	-165.977	-0.060703	0.160887	-0.582052	-0.583351	-0.101848	48.1457	-0.580466	-4.478691E+7	2.274068E-9	NaN
77	1.000000	0.170203	7.3658e+06	-42489.1	955.818	-29783.1	0.000000	0.000000	6.170819	0.002911	NaN	0.000000	0.001573	0.001684	28.1105	0.023696	0.002063	11.4877	-14.6966	-169.014	-0.117099	0.168864	-0.574035	-0.575375	0.002911	11.4877	-0.574225	-3.672828E+7	-7.925346E-11	NaN
77	1.000000	0.178196	7.3658e+06	-42489.1	955.818	-29783.1	0.000000	0.000000	6.178810	-0.042609	NaN	0.000000	0.001611	0.001689	28.1106	0.067217	0.001938	34.6882	-158.466	-165.423	-0.103223	0.176891	-0.566042	-0.567348	-0.042609	34.6882	-0.565121	-2.749164E+7	1.549898E-9	NaN
77	1.000000	0.186207	7.3658e+06	-42489.1	955.818	-29783.1	0.000000	0.000000	6.186820	-0.075200	NaN	0.000000	0.001576	0.001694	28.1109	0.064607	0.002083	31.0109	-42.0423	-164.819	-0.103078	0.184880	-0.558031	-0.559359	-0.075200	31.0109	-0.556213	-2.070010E+7	3.632831E-9	NaN
77	1.000000	0.194185	7.3658e+06	-42489.1	955.818	-29783.1	0.000000	0.000000	6.194797	-0.080023	NaN	0.000000	0.001601	0.001699	28.1112	0.055514	0.002025	27.4135	150.243	-163.17	-0.128498	0.192931	-0.550054	-0.551308	-0.080023	27.4135	-0.547864	-1.586246E+7	5.044822E-9	NaN
77	1.000000	0.202167	7.3658e+06	-42489.1	955.819	-29783.1	0.000000	0.000000	6.202779	-0.093729	NaN	0.000000	0.001577	0.001697	28.1117	0.047908	0.002024	23.6748	104.252	-169.142	-0.047306	0.200848	-0.542072	-0.543391	-0.093729	23.6748	-0.539102	-1.199245E+7	7.815639E-9	NaN
77	1.000000	0.210206	7.3658e+06	-42489.1	955.818	-29783.1	0.000000	0.000000	6.210820	-0.049523	NaN	0.000000	0.001578	0.001691	28.1115	0.053075	0.001806	29.3947	-107.041	-165.488	-0.008707	0.208884	-0.534032	-0.535354	-0.049523	29.3947	-0.532769	-9.79531e+06	5.055810E-9	NaN
77	1.000000	0.218192	7.3658e+06	-42489.1	955.818	-29783.1	0.000000	0.000000	6.218805	-0.076272	NaN	0.000000	0.001565	0.001664	28.1115	0.103666	0.002066	50.1838	121.988	-165.495	-0.054274	0.216882	-0.526047	-0.527357	-0.076272	50.1838	-0.524907	-7.61755e+06	1.001267E-8	NaN
77	1.000000	0.226200	7.3658e+06	-42489.1	955.818	-29783.1	0.000000	0.000000	6.226811	-0.108115	NaN	0.000000	0.001626	0.001695	28.1115	0.036138	0.002070	17.4579	148.164	-165.892	-0.043857	0.224862	-0.518039	-0.519377	-0.108115	17.4579	-0.513394	-5.26843e+06	2.052135E-8	NaN
77	1.000000	0.234232	7.3658e+06	-42489.1	955.819	-29783.1	0.000000	0.000000	6.234845	-0.082694	NaN	0.000000	0.001607	0.001677	28.1105	0.090960	0.001914	47.5324	-9.446418	-165.307	-0.037786	0.232869	-0.510006	-0.511370	-0.082694	47.5324	-0.508702	-4.53241e+06	1.824505E-8	NaN
77	1.000000	0.242223	7.3658e+06	-42489.1	955.818	-29783.1	0.000000	0.000000	6.242839	-0.015897	NaN	0.000000	0.001558	0.001694	28.1099	0.019959	0.002105	9.483185	154.132	-166.455	-0.024679	0.240879	-0.502015	-0.503360	-0.015897	9.483185	-0.500758	-3.51229e+06	4.526164E-9	NaN
77	1.000000	0.250238	7.3658e+06	-42489.1	955.819	-29783.1	0.000000	0.000000	6.250851	-0.064164	NaN	0.000000	0.001586	0.001694	28.109	0.056788	0.002047	27.7409	127.557	-167.525	-0.075532	0.248899	-0.494000	-0.495340	-0.064164	27.7409	-0.492266	-2.67331e+06	2.400184E-8	NaN
77	1.000000	0.258227	7.3658e+06	-42489.1	955.818	-29783.1	0.000000	0.000000	6.258842	-0.025530	NaN	0.000000	0.001585	0.001697	28.1085	0.068960	0.002110	32.6802	73.4315	-167.725	0.012132	0.256939	-0.486011	-0.487300	-0.025530	32.6802	-0.485425	-2.14507e+06	1.190180E-8	NaN
77	1.000000	0.266189	7.3658e+06	-42489.1	955.818	-29783.1	0.000000	0.000000	6.266801	-0.072087	NaN	0.000000	0.001597	0.001710	28.1089	0.048660	0.001981	24.5594	-93.0104	-167.27	-0.090292	0.264938	-0.478050	-0.479301	-0.072087	24.5594	-0.475849	-1.5754e+06	4.575801E-8	NaN
77	1.000000	0.274230	7.3658e+06	-42489.1	955.819	-29783.1	0.000000	0.000000	6.274845	-0.016321	NaN	0.000000	0.001587	0.001682	28.1094	0.038588	0.001935	19.9462	114.696	-164.894	-0.016501	0.272927	-0.470009	-0.471312	-0.016321	19.9462	-0.469395	-1.27917e+06	1.275890E-8	NaN
77	1.000000	0.282229	7.3658e+06	-42489.1	955.818	-29783.1	0.000000	0.000000	6.282842	-0.066792	NaN	0.000000	0.001590	0.001688	28.1098	0.081971	0.001967	41.679	150.894	-169.064	-0.065622	0.280910	-0.462009	-0.463329	-0.066792	41.679	-0.460807	-969089	6.892212E-8	NaN
77	1.000000	0.290263	7.3658e+06	-42489.1	955.818	-29783.1	0.000000	0.000000	6.290876	-0.079185	NaN	0.000000	0.001557	0.001680	28.1091	0.128085	0.001932	66.3135	82.6928	-165.856	-0.058838	0.288929	-0.453976	-0.455310	-0.079185	66.3135	-0.453080	-754575	1.049394E-7	NaN
77	1.000000	0.298223	7.3658e+06	-42489.1	955.818	-29783.1	0.000000	0.000000	6.298837	-0.033260	NaN	0.000000	0.001601	0.001671	28.1099	0.098493	0.001939	50.8045	126.995	-163.948	-0.034731	0.296881	-0.446016	-0.447358	-0.033260	50.8045	-0.445525	-590593	5.631585E-8	NaN
77	1.000000	0.306259	7.3658e+06	-42489.1	955.818	-29783.1	0.000000	0.000000	6.306871	-0.080972	NaN	0.000000	0.001595	0.001694	28.1091	0.031470	0.002063	15.2521	65.357	-164.175	-0.033954	0.304913	-0.437980	-0.439326	-0.080972	15.2521	-0.433998	-406068	1.994039E-7	NaN
77	1.000000	0.314239	7.3658e+06	-42489.1	955.818	-29783.1	0.000000	0.000000	6.314855	0.008576	NaN	0.000000	0.001587	0.001685	28.1083	0.122048	0.002064	59.1407	59.4739	-169.686	-0.005951	0.312973	-0.430000	-0.431266	0.008576	59.1407	-0.430109	-357767	-2.396995E-8	NaN
77	1.000000	0.322227	7.3658e+06	-42489.1	955.818	-29783.1	0.000000	0.000000	6.322842	-0.040922	NaN	0.000000	0.001597	0.001684	28.1078	0.023636	0.002141	11.0425	153.922	-165.335	0.018937	0.320972	-0.422011	-0.423266	-0.040922	11.0425	-0.419232	-250910	1.630933E-7	NaN
77	1.000000	0.330240	7.3658e+06	-42489.1	955.818	-29783.1	0.000000	0.000000	6.330855	-0.017579	NaN	0.000000	0.001617	0.001701	28.1077	0.043086	0.001907	22.5958	29.7986	-166.094	-0.041657	0.328941	-0.413999	-0.415297	-0.017579	22.5958	-0.413415	-207466	8.473198E-8	NaN
77	1.000000	0.338268	7.3658e+06	-42489.1	955.819	-29783.1	0.000000	0.000000	6.338883	-0.042298	NaN	0.000000	0.001614	0.001700	28.108	0.093157	0.001921	48.487	-16.3298	-163.743	0.037302	0.336941	-0.405970	-0.407298	-0.042298	48.487	-0.405316	-159128	2.658094E-7	NaN
77	1.000000	0.346260	7.3658e+06	-42489.1	955.817	-29783.1	0.000000	0.000000	6.346870	-0.137082	NaN	0.000000	0.001571	0.001717	28.108	0.072621	0.002174	33.3994	-143.179	-165.896	-0.010385	0.345021	-0.397979	-0.399218	-0.137082	33.3994	-0.394901	-113036	1.212733E-6	NaN
77	1.000000	0.354271	7.3658e+06	-42489.1	955.818	-29783.1	0.000000	0.000000	6.354883	-0.091637	NaN	0.000000	0.001564	0.001710	28.1088	0.050097	0.002126	23.5659	119.109	-168.61	-0.200713	0.352958	-0.389968	-0.391280	-0.091637	23.5659	-0.387051	-87290.6	1.049792E-6	NaN
77	1.000000	0.362264	7.3658e+06	-42489.1	955.819	-29783.1	0.000000	0.000000	6.362879	-0.008841	NaN	0.000000	0.001586	0.001717	28.1094	0.030423	0.001904	15.9766	-146.728	-167.461	0.052853	0.360964	-0.381975	-0.383275	-0.008841	15.9766	-0.381560	-72823.4	1.214048E-7	NaN
77	1.000000	0.370293	7.3658e+06	-42489.1	955.818	-29783.1	0.000000	0.000000	6.370907	-0.038142	NaN	0.000000	0.001578	0.001737	28.1093	0.023615	0.001948	12.125	11.7526	-166.897	-0.034635	0.368976	-0.373946	-0.375262	-0.038142	12.125	-0.371586	-52356	7.285135E-7	NaN
77	1.000000	0.378259	7.3658e+06	-42489.1	955.818	-29783.1	0.000000	0.000000	6.378874	-0.018469	NaN	0.000000	0.001594	0.001723	28.1089	0.063121	0.002068	30.5198	-96.6323	-165.989	-0.070941	0.376949	-0.365980	-0.367290	-0.018469	30.5198	-0.365526	-42819.4	4.313187E-7	NaN
77	1.000000	0.386282	7.3658e+06	-42489.1	955.817	-29783.1	0.000000	0.000000	6.386898	0.000468	NaN	0.000000	0.001579	0.001729	28.1101	0.135425	0.001798	75.3325	-12.2373	-165.564	4.808239E-5	0.385007	-0.357957	-0.359231	0.000468	75.3325	-0.357961	-33293.9	-1.404979E-8	NaN
77	1.000000	0.394252	7.3658e+06	-42489.1	955.818	-29783.1	0.000000	0.000000	6.394866	-0.041900	NaN	0.000000	0.001575	0.001715	28.1093	0.096409	0.001975	48.8263	27.7183	-165.233	0.017682	0.392993	-0.349987	-0.351245	-0.041900	48.8263	-0.349343	-24972.7	1.677815E-6	NaN
77	1.000000	0.402296	7.3658e+06	-42489.1	955.818	-29783.1	0.000000	0.000000	6.402909	-0.052168	NaN	0.000000	0.001553	0.001686	28.1091	0.060073	0.001907	31.4984	83.6656	-165.505	-0.066401	0.400916	-0.341943	-0.343323	-0.052168	31.4984	-0.340701	-18696.8	2.790225E-6	NaN
77	1.000000	0.410282	7.3658e+06	-42489.1	955.818	-29783.1	0.000000	0.000000	6.410897	-0.031578	NaN	0.000000	0.001549	0.001684	28.1088	0.015498	0.001881	8.239178	132.376	-167.279	-0.034086	0.408990	-0.333956	-0.335248	-0.031578	8.239178	-0.331082	-13529.7	2.334017E-6	NaN
77	1.000000	0.418270	7.3658e+06	-42489.1	955.818	-29783.1	0.000000	0.000000	6.418883	-0.063127	NaN	0.000000	0.001522	0.001720	28.1095	0.065766	0.001952	33.6878	106.633	-162.99	-0.119283	0.416943	-0.325969	-0.327296	-0.063127	33.6878	-0.324564	-10857.5	5.814128E-6	NaN
77	1.000000	0.426286	7.3658e+06	-42489.1	955.818	-29783.1	0.000000	0.000000	6.426898	-0.075223	NaN	0.000000	0.001564	0.001726	28.1092	0.057913	0.002062	28.0857	-120.021	-162.23	-0.156241	0.424979	-0.317953	-0.319259	-0.075223	28.0857	-0.315944	-8107.34	9.278409E-6	NaN
77	1.000000	0.434269	7.3658e+06	-42489.1	955.818	-29783.1	0.000000	0.000000	6.434880	-0.109582	NaN	0.000000	0.001552	0.001748	28.1102	0.016353	0.001927	8.486491	-11.9793	-163.712	-0.025087	0.432982	-0.309970	-0.311257	-0.109582	8.486491	-0.300286	-4752.12	2.305971E-5	NaN
77	1.000000	0.442326	7.3658e+06	-42489.1	955.818	-29783.1	0.000000	0.000000	6.442940	-0.038404	NaN	0.000000	0.001533	0.001739	28.1101	0.069094	0.001940	35.6109	-165.432	-163.113	-0.074987	0.440973	-0.301913	-0.303266	-0.038404	35.6109	-0.301104	-4887.28	7.857932E-6	NaN
77	1.000000	0.450318	7.3658e+06	-42489.1	955.819	-29783.1	0.000000	0.000000	6.450933	-0.034058	NaN	0.000000	0.001524	0.001747	28.1101	0.086202	0.002035	42.362	-160.325	-165.644	-0.003685	0.448984	-0.293920	-0.295255	-0.034058	42.362	-0.293317	-3740.64	9.104874E-6	NaN
77	1.000000	0.458311	7.3658e+06	-42489.1	955.818	-29783.1	0.000000	0.000000	6.458925	-0.029524	NaN	0.000000	0.001542	0.001703	28.1101	0.049107	0.002043	24.0338	41.0451	-166.72	-0.036017	0.457002	-0.285928	-0.287237	-0.029524	24.0338	-0.285006	-2807.79	1.051499E-5	NaN
77	1.000000	0.466295	7.3658e+06	-42489.1	955.818	-29783.1	0.000000	0.000000	6.466908	-0.062536	NaN	0.000000	0.001578	0.001715	28.1105	0.021618	0.001975	10.9466	88.8314	-164.812	-0.087562	0.465006	-0.277944	-0.279232	-0.062536	10.9466	-0.273659	-1892.73	3.303987E-5	NaN
77	1.000000	0.474340	7.3658e+06	-42489.1	955.818	-29783.1	0.000000	0.000000	6.474956	-0.014822	NaN	0.000000	0.001561	0.001683	28.1086	0.050844	0.001924	26.4299	88.6447	-163.1	0.026477	0.473018	-0.269898	-0.271221	-0.014822	26.4299	-0.269478	-1635.31	9.063667E-6	NaN
77	1.000000	0.482315	7.3658e+06	-42489.1	955.819	-29783.1	0.000000	0.000000	6.482931	0.000928	NaN	0.000000	0.001534	0.001688	28.1083	0.150722	0.001911	78.8796	-122.805	-167.262	0.007950	0.481047	-0.261923	-0.263192	0.000928	78.8796	-0.261932	-1254.6	-7.393009E-7	NaN
77	1.000000	0.490326	7.3658e+06	-42489.1	955.819	-29783.1	0.000000	0.000000	6.490940	-0.042220	NaN	0.000000	0.001567	0.001685	28.1088	0.010767	0.001882	5.719493	-33.1808	-162.402	-0.011589	0.488989	-0.253913	-0.255249	-0.042220	5.719493	-0.248376	-775.957	5.441002E-5	NaN
77	1.000000	0.498335	7.3658e+06	-42489.1	955.818	-29783.1	0.000000	0.000000	6.498948	-0.080853	NaN	0.000000	0.001531	0.001681	28.1088	0.054042	0.002112	25.5869	-95.8475	-167.896	-0.158592	0.496962	-0.245903	-0.247276	-0.080853	25.5869	-0.243533	-652.589	0.000124	NaN
77	1.000000	0.506306	7.3658e+06	-42489.1	955.818	-29783.1	0.000000	0.000000	6.506920	-0.053754	NaN	0.000000	0.001515	0.001706	28.1084	0.065167	0.001944	33.5263	-33.7514	-161.849	-0.043053	0.505032	-0.237932	-0.239207	-0.053754	33.5263	-0.236730	-510.957	0.000105	NaN
77	1.000000	0.514357	7.3658e+06	-42489.1	955.819	-29783.1	0.000000	0.000000	6.514967	-0.137913	NaN	0.000000	0.001527	0.001656	28.1092	0.076510	0.001867	40.9892	167.864	-163.293	-0.117538	0.513027	-0.229882	-0.231212	-0.137913	40.9892	-0.227358	-363.696	0.000379	NaN
77	1.000000	0.522315	7.3658e+06	-42489.1	955.818	-29783.1	0.000000	0.000000	6.522927	-0.078836	NaN	0.000000	0.001582	0.001693	28.1078	0.113205	0.002062	54.9009	-168.703	-164.121	-0.029848	0.521063	-0.221924	-0.223176	-0.078836	54.9009	-0.220847	-286.551	0.000275	NaN
77	1.000000	0.530325	7.3658e+06	-42489.1	955.819	-29783.1	0.000000	0.000000	6.530937	-0.096510	NaN	0.000000	0.001570	0.001708	28.1081	0.060809	0.001963	30.9814	171.555	-164.228	-0.148564	0.529017	-0.213914	-0.215222	-0.096510	30.9814	-0.211577	-203.393	0.000475	NaN
77	1.000000	0.538354	7.3658e+06	-42489.1	955.818	-29783.1	0.000000	0.000000	6.538967	-0.069426	NaN	0.000000	0.001542	0.001704	28.1084	0.068686	0.002045	33.58	31.8836	-164.058	-0.005160	0.537055	-0.205885	-0.207184	-0.069426	33.58	-0.204334	-155.13	0.000448	NaN
77	1.000000	0.546326	7.3658e+06	-42489.1	955.818	-29783.1	0.000000	0.000000	6.546940	-0.050866	NaN	0.000000	0.001563	0.001712	28.1084	0.065195	0.001940	33.6063	-26.6993	-167.554	-0.057927	0.545059	-0.197913	-0.199180	-0.050866	33.6063	-0.196777	-116.575	0.000436	NaN
77	1.000000	0.554347	7.3658e+06	-42489.1	955.818	-29783.1	0.000000	0.000000	6.554963	0.023887	NaN	0.000000	0.001558	0.001730	28.1069	0.049309	0.001926	25.6029	165.265	-165.842	-0.037506	0.552985	-0.189892	-0.191254	0.023887	25.6029	-0.190592	-92.0252	-0.000260	NaN
77	1.000000	0.562367	7.3658e+06	-42489.1	955.818	-29783.1	0.000000	0.000000	6.562983	-0.010156	NaN	0.000000	0.001588	0.001691	28.1076	0.097568	0.001977	49.3587	141.51	-166.612	-0.071257	0.561038	-0.181871	-0.183200	-0.010156	49.3587	-0.181717	-65.2574	0.000156	NaN
77	1.000000	0.570366	7.3658e+06	-42489.1	955.819	-29783.1	0.000000	0.000000	6.570979	-0.080360	NaN	0.000000	0.001607	0.001709	28.1071	0.041753	0.002070	20.1727	34.3788	-164.956	-0.132001	0.569092	-0.173872	-0.175146	-0.080360	20.1727	-0.170885	-42.556	0.001888	NaN
77	1.000000	0.578305	7.3658e+06	-42489.1	955.818	-29783.1	0.000000	0.000000	6.578920	-0.015593	NaN	0.000000	0.001611	0.001706	28.1068	0.077826	0.002052	37.9223	-91.3823	-165.019	-0.029410	0.577019	-0.165934	-0.167219	-0.015593	37.9223	-0.165626	-34.4573	0.000453	NaN
77	1.000000	0.586359	7.3658e+06	-42489.1	955.818	-29783.1	0.000000	0.000000	6.586974	-0.032374	NaN	0.000000	0.001617	0.001709	28.1065	0.054715	0.001934	28.2873	171.28	-165.106	0.013892	0.585111	-0.157879	-0.159127	-0.032374	28.2873	-0.157021	-24.2578	0.001335	NaN
77	1.000000	0.594364	7.3658e+06	-42489.1	955.818	-29783.1	0.000000	0.000000	6.594981	0.029865	NaN	0.000000	0.001604	0.001684	28.1077	0.069815	0.001903	36.6785	24.6263	-162.965	0.079635	0.593057	-0.149875	-0.151182	0.029865	36.6785	-0.150486	-18.4865	-0.001615	NaN
77	1.000000	0.602352	7.3658e+06	-42489.1	955.818	-29783.1	0.000000	0.000000	6.602969	0.042870	NaN	0.000000	0.001632	0.001714	28.108	0.032897	0.002040	16.1258	35.1115	-166.996	0.033026	0.601084	-0.141887	-0.143154	0.042870	16.1258	-0.143881	-13.9773	-0.003067	NaN
77	1.000000	0.610417	7.3658e+06	-42489.1	955.818	-29783.1	0.000000	0.000000	6.611032	-0.017098	NaN	0.000000	0.001633	0.001749	28.108	0.078611	0.002094	37.5368	62.2023	-167.154	0.016828	0.609043	-0.133822	-0.135195	-0.017098	37.5368	-0.133480	-8.895997	0.001922	NaN
77	1.000000	0.618378	7.3658e+06	-42489.1	955.817	-29783.1	0.000000	0.000000	6.618992	-0.027140	NaN	0.000000	0.001597	0.001740	28.108	0.117105	0.002060	56.8406	120.874	-165.776	-0.065916	0.617038	-0.125861	-0.127201	-0.027140	56.8406	-0.125503	-6.222034	0.004362	NaN
77	1.000000	0.626370	7.3658e+06	-42489.1	955.819	-29783.1	0.000000	0.000000	6.626985	-0.007512	NaN	0.000000	0.001588	0.001708	28.1075	0.095304	0.001983	48.0511	151.694	-162.075	-0.017431	0.625058	-0.117869	-0.119180	-0.007512	48.0511	-0.117752	-4.350011	0.001727	NaN
77	1.000000	0.634421	7.3658e+06	-42489.1	955.819	-29783.1	0.000000	0.000000	6.635039	0.042553	NaN	0.000000	0.001608	0.001708	28.106	0.049199	0.002040	24.1198	-36.4509	-168.691	0.010478	0.633066	-0.109817	-0.111173	0.042553	24.1198	-0.111141	-3.175852	-0.013399	NaN
77	1.000000	0.642379	7.3658e+06	-42489.1	955.818	-29783.1	0.000000	0.000000	6.642992	-0.065044	NaN	0.000000	0.001626	0.001724	28.1059	0.140109	0.002038	68.7404	52.9717	-164.644	-0.053747	0.641135	-0.101860	-0.103104	-0.065044	68.7404	-0.101150	-1.937298	0.033575	NaN
77	1.000000	0.650414	7.3658e+06	-42489.1	955.819	-29783.1	0.000000	0.000000	6.651027	-0.071554	NaN	0.000000	0.001626	0.001710	28.1069	0.034407	0.002150	16.0018	-11.1171	-165.464	-0.052261	0.649069	-0.093824	-0.095170	-0.071554	16.0018	-0.090471	-1.108771	0.064535	NaN
77	1.000000	0.658425	7.3658e+06	-42489.1	955.818	-29783.1	0.000000	0.000000	6.659040	-0.025644	NaN	0.000000	0.001596	0.001686	28.1068	0.052634	0.001881	27.9842	44.7197	-163.095	-0.032232	0.657114	-0.085813	-0.087125	-0.025644	27.9842	-0.085126	-0.827432	0.030992	NaN
77	1.000000	0.666417	7.3658e+06	-42489.1	955.818	-29783.1	0.000000	0.000000	6.667030	-0.063481	NaN	0.000000	0.001566	0.001687	28.1078	0.020951	0.002139	9.796442	92.2808	-164.421	0.016986	0.665051	-0.077822	-0.079188	-0.063481	9.796442	-0.072962	-0.408707	0.155321	NaN
77	1.000000	0.674408	7.3658e+06	-42489.1	955.818	-29783.1	0.000000	0.000000	6.675022	-0.044429	NaN	0.000000	0.001611	0.001707	28.109	0.077324	0.002076	37.2476	18.5455	-165.431	-0.075479	0.673179	-0.069831	-0.071059	-0.044429	37.2476	-0.068936	-0.319363	0.139118	NaN
77	1.000000	0.682420	7.3658e+06	-42489.1	955.819	-29783.1	0.000000	0.000000	6.683035	-0.020220	NaN	0.000000	0.001660	0.001710	28.1086	0.070486	0.002045	34.4735	-176.317	-166.219	0.001705	0.681101	-0.061819	-0.063138	-0.020220	34.4735	-0.061379	-0.197186	0.102543	NaN
77	1.000000	0.690403	7.3658e+06	-42489.1	955.818	-29783.1	0.000000	0.000000	6.691017	-0.028094	NaN	0.000000	0.001639	0.001663	28.1093	0.077045	0.002033	37.8881	145.925	-168.002	-0.017262	0.689107	-0.053836	-0.055131	-0.028094	37.8881	-0.053280	-0.114491	0.245385	NaN
77	1.000000	0.698435	7.3658e+06	-42489.1	955.818	-29783.1	0.000000	0.000000	6.699049	-0.047341	NaN	0.000000	0.001647	0.001686	28.1088	0.045310	0.002031	22.3101	-4.985193	-162.925	-0.049321	0.697087	-0.045804	-0.047151	-0.047341	22.3101	-0.044212	-0.060801	0.778625	NaN
77	1.000000	0.706394	7.3658e+06	-42489.1	955.818	-29783.1	0.000000	0.000000	6.707008	-0.046448	NaN	0.000000	0.001616	0.001704	28.1078	0.030941	0.001868	16.5671	136.107	-165.804	-0.017109	0.705170	-0.037845	-0.039069	-0.046448	16.5671	-0.035742	-0.033682	1.379010	NaN
77	1.000000	0.714431	7.3658e+06	-42489.1	955.819	-29783.1	0.000000	0.000000	6.715045	-0.044710	NaN	0.000000	0.001646	0.001646	28.1074	0.037769	0.001957	19.2994	-135.899	-163.631	-0.067623	0.713104	-0.029807	-0.031134	-0.044710	19.2994	-0.028070	-0.020364	2.195537	NaN
77	1.000000	0.722426	7.3658e+06	-42489.1	955.819	-29783.1	0.000000	0.000000	6.723040	-0.041497	NaN	0.000000	0.001611	0.001653	28.1074	0.117319	0.001938	60.5355	31.576	-162.323	-0.122192	0.721098	-0.021813	-0.023141	-0.041497	60.5355	-0.021299	-0.013553	3.061927	NaN
77	1.000000	0.730432	7.3658e+06	-42489.1	955.819	-29783.1	0.000000	0.000000	6.731065	0.399935	NaN	0.000000	0.001637	0.001624	28.1073	0.349949	0.001859	188.273	16.3154	-164.316	0.262744	0.729143	-0.013806	-0.015095	0.399935	188.273	-0.015399	-0.009516	-42.0275	NaN
77	1.000000	0.738420	7.3658e+06	-42489.1	955.819	-29783.1	0.000000	0.000000	6.739084	1.188648	NaN	0.000000	0.001636	0.001645	28.1072	0.450314	0.001899	237.134	24.4193	-166.279	1.013354	0.737124	-0.005819	-0.007115	1.188648	237.134	-0.009578	-0.006146	-193.407	NaN
77	1.000000	0.746447	7.3658e+06	-42489.1	955.819	-29783.1	0.000000	0.000000	6.747154	2.238186	NaN	0.000000	0.001601	0.001648	28.1072	0.755506	0.001916	394.305	12.0417	-166.035	2.014103	0.745129	0.002208	0.000891	2.238186	394.305	-0.002049	-0.001473	-1519.05	NaN
77	1.000000	0.754446	7.3658e+06	-42489.1	955.818	-29783.1	0.000000	0.000000	6.755184	2.964124	NaN	0.000000	0.001609	0.001660	28.1081	0.864585	0.001851	467.12	18.0551	-165.322	2.898272	0.753147	0.010208	0.008908	2.964124	467.12	0.005449	0.004547	651.943	6329.34
77	1.000000	0.762428	7.3658e+06	-42489.1	955.818	-29783.1	0.000000	0.000000	6.763212	4.090343	NaN	0.000000	0.001622	0.001648	28.1077	1.220508	0.002071	589.455	11.3611	-165.577	3.962792	0.761115	0.018190	0.016877	4.090343	589.455	0.012985	0.012692	322.285	4780.4
77	1.000000	0.770415	7.3658e+06	-42489.1	955.817	-29783.1	0.000000	0.000000	6.771263	5.632440	NaN	0.000000	0.001630	0.001629	28.108	1.568646	0.002034	771.333	19.0219	-168.9	5.386031	0.769145	0.026177	0.024906	5.632440	771.333	0.020700	0.023654	238.115	4582.05
77	1.000000	0.778438	7.3658e+06	-42489.1	955.819	-29783.1	0.000000	0.000000	6.779357	7.391248	NaN	0.000000	0.001613	0.001663	28.1082	1.882968	0.001756	1072.59	12.7097	-165.911	7.157035	0.777135	0.034199	0.032897	7.391248	1072.59	0.029031	0.038759	190.7	4977.62
77	1.000000	0.786478	7.3658e+06	-42489.1	955.817	-29783.1	0.000000	0.000000	6.787453	8.719401	NaN	0.000000	0.001598	0.001652	28.1082	2.490974	0.001925	1293.84	17.4028	-168.795	8.463183	0.785142	0.042240	0.040903	8.719401	1293.84	0.037185	0.056957	153.088	4953.13
77	2.000000	0.791062	7.3658e+06	-42489.1	955.818	-29783.1	0.000000	0.000000	6.792018	8.277819	NaN	0.000000	0.001598	0.001695	28.1055	2.904909	0.002019	1438.98	13.9468	-168.25	8.387627	0.790721	0.046823	0.046482	8.277819	1438.98	0.042509	0.070672	117.13	4945.43
77	2.000000	0.793017	7.3658e+06	-42489.1	955.818	-29783.1	0.000000	0.000000	6.793963	8.038722	NaN	0.000000	0.001606	0.001684	28.1054	2.876933	0.001985	1449.48	11.7133	-165.606	7.997594	0.792697	0.048778	0.048459	8.038722	1449.48	0.044619	0.076509	105.069	4787.74
77	2.000000	0.795005	7.3658e+06	-42489.1	955.818	-29783.1	0.000000	0.000000	6.795973	8.574545	NaN	0.000000	0.001578	0.001668	28.1053	3.235951	0.002004	1615.04	15.517	-170.741	8.478123	0.794687	0.050766	0.050448	8.574545	1615.04	0.046785	0.082734	103.64	5129.95
77	2.000000	0.797010	7.3658e+06	-42489.1	955.819	-29783.1	0.000000	0.000000	6.797988	8.826911	NaN	0.000000	0.001570	0.001678	28.1052	3.371357	0.001983	1700.18	13.4973	-168.443	8.979282	0.796708	0.052771	0.052469	8.826911	1700.18	0.048877	0.088974	99.2076	5207.58
77	2.000000	0.798995	7.3658e+06	-42489.1	955.818	-29783.1	0.000000	0.000000	6.799992	9.282437	NaN	0.000000	0.001584	0.001688	28.1057	3.409464	0.002011	1695.12	13.381	-167.382	9.263933	0.798676	0.054756	0.054438	9.282437	1695.12	0.050649	0.094430	98.3	5039.88
77	2.000000	0.800979	7.3658e+06	-42489.1	955.819	-29783.1	0.000000	0.000000	6.802000	9.862148	NaN	0.000000	0.001578	0.001684	28.1059	3.517411	0.001996	1762.27	16.1901	-170.984	9.886901	0.800649	0.056740	0.056410	9.862148	1762.27	0.052543	0.100435	98.1948	5080.48
77	2.000000	0.802965	7.3658e+06	-42489.1	955.818	-29783.1	0.000000	0.000000	6.803999	10.1811	NaN	0.000000	0.001591	0.001647	28.1059	3.708020	0.002008	1846.79	14.9968	-167.375	10.2119	0.802655	0.058727	0.058416	10.1811	1846.79	0.054592	0.107133	95.0323	5155.01
77	2.000000	0.804964	7.3658e+06	-42489.1	955.818	-29783.1	0.000000	0.000000	6.806006	10.3772	NaN	0.000000	0.001636	0.001647	28.106	3.790185	0.002013	1882.89	13.1608	-165.477	10.2938	0.804706	0.060725	0.060468	10.3772	1882.89	0.056592	0.113871	91.1316	5097.91
77	2.000000	0.806920	7.3658e+06	-42489.1	955.819	-29783.1	0.000000	0.000000	6.807978	10.7633	NaN	0.000000	0.001583	0.001638	28.1064	3.880165	0.001857	2089.41	11.7438	-167.656	10.6093	0.806625	0.062681	0.062386	10.7633	2089.41	0.058818	0.121603	88.5121	5474.25
77	2.000000	0.808920	7.3658e+06	-42489.1	955.819	-29783.1	0.000000	0.000000	6.809980	10.802	NaN	0.000000	0.001621	0.001650	28.1065	4.079465	0.001931	2112.86	13.4834	-168.328	10.776	0.808622	0.064682	0.064384	10.802	2112.86	0.060847	0.128864	83.8247	5377.47
77	2.000000	0.810951	7.3658e+06	-42489.1	955.818	-29783.1	0.000000	0.000000	6.812014	10.8862	NaN	0.000000	0.001574	0.001644	28.1054	4.287275	0.001961	2185.94	12.3714	-168.731	10.9867	0.810633	0.066712	0.066394	10.8862	2185.94	0.062977	0.136700	79.6361	5401.66
77	2.000000	0.812940	7.3658e+06	-42489.1	955.818	-29783.1	0.000000	0.000000	6.814007	10.9795	NaN	0.000000	0.001601	0.001634	28.1051	4.480735	0.002058	2176.79	13.4822	-167.664	11.0522	0.812603	0.068701	0.068365	10.9795	2176.79	0.064918	0.144034	76.2285	5240.32
77	2.000000	0.814925	7.3658e+06	-42489.1	955.818	-29783.1	0.000000	0.000000	6.816028	11.8514	NaN	0.000000	0.001580	0.001653	28.1049	4.674911	0.002006	2330.1	12.3479	-168.086	11.8076	0.814649	0.070686	0.070411	11.8514	2330.1	0.066872	0.151595	78.1776	5467.7
77	2.000000	0.816969	7.3658e+06	-42489.1	955.819	-29783.1	0.000000	0.000000	6.818101	12.5419	NaN	0.000000	0.001551	0.001625	28.1046	4.811653	0.002009	2395.41	12.6255	-165.955	12.7392	0.816623	0.072731	0.072385	12.5419	2395.41	0.068804	0.159256	78.7527	5484.09
77	2.000000	0.818948	7.3658e+06	-42489.1	955.819	-29783.1	0.000000	0.000000	6.820090	12.7979	NaN	0.000000	0.001563	0.001624	28.1048	5.144866	0.002020	2547.23	12.3584	-166.834	12.8157	0.818585	0.074710	0.074347	12.7979	2547.23	0.070942	0.167940	76.2053	5678.91
77	2.000000	0.820915	7.3658e+06	-42489.1	955.819	-29783.1	0.000000	0.000000	6.822089	13.5952	NaN	0.000000	0.001544	0.001628	28.1066	5.231399	0.001923	2720.83	13.1888	-169.521	13.4103	0.820633	0.076676	0.076395	13.5952	2720.83	0.072928	0.176204	77.1556	5921.96
77	2.000000	0.822936	7.3658e+06	-42489.1	955.818	-29783.1	0.000000	0.000000	6.824136	14.2029	NaN	0.000000	0.001528	0.001629	28.1065	5.463536	0.002039	2679.86	13.0218	-168.16	14.1809	0.822609	0.078698	0.078370	14.2029	2679.86	0.074723	0.183829	77.2614	5710.56
77	2.000000	0.824923	7.3658e+06	-42489.1	955.818	-29783.1	0.000000	0.000000	6.826133	14.444	NaN	0.000000	0.001524	0.001642	28.1064	5.822598	0.002099	2774.49	14.8299	-169.463	14.5179	0.824673	0.080685	0.080434	14.444	2774.49	0.076780	0.192756	74.9342	5773.67
77	2.000000	0.826896	7.3658e+06	-42489.1	955.818	-29783.1	0.000000	0.000000	6.828144	15.3961	NaN	0.000000	0.001531	0.001667	28.1067	5.770907	0.001999	2886.26	11.0919	-167.979	15.0268	0.826581	0.082657	0.082342	15.3961	2886.26	0.078656	0.201072	76.5701	5880.76
77	2.000000	0.828889	7.3658e+06	-42489.1	955.819	-29783.1	0.000000	0.000000	6.830171	16.2067	NaN	0.000000	0.001537	0.001694	28.1063	5.907135	0.001878	3144.69	8.869125	-167.183	16.0326	0.828613	0.084650	0.084374	16.2067	3144.69	0.080785	0.210705	76.9165	6259.13
77	2.000000	0.830910	7.3658e+06	-42489.1	955.817	-29783.1	0.000000	0.000000	6.832210	16.6542	NaN	0.000000	0.001523	0.001639	28.1058	6.238737	0.002091	2983.6	14.4272	-169.441	16.4732	0.830593	0.086671	0.086354	16.6542	2983.6	0.082485	0.218550	76.203	5830.94
77	2.000000	0.832871	7.3658e+06	-42489.1	955.819	-29783.1	0.000000	0.000000	6.834195	17.2297	NaN	0.000000	0.001549	0.001640	28.1059	6.285556	0.002001	3141.98	12.8429	-168.94	17.0489	0.832602	0.088632	0.088363	17.2297	3141.98	0.084520	0.228116	75.5307	6010.35
77	2.000000	0.834919	7.3658e+06	-42489.1	955.817	-29783.1	0.000000	0.000000	6.836276	18.0206	NaN	0.000000	0.001555	0.001677	28.1054	6.362221	0.001892	3362.86	10.8825	-168.672	18.1405	0.834637	0.090681	0.090398	18.0206	3362.86	0.086662	0.238392	75.5923	6292.68
77	2.000000	0.836930	7.3658e+06	-42489.1	955.817	-29783.1	0.000000	0.000000	6.838309	18.5809	NaN	0.000000	0.001524	0.001626	28.1058	6.727739	0.002078	3237.22	12.9566	-168.532	18.8398	0.836610	0.092691	0.092371	18.5809	3237.22	0.088386	0.246819	75.2816	5953.28
77	2.000000	0.838900	7.3658e+06	-42489.1	955.818	-29783.1	0.000000	0.000000	6.840306	19.2267	NaN	0.000000	0.001540	0.001658	28.1054	6.870264	0.002063	3330.06	13.2032	-170.365	19.0829	0.838576	0.094661	0.094337	19.2267	3330.06	0.090331	0.256486	74.9619	6007.5
77	2.000000	0.840918	7.3658e+06	-42489.1	955.817	-29783.1	0.000000	0.000000	6.842331	19.3742	NaN	0.000000	0.001533	0.001682	28.1066	7.079152	0.002021	3502.62	13.9836	-170.194	19.5412	0.840642	0.096680	0.096404	19.3742	3502.62	0.092531	0.267634	72.3907	6185.79
77	2.000000	0.842904	7.3658e+06	-42489.1	955.818	-29783.1	0.000000	0.000000	6.844334	19.8114	NaN	0.000000	0.001509	0.001673	28.1064	7.254365	0.001977	3669.8	16.8757	-174.509	19.7873	0.842586	0.098666	0.098348	19.8114	3669.8	0.094617	0.278404	71.1607	6354.45
77	2.000000	0.844872	7.3658e+06	-42489.1	955.818	-29783.1	0.000000	0.000000	6.846337	20.6588	NaN	0.000000	0.001565	0.001640	28.1071	7.299423	0.002035	3587.51	11.7504	-168.024	20.6968	0.844608	0.100633	0.100369	20.6588	3587.51	0.096315	0.287317	71.9023	6114.84
77	2.000000	0.846871	7.3658e+06	-42489.1	955.818	-29783.1	0.000000	0.000000	6.848368	21.4381	NaN	0.000000	0.001555	0.001621	28.1066	7.358816	0.001969	3737.78	12.7998	-169.516	21.2874	0.846533	0.102632	0.102294	21.4381	3737.78	0.098330	0.298072	71.9227	6255
77	2.000000	0.848853	7.3658e+06	-42489.1	955.817	-29783.1	0.000000	0.000000	6.850371	21.9425	NaN	0.000000	0.001505	0.001647	28.1061	7.378088	0.001930	3822.43	10.2428	-166.92	21.6309	0.848606	0.104615	0.104367	21.9425	3822.43	0.100309	0.308810	71.0549	6284.44
77	2.000000	0.850911	7.3658e+06	-42489.1	955.817	-29783.1	0.000000	0.000000	6.852430	21.9838	NaN	0.000000	0.001527	0.001647	28.1059	7.774502	0.001967	3953.05	14.3268	-171.645	22.0127	0.850600	0.106672	0.106361	21.9838	3953.05	0.102502	0.320912	68.5041	6375.47
77	2.000000	0.852900	7.3658e+06	-42489.1	955.818	-29783.1	0.000000	0.000000	6.854447	22.6531	NaN	0.000000	0.001554	0.001627	28.1052	7.983877	0.001969	4055.54	16.4935	-173.859	22.6995	0.852614	0.108661	0.108375	22.6531	4055.54	0.104472	0.331976	68.2371	6430.86
77	2.000000	0.854906	7.3658e+06	-42489.1	955.818	-29783.1	0.000000	0.000000	6.856479	23.303	NaN	0.000000	0.001517	0.001632	28.1056	7.890883	0.001938	4071.42	13.3846	-170.169	23.5121	0.854565	0.110667	0.110326	23.303	4071.42	0.106374	0.342826	67.9735	6353.05
77	2.000000	0.856889	7.3658e+06	-42489.1	955.818	-29783.1	0.000000	0.000000	6.858489	23.9425	NaN	0.000000	0.001559	0.001666	28.1051	8.328054	0.002076	4012.15	14.1493	-170.642	23.8346	0.856577	0.112650	0.112339	23.9425	4012.15	0.108174	0.353242	67.7792	6167.57
77	2.000000	0.858890	7.3658e+06	-42489.1	955.818	-29783.1	0.000000	0.000000	6.860496	24.1005	NaN	0.000000	0.001545	0.001622	28.1047	8.384893	0.001977	4241.76	15.9472	-173.166	24.3188	0.858571	0.114651	0.114333	24.1005	4241.76	0.110390	0.366265	65.8009	6403.56
77	2.000000	0.860849	7.3658e+06	-42489.1	955.818	-29783.1	0.000000	0.000000	6.862486	24.8545	NaN	0.000000	0.001561	0.001646	28.1055	8.516760	0.002008	4240.98	15.1	-171.805	24.6836	0.860581	0.116610	0.116342	24.8545	4240.98	0.112215	0.377158	65.8996	6309.26
77	2.000000	0.862875	7.3658e+06	-42489.1	955.818	-29783.1	0.000000	0.000000	6.864518	25.0042	NaN	0.000000	0.001532	0.001643	28.1054	8.541896	0.001898	4499.47	12.5872	-170.68	24.8482	0.862604	0.118636	0.118366	25.0042	4499.47	0.114468	0.390818	63.9793	6575.79
77	2.000000	0.864858	7.3658e+06	-42489.1	955.817	-29783.1	0.000000	0.000000	6.866521	25.4814	NaN	0.000000	0.001572	0.001636	28.1055	8.614382	0.001968	4377.9	11.5485	-168.299	25.4277	0.864589	0.120619	0.120350	25.4814	4377.9	0.116254	0.401808	63.4168	6310
77	2.000000	0.866889	7.3658e+06	-42489.1	955.819	-29783.1	0.000000	0.000000	6.868558	25.6421	NaN	0.000000	0.001561	0.001641	28.1055	8.901399	0.002010	4428.47	14.5289	-171.347	25.7534	0.866564	0.122650	0.122325	25.6421	4428.47	0.118307	0.414622	61.8445	6283.48
77	2.000000	0.868867	7.3658e+06	-42489.1	955.818	-29783.1	0.000000	0.000000	6.870548	25.9242	NaN	0.000000	0.001539	0.001663	28.105	9.111881	0.001943	4690.42	11.8644	-169.634	25.9506	0.868589	0.124628	0.124351	25.9242	4690.42	0.120483	0.428408	60.5129	6547.21
77	2.000000	0.870879	7.3658e+06	-42489.1	955.818	-29783.1	0.000000	0.000000	6.872574	26.2722	NaN	0.000000	0.001614	0.001660	28.1036	9.485713	0.002035	4661.21	13.9386	-171.499	26.3391	0.870582	0.126640	0.126344	26.2722	4661.21	0.122413	0.440817	59.5989	6414.2
77	2.000000	0.872840	7.3658e+06	-42489.1	955.818	-29783.1	0.000000	0.000000	6.874575	27.2238	NaN	0.000000	0.001587	0.001660	28.1039	9.398604	0.001940	4844.91	13.89	-172.514	26.945	0.872532	0.128602	0.128293	27.2238	4844.91	0.124388	0.453690	60.0053	6571.72
77	2.000000	0.874880	7.3658e+06	-42489.1	955.818	-29783.1	0.000000	0.000000	6.876625	27.4701	NaN	0.000000	0.001571	0.001633	28.1036	9.623846	0.002037	4723.56	13.403	-169.673	27.5078	0.874601	0.130641	0.130363	27.4701	4723.56	0.126280	0.466191	58.9245	6320.64
77	2.000000	0.876869	7.3658e+06	-42489.1	955.818	-29783.1	0.000000	0.000000	6.878647	28.2791	NaN	0.000000	0.001593	0.001609	28.1043	9.954639	0.001956	5088.54	16.2592	-174.444	28.1981	0.876526	0.132631	0.132287	28.2791	5088.54	0.128463	0.480816	58.8148	6704.66
77	2.000000	0.878891	7.3658e+06	-42489.1	955.818	-29783.1	0.000000	0.000000	6.880667	28.237	NaN	0.000000	0.001637	0.001593	28.1037	10.1345	0.002086	4859.24	15.5597	-172.589	28.3138	0.878584	0.134652	0.134345	28.237	4859.24	0.130294	0.493250	57.2469	6321.32
77	2.000000	0.880849	7.3658e+06	-42489.1	955.818	-29783.1	0.000000	0.000000	6.882637	28.5297	NaN	0.000000	0.001579	0.001651	28.1051	10.2112	0.002027	5036.95	12.7739	-170.29	28.4164	0.880545	0.136610	0.136307	28.5297	5036.95	0.132362	0.507481	56.2183	6459.98
77	2.000000	0.882842	7.3658e+06	-42489.1	955.817	-29783.1	0.000000	0.000000	6.884656	29.1514	NaN	0.000000	0.001579	0.001614	28.105	10.4466	0.001911	5465.81	14.0456	-172.617	29.3319	0.882556	0.138603	0.138317	29.1514	5465.81	0.134603	0.523124	55.7256	6904.4
77	2.000000	0.884874	7.3658e+06	-42489.1	955.818	-29783.1	0.000000	0.000000	6.886706	29.6067	NaN	0.000000	0.001573	0.001620	28.1046	10.6883	0.002065	5175.91	15.5773	-173.667	30.0688	0.884522	0.140635	0.140284	29.6067	5175.91	0.136345	0.535438	55.2943	6462.56
77	2.000000	0.886831	7.3658e+06	-42489.1	955.818	-29783.1	0.000000	0.000000	6.888667	29.6742	NaN	0.000000	0.001595	0.001644	28.1043	10.9292	0.002060	5306.5	15.223	-173.212	29.4286	0.886529	0.142593	0.142291	29.6742	5306.5	0.138398	0.550136	53.9397	6536.52
77	2.000000	0.887896	7.3658e+06	-42489.1	955.818	-29783.1	0.000000	0.000000	6.889721	29.4238	NaN	0.000000	0.001601	0.001639	28.087	10.8736	0.001930	5632.71	11.7544	-171.009	30.0911	0.887529	0.143657	0.143290	29.4238	5632.71	0.139740	0.559840	52.5575	6877.95