File: remote_trans/data/nanoindenter/0828-1/data/Data_2025-08-06,11h17m57s/2025-07-22_16-23-58_1_213.txt
2025-07-22, 16:23:58, 1
Index	Phase	Displacement	Time	Pos X	Pos Y	Pos Z	Rot A	Rot B	Piezo Z	Force A	Force B	Gripper	Voltage A	Voltage B	Temperature	Amplitude force	Amplitude pos	Stiffness	Phase shift	Phase excitation	Force A raw	Displacement raw	HMax	HMax raw	Real Force	Real Stiffness	Contact Depth	Area	Hardness	Reduced Mod.
[#]	[#]	[um]	[s]	[um]	[um]	[um]	[m°]	[m°]	[um]	[uN]	[uN]	[V]	[V]	[V]	[°C]	[uN]	[um]	[N/m]	[°]	[°]	[uN]	[um]	[um]	[um]	[uN]	[N/m]	[um]	[um^2]	[MPa]	[MPa]
213	1.000000	0.002312	7.36713e+06	-49289.1	955.819	-29759.6	0.000000	0.000000	6.002836	-0.044784	NaN	0.000000	0.001650	0.001827	28.0801	0.074510	0.000988	75.4067	-108.724	-164.327	-0.060802	0.001045	-1.249362	-1.250629	-0.044784	75.4067	-1.248917	-4.959392E+16	9.030162E-19	NaN
213	1.000000	0.012340	7.36713e+06	-49289.1	955.818	-29759.6	0.000000	0.000000	6.012867	-0.007920	NaN	0.000000	0.001647	0.001831	28.0803	0.056949	0.001211	47.0276	-155.002	19.0428	-0.056751	0.010914	-1.239333	-1.240759	-0.007920	47.0276	-1.239207	-3.677337E+16	2.153719E-19	NaN
213	1.000000	0.022224	7.36713e+06	-49289.1	955.818	-29759.6	0.000000	0.000000	6.022752	0.047265	NaN	0.000000	0.001604	0.001805	28.08	0.064926	0.001647	39.4217	-44.3273	-166.159	-0.010821	0.020895	-1.229450	-1.230779	0.047265	39.4217	-1.230349	-2.799030E+16	-1.688621E-18	NaN
213	1.000000	0.032247	7.36713e+06	-49289.1	955.819	-29759.6	0.000000	0.000000	6.032774	0.018516	NaN	0.000000	0.001611	0.001810	28.0804	0.055629	0.001919	28.9934	18.9762	15.7289	-0.010692	0.030904	-1.219427	-1.220769	0.018516	28.9934	-1.219906	-2.028816E+16	-9.126629E-19	NaN
213	1.000000	0.042250	7.36713e+06	-49289.1	955.818	-29759.6	0.000000	0.000000	6.042777	-0.003329	NaN	0.000000	0.001570	0.001812	28.0803	0.088633	0.002000	44.3115	159.069	-166.508	-0.029072	0.040931	-1.209423	-1.210743	-0.003329	44.3115	-1.209367	-1.466114E+16	2.270799E-19	NaN
213	1.000000	0.052220	7.36713e+06	-49289.1	955.818	-29759.6	0.000000	0.000000	6.052747	0.002919	NaN	0.000000	0.001596	0.001777	28.0803	0.012481	0.001913	6.524835	-14.8402	14.6498	-0.033312	0.050802	-1.199454	-1.200871	0.002919	6.524835	-1.199789	-1.091253E+16	-2.674650E-19	NaN
213	1.000000	0.062232	7.36713e+06	-49289.1	955.819	-29759.6	0.000000	0.000000	6.062755	-0.077882	NaN	0.000000	0.001547	0.001804	28.0802	0.141167	0.002039	69.2421	175.511	-163.357	-0.102935	0.060925	-1.189442	-1.190749	-0.077882	69.2421	-1.188598	-7.727704E+15	1.007831E-17	NaN
213	1.000000	0.072246	7.36713e+06	-49289.1	955.818	-29759.6	0.000000	0.000000	6.072772	-0.011636	NaN	0.000000	0.001597	0.001829	28.0801	0.057425	0.002020	28.4311	-125.319	16.8591	-0.034377	0.070836	-1.179427	-1.180838	-0.011636	28.4311	-1.179120	-5.768806E+15	2.017141E-18	NaN
213	1.000000	0.082215	7.36713e+06	-49289.1	955.819	-29759.6	0.000000	0.000000	6.082741	-0.015874	NaN	0.000000	0.001622	0.001833	28.0805	0.158901	0.002097	75.7674	-96.6032	-164.281	-0.062579	0.080902	-1.169459	-1.170771	-0.015874	75.7674	-1.169302	-4.261171E+15	3.725222E-18	NaN
213	1.000000	0.092248	7.36713e+06	-49289.1	955.818	-29759.6	0.000000	0.000000	6.092774	-0.001964	NaN	0.000000	0.001605	0.001812	28.0808	0.031969	0.002036	15.7015	135.655	19.5523	0.013977	0.090856	-1.159426	-1.160817	-0.001964	15.7015	-1.159332	-3.132700E+15	6.270104E-19	NaN
213	1.000000	0.102265	7.36713e+06	-49289.1	955.818	-29759.6	0.000000	0.000000	6.102792	0.013631	NaN	0.000000	0.001592	0.001808	28.0803	0.047620	0.001974	24.1187	-69.1719	-161.238	0.045902	0.100929	-1.149409	-1.150745	0.013631	24.1187	-1.149832	-2.336542E+15	-5.833876E-18	NaN
213	1.000000	0.112242	7.36713e+06	-49289.1	955.818	-29759.6	0.000000	0.000000	6.112766	-0.063186	NaN	0.000000	0.001627	0.001771	28.079	0.088546	0.001841	48.0886	153.266	14.4356	0.021543	0.110852	-1.139432	-1.140822	-0.063186	48.0886	-1.138447	-1.644015E+15	3.843421E-17	NaN
213	1.000000	0.122264	7.36713e+06	-49289.1	955.818	-29759.6	0.000000	0.000000	6.122790	-0.010451	NaN	0.000000	0.001593	0.001788	28.0788	0.051729	0.001892	27.3358	-59.5801	-161.696	-0.056724	0.120949	-1.129410	-1.130724	-0.010451	27.3358	-1.129123	-1.232697E+15	8.478293E-18	NaN
213	1.000000	0.132267	7.36713e+06	-49289.1	955.818	-29759.6	0.000000	0.000000	6.132792	-0.037545	NaN	0.000000	0.001632	0.001822	28.0789	0.111646	0.002079	53.6988	-162.344	13.001	-0.063384	0.130904	-1.119406	-1.120769	-0.037545	53.6988	-1.118882	-8.983999E+14	4.179055E-17	NaN
213	1.000000	0.142256	7.36713e+06	-49289.1	955.819	-29759.6	0.000000	0.000000	6.142780	-0.070830	NaN	0.000000	0.001672	0.001768	28.0788	0.058703	0.002082	28.1923	103.987	-164.417	-0.041905	0.140921	-1.109417	-1.110753	-0.070830	28.1923	-1.107533	-6.326743E+14	1.119528E-16	NaN
213	1.000000	0.152278	7.36713e+06	-49289.1	955.818	-29759.6	0.000000	0.000000	6.152804	-0.003641	NaN	0.000000	0.001684	0.001763	28.0789	0.044122	0.001950	22.6281	-121.742	14.0152	-0.019129	0.150893	-1.099396	-1.100781	-0.003641	22.6281	-1.099275	-4.901559E+14	7.428984E-18	NaN
213	1.000000	0.162261	7.36713e+06	-49289.1	955.819	-29759.6	0.000000	0.000000	6.162790	0.053936	NaN	0.000000	0.001691	0.001769	28.0786	0.083399	0.002096	39.7865	-158.414	-166.278	0.065696	0.160912	-1.089413	-1.090762	0.053936	39.7865	-1.090429	-3.728880E+14	-1.446436E-16	NaN
213	1.000000	0.172261	7.36713e+06	-49289.1	955.819	-29759.6	0.000000	0.000000	6.172787	-0.009095	NaN	0.000000	0.001669	0.001753	28.0788	0.059816	0.001883	31.7593	15.2873	12.7718	-0.048313	0.170954	-1.079413	-1.080720	-0.009095	31.7593	-1.079198	-2.634783E+14	3.451889E-17	NaN
213	1.000000	0.182309	7.36713e+06	-49289.1	955.817	-29759.6	0.000000	0.000000	6.182837	0.023239	NaN	0.000000	0.001623	0.001786	28.0787	0.028337	0.001901	14.9096	127.892	-162.753	-0.124239	0.180941	-1.069364	-1.070732	0.023239	14.9096	-1.070533	-2.015361E+14	-1.153092E-16	NaN
213	1.000000	0.192287	7.36713e+06	-49289.1	955.818	-29759.6	0.000000	0.000000	6.192812	-0.048531	NaN	0.000000	0.001670	0.001776	28.0789	0.073678	0.002080	35.4249	-12.2824	18.4655	-0.043412	0.190889	-1.059386	-1.060784	-0.048531	35.4249	-1.058359	-1.382810E+14	3.509611E-16	NaN
213	1.000000	0.202296	7.36713e+06	-49289.1	955.819	-29759.7	0.000000	0.000000	6.202824	0.039447	NaN	0.000000	0.001706	0.001780	28.0787	0.164193	0.002060	79.6878	-176.319	-164.965	0.100785	0.200963	-1.049378	-1.050711	0.039447	79.6878	-1.049749	-1.059351E+14	-3.723719E-16	NaN
213	1.000000	0.212289	7.36713e+06	-49289.1	955.819	-29759.7	0.000000	0.000000	6.212816	0.009648	NaN	0.000000	0.001665	0.001777	28.079	0.077586	0.002006	38.6685	-41.7652	14.4287	0.052661	0.210924	-1.039385	-1.040750	0.009648	38.6685	-1.039572	-7.730622E+13	-1.247977E-16	NaN
213	1.000000	0.222289	7.36713e+06	-49289.1	955.819	-29759.7	0.000000	0.000000	6.222816	0.004682	NaN	0.000000	0.001648	0.001763	28.0788	0.107859	0.001888	57.139	12.2894	-164.131	0.030131	0.220942	-1.029384	-1.030732	0.004682	57.139	-1.029446	-5.649670E+13	-8.286666E-17	NaN
213	1.000000	0.232298	7.36713e+06	-49289.1	955.819	-29759.7	0.000000	0.000000	6.232822	-0.048976	NaN	0.000000	0.001593	0.001787	28.0794	0.112028	0.002002	55.9627	102.554	11.6964	-0.007857	0.230926	-1.019376	-1.020747	-0.048976	55.9627	-1.018720	-4.052520E+13	1.208539E-15	NaN
213	1.000000	0.242290	7.36713e+06	-49289.1	955.82	-29759.7	0.000000	0.000000	6.242818	0.018215	NaN	0.000000	0.001595	0.001772	28.0797	0.072966	0.002063	35.3674	-158.659	-163.583	0.039571	0.241016	-1.009383	-1.010658	0.018215	35.3674	-1.009769	-3.070999E+13	-5.931373E-16	NaN
213	1.000000	0.252311	7.36713e+06	-49289.1	955.817	-29759.7	0.000000	0.000000	6.252838	0.020807	NaN	0.000000	0.001597	0.001783	28.08	0.022518	0.001945	11.5786	79.2394	14.1555	-0.008079	0.250964	-0.999363	-1.000710	0.020807	11.5786	-1.000711	-2.319187E+13	-8.971586E-16	NaN
213	1.000000	0.262349	7.36713e+06	-49289.1	955.817	-29759.7	0.000000	0.000000	6.262875	-0.005719	NaN	0.000000	0.001605	0.001777	28.0803	0.062327	0.001962	31.773	-82.1439	-168.023	-0.082027	0.261042	-0.989325	-0.990632	-0.005719	31.773	-0.989190	-1.622566E+13	3.524436E-16	NaN
213	1.000000	0.272308	7.36713e+06	-49289.1	955.819	-29759.7	0.000000	0.000000	6.272835	0.009060	NaN	0.000000	0.001591	0.001758	28.0805	0.084877	0.002010	42.2374	-9.867770	16.3944	-0.020387	0.270964	-0.979366	-0.980709	0.009060	42.2374	-0.979527	-1.202356E+13	-7.535272E-16	NaN
213	1.000000	0.282325	7.36713e+06	-49289.1	955.818	-29759.7	0.000000	0.000000	6.282856	0.099937	NaN	0.000000	0.001646	0.001812	28.0804	0.039072	0.001982	19.7146	-98.7614	-164.725	0.117384	0.281021	-0.969349	-0.970652	0.099937	19.7146	-0.973151	-9.865575E+12	-1.012991E-14	NaN
213	1.000000	0.292330	7.36713e+06	-49289.1	955.818	-29759.7	0.000000	0.000000	6.292857	-0.000761	NaN	0.000000	0.001658	0.001807	28.0801	0.092037	0.002014	45.6885	159.104	18.4475	-0.043549	0.290960	-0.959343	-0.960713	-0.000761	45.6885	-0.959331	-6.424636E+12	1.184510E-16	NaN
213	1.000000	0.302333	7.36713e+06	-49289.1	955.818	-29759.7	0.000000	0.000000	6.302858	-0.039167	NaN	0.000000	0.001666	0.001807	28.0803	0.129674	0.001811	71.5933	-23.319	-164.994	-0.048910	0.301002	-0.949340	-0.950672	-0.039167	71.5933	-0.948930	-4.651552E+12	8.420133E-15	NaN
213	1.000000	0.312313	7.36713e+06	-49289.1	955.818	-29759.7	0.000000	0.000000	6.312840	0.012596	NaN	0.000000	0.001689	0.001766	28.08	0.050489	0.002062	24.4813	-120.085	15.1909	-0.043007	0.310952	-0.939360	-0.940721	0.012596	24.4813	-0.939746	-3.497135E+12	-3.601841E-15	NaN
213	1.000000	0.322307	7.36713e+06	-49289.1	955.82	-29759.7	0.000000	0.000000	6.322834	0.011455	NaN	0.000000	0.001704	0.001746	28.08	0.030517	0.002082	14.6591	167.298	-163.767	0.021651	0.321040	-0.929367	-0.930634	0.011455	14.6591	-0.929953	-2.579657E+12	-4.440457E-15	NaN
213	1.000000	0.332341	7.36713e+06	-49289.1	955.818	-29759.7	0.000000	0.000000	6.332867	-0.001421	NaN	0.000000	0.001668	0.001775	28.0799	0.101827	0.001980	51.4168	140.32	12.8522	-0.011314	0.330979	-0.919333	-0.920695	-0.001421	51.4168	-0.919312	-1.853181E+12	7.667973E-16	NaN
213	1.000000	0.342345	7.36713e+06	-49289.1	955.818	-29759.7	0.000000	0.000000	6.342870	-0.032466	NaN	0.000000	0.001718	0.001787	28.0804	0.053944	0.002006	26.8899	-80.3973	-169.111	-0.067706	0.341066	-0.909329	-0.910608	-0.032466	26.8899	-0.908423	-1.320895E+12	2.457872E-14	NaN
213	1.000000	0.352340	7.36713e+06	-49289.1	955.817	-29759.7	0.000000	0.000000	6.352867	0.000500	NaN	0.000000	0.001681	0.001814	28.08	0.141151	0.001957	72.1282	-169.879	13.0346	0.005604	0.350995	-0.899334	-0.900678	0.000500	72.1282	-0.899339	-9.957049E+11	-5.024493E-16	NaN
213	1.000000	0.362366	7.36713e+06	-49289.1	955.818	-29759.7	0.000000	0.000000	6.362892	-0.031491	NaN	0.000000	0.001679	0.001775	28.0802	0.043328	0.002012	21.5311	84.2119	-166.866	-0.049249	0.361071	-0.889307	-0.890603	-0.031491	21.5311	-0.888210	-7.042410E+11	4.471655E-14	NaN
213	1.000000	0.372368	7.36713e+06	-49289.1	955.819	-29759.7	0.000000	0.000000	6.372892	-0.041750	NaN	0.000000	0.001673	0.001788	28.0801	0.097075	0.002010	48.2974	16.1512	17.8889	-0.009792	0.370992	-0.879306	-0.880682	-0.041750	48.2974	-0.878658	-5.230652E+11	7.981838E-14	NaN
213	1.000000	0.382380	7.36713e+06	-49289.1	955.818	-29759.7	0.000000	0.000000	6.382905	-0.033918	NaN	0.000000	0.001650	0.001792	28.0792	0.084879	0.001964	43.2103	-66.96	-161.578	0.025233	0.381033	-0.869293	-0.870641	-0.033918	43.2103	-0.868705	-3.836347E+11	8.841212E-14	NaN
213	1.000000	0.392383	7.36713e+06	-49289.1	955.818	-29759.7	0.000000	0.000000	6.392911	0.033798	NaN	0.000000	0.001655	0.001758	28.0788	0.047463	0.002061	23.0237	6.739429	15.1904	0.030152	0.390986	-0.859291	-0.860688	0.033798	23.0237	-0.860392	-2.960906E+11	-1.141467E-13	NaN
213	1.000000	0.402359	7.36713e+06	-49289.1	955.818	-29759.7	0.000000	0.000000	6.402885	-0.012190	NaN	0.000000	0.001671	0.001731	28.0788	0.039079	0.001953	20.0079	-162.829	-166.583	0.008953	0.401070	-0.849315	-0.850603	-0.012190	20.0079	-0.848858	-2.066683E+11	5.898224E-14	NaN
213	1.000000	0.412385	7.36713e+06	-49289.1	955.818	-29759.7	0.000000	0.000000	6.412910	-0.050523	NaN	0.000000	0.001592	0.001746	28.079	0.050267	0.001924	26.1228	21.7082	16.3408	-0.014363	0.411052	-0.839288	-0.840622	-0.050523	26.1228	-0.837838	-1.465533E+11	3.447416E-13	NaN
213	1.000000	0.422347	7.36713e+06	-49289.1	955.818	-29759.7	0.000000	0.000000	6.422872	-0.024897	NaN	0.000000	0.001618	0.001724	28.0791	0.073432	0.001865	39.3832	6.253420	-163.08	-0.071518	0.421107	-0.829327	-0.830566	-0.024897	39.3832	-0.828853	-1.107218E+11	2.248636E-13	NaN
213	1.000000	0.432379	7.36713e+06	-49289.1	955.817	-29759.7	0.000000	0.000000	6.432908	0.049851	NaN	0.000000	0.001587	0.001743	28.0787	0.064422	0.001991	32.3589	-16.473	13.7776	-0.025638	0.431041	-0.819294	-0.820632	0.049851	32.3589	-0.820450	-8.517466E+10	-5.852844E-13	NaN
213	1.000000	0.442383	7.36713e+06	-49289.1	955.819	-29759.7	0.000000	0.000000	6.442912	0.042018	NaN	0.000000	0.001568	0.001755	28.0787	0.013084	0.001958	6.680770	130.451	-167.205	-0.012776	0.441075	-0.809290	-0.810598	0.042018	6.680770	-0.814007	-6.965231E+10	-6.032518E-13	NaN
213	1.000000	0.452374	7.36713e+06	-49289.1	955.818	-29759.7	0.000000	0.000000	6.452901	0.009271	NaN	0.000000	0.001566	0.001751	28.0785	0.047801	0.002124	22.5047	89.4137	16.2887	0.060462	0.451069	-0.799300	-0.800605	0.009271	22.5047	-0.799609	-4.441707E+10	-2.087194E-13	NaN
213	1.000000	0.462385	7.36713e+06	-49289.1	955.819	-29759.7	0.000000	0.000000	6.462912	0.009716	NaN	0.000000	0.001605	0.001710	28.0786	0.059954	0.002078	28.8567	-171.984	-164.597	0.032065	0.461105	-0.789289	-0.790568	0.009716	28.8567	-0.789541	-3.242322E+10	-2.996763E-13	NaN
213	1.000000	0.472410	7.36713e+06	-49289.1	955.819	-29759.7	0.000000	0.000000	6.472936	-0.010988	NaN	0.000000	0.001605	0.001742	28.0787	0.037245	0.002055	18.1211	-99.3792	16.2832	-0.043458	0.471034	-0.779264	-0.780640	-0.010988	18.1211	-0.778809	-2.317668E+10	4.740876E-13	NaN
213	1.000000	0.482389	7.36713e+06	-49289.1	955.818	-29759.7	0.000000	0.000000	6.482916	0.004737	NaN	0.000000	0.001562	0.001744	28.0786	0.055414	0.002005	27.6445	-171.051	-163.501	-0.025255	0.481113	-0.769285	-0.770561	0.004737	27.6445	-0.769413	-1.727145E+10	-2.742511E-13	NaN
213	1.000000	0.492405	7.36713e+06	-49289.1	955.818	-29759.7	0.000000	0.000000	6.492932	-0.010355	NaN	0.000000	0.001568	0.001748	28.079	0.052953	0.001989	26.6265	166.955	15.4486	-0.063590	0.491005	-0.759268	-0.760669	-0.010355	26.6265	-0.758977	-1.245602E+10	8.312863E-13	NaN
213	1.000000	0.502433	7.36713e+06	-49289.1	955.819	-29759.7	0.000000	0.000000	6.502960	-0.006878	NaN	0.000000	0.001603	0.001738	28.0786	0.056722	0.002007	28.2651	26.8002	-165.911	0.039725	0.501139	-0.749240	-0.750535	-0.006878	28.2651	-0.749058	-9.128371E+9	7.535127E-13	NaN
213	1.000000	0.512397	7.36713e+06	-49289.1	955.817	-29759.7	0.000000	0.000000	6.512924	0.019143	NaN	0.000000	0.001565	0.001733	28.0787	0.111011	0.001917	57.916	-91.9651	15.6946	0.027887	0.511012	-0.739277	-0.740662	0.019143	57.916	-0.739524	-6.769847E+9	-2.827660E-12	NaN
213	1.000000	0.522399	7.36713e+06	-49289.1	955.818	-29759.7	0.000000	0.000000	6.522930	0.099649	NaN	0.000000	0.001605	0.001768	28.0799	0.062633	0.001982	31.5939	171.328	-167.77	0.035505	0.521143	-0.729275	-0.730531	0.099649	31.5939	-0.731640	-5.286408E+9	-1.884996E-11	NaN
213	1.000000	0.532394	7.36713e+06	-49289.1	955.818	-29759.7	0.000000	0.000000	6.532920	-0.021825	NaN	0.000000	0.001600	0.001776	28.0803	0.185013	0.001951	94.8452	14.6642	12.1616	0.018667	0.531100	-0.719279	-0.720573	-0.021825	94.8452	-0.719107	-3.566883E+9	6.118863E-12	NaN
213	1.000000	0.542431	7.36713e+06	-49289.1	955.817	-29759.7	0.000000	0.000000	6.542956	-0.029669	NaN	0.000000	0.001579	0.001764	28.0799	0.053190	0.002009	26.4749	143.911	-165.799	-0.049588	0.541073	-0.709243	-0.710601	-0.029669	26.4749	-0.708402	-2.548242E+9	1.164296E-11	NaN
213	1.000000	0.552461	7.36713e+06	-49289.1	955.819	-29759.7	0.000000	0.000000	6.552986	-0.033535	NaN	0.000000	0.001596	0.001766	28.0801	0.060144	0.002177	27.6273	166.004	12.9614	0.003505	0.551031	-0.699213	-0.700642	-0.033535	27.6273	-0.698302	-1.855007E+9	1.807797E-11	NaN
213	1.000000	0.562442	7.36713e+06	-49289.1	955.818	-29759.7	0.000000	0.000000	6.562971	0.050684	NaN	0.000000	0.001601	0.001747	28.0799	0.062428	0.001938	32.2201	-50.9285	-160.182	0.015132	0.561112	-0.689231	-0.690562	0.050684	32.2201	-0.690411	-1.447222E+9	-3.502130E-11	NaN
213	1.000000	0.572429	7.36713e+06	-49289.1	955.819	-29759.7	0.000000	0.000000	6.572954	-0.024714	NaN	0.000000	0.001564	0.001787	28.0803	0.042190	0.001923	21.9381	-43.0422	18.0271	0.071003	0.571124	-0.679245	-0.680550	-0.024714	21.9381	-0.678400	-9.915729E+8	2.492415E-11	NaN
213	1.000000	0.582444	7.36713e+06	-49289.1	955.817	-29759.7	0.000000	0.000000	6.582972	0.030978	NaN	0.000000	0.001617	0.001760	28.08	0.043846	0.001971	22.2432	-106.469	-162.603	0.038377	0.581145	-0.669229	-0.670528	0.030978	22.2432	-0.670274	-7.676094E+8	-4.035664E-11	NaN
213	1.000000	0.592466	7.36713e+06	-49289.1	955.818	-29759.7	0.000000	0.000000	6.592992	-0.017568	NaN	0.000000	0.001571	0.001744	28.0803	0.046885	0.001884	24.8822	-129.5	13.516	-0.023641	0.591072	-0.659208	-0.660602	-0.017568	24.8822	-0.658678	-5.325530E+8	3.298894E-11	NaN
213	1.000000	0.602457	7.36713e+06	-49289.1	955.818	-29759.7	0.000000	0.000000	6.602983	-0.004227	NaN	0.000000	0.001592	0.001738	28.0802	0.162653	0.002035	79.9132	-151.321	-167.38	-0.014306	0.601144	-0.649217	-0.650530	-0.004227	79.9132	-0.649177	-3.945967E+8	1.071152E-11	NaN
213	1.000000	0.612496	7.36713e+06	-49289.1	955.818	-29759.7	0.000000	0.000000	6.613025	0.039465	NaN	0.000000	0.001597	0.001764	28.0802	0.058883	0.002072	28.4249	162.556	16.1601	-0.041699	0.611093	-0.639177	-0.640580	0.039465	28.4249	-0.640219	-2.973640E+8	-1.327154E-10	NaN
213	1.000000	0.622473	7.36713e+06	-49289.1	955.817	-29759.7	0.000000	0.000000	6.622999	-0.008922	NaN	0.000000	0.001575	0.001766	28.08	0.069993	0.002077	33.6966	28.7786	-164.21	0.026746	0.621136	-0.629200	-0.630537	-0.008922	33.6966	-0.629002	-2.086005E+8	4.277304E-11	NaN
213	1.000000	0.632479	7.36713e+06	-49289.1	955.818	-29759.7	0.000000	0.000000	6.633002	-0.080628	NaN	0.000000	0.001542	0.001798	28.0801	0.079829	0.001938	41.1991	-174.823	15.9135	-0.090795	0.631094	-0.619194	-0.620580	-0.080628	41.1991	-0.617727	-1.460097E+8	5.522093E-10	NaN
213	1.000000	0.642470	7.36713e+06	-49289.1	955.819	-29759.7	0.000000	0.000000	6.642996	-0.014805	NaN	0.000000	0.001581	0.001764	28.0802	0.059436	0.002011	29.5545	153.252	-164.519	-0.021651	0.641135	-0.609203	-0.610539	-0.014805	29.5545	-0.608828	-1.101497E+8	1.344040E-10	NaN
213	1.000000	0.652479	7.36713e+06	-49289.1	955.819	-29759.7	0.000000	0.000000	6.653006	0.010972	NaN	0.000000	0.001567	0.001783	28.0794	0.142227	0.002081	68.3533	24.6269	15.053	-0.000715	0.651106	-0.599195	-0.600567	0.010972	68.3533	-0.599315	-8.147655E+7	-1.346612E-10	NaN
213	1.000000	0.662469	7.36713e+06	-49289.1	955.817	-29759.7	0.000000	0.000000	6.662994	-0.057021	NaN	0.000000	0.001582	0.001750	28.0789	0.086168	0.001994	43.2216	-172.364	-165.576	-0.078769	0.661160	-0.589204	-0.590514	-0.057021	43.2216	-0.588215	-5.728643E+7	9.953725E-10	NaN
213	1.000000	0.672475	7.36713e+06	-49289.1	955.818	-29759.7	0.000000	0.000000	6.673003	0.017996	NaN	0.000000	0.001606	0.001795	28.079	0.039700	0.002191	18.1182	107.621	15.2961	0.049609	0.671097	-0.579198	-0.580576	0.017996	18.1182	-0.579943	-4.404962E+7	-4.085468E-10	NaN
213	1.000000	0.682489	7.36713e+06	-49289.1	955.819	-29759.7	0.000000	0.000000	6.683016	0.020799	NaN	0.000000	0.001609	0.001769	28.079	0.025042	0.001941	12.8984	-166.236	-166.359	0.060927	0.681160	-0.569185	-0.570514	0.020799	12.8984	-0.570394	-3.251456E+7	-6.396950E-10	NaN
213	1.000000	0.692492	7.36713e+06	-49289.1	955.818	-29759.7	0.000000	0.000000	6.693017	-0.032713	NaN	0.000000	0.001591	0.001796	28.0788	0.015835	0.002059	7.689506	-167.351	18.56	-0.048060	0.691136	-0.559182	-0.560537	-0.032713	7.689506	-0.555991	-2.055459E+7	1.591514E-9	NaN
213	1.000000	0.702508	7.36713e+06	-49289.1	955.82	-29759.7	0.000000	0.000000	6.703035	-0.003290	NaN	0.000000	0.001582	0.001734	28.0787	0.105796	0.001989	53.1921	145.463	-163.692	-0.039581	0.701177	-0.549166	-0.550497	-0.003290	53.1921	-0.549119	-1.651029E+7	1.992866E-10	NaN
213	1.000000	0.712515	7.36713e+06	-49289.1	955.817	-29759.7	0.000000	0.000000	6.713040	-0.039900	NaN	0.000000	0.001599	0.001773	28.0787	0.130556	0.002093	62.3639	-40.5864	15.4648	-0.034516	0.711141	-0.539159	-0.540532	-0.039900	62.3639	-0.538679	-1.183138E+7	3.372381E-9	NaN
213	1.000000	0.722487	7.36713e+06	-49289.1	955.817	-29759.7	0.000000	0.000000	6.723015	0.033151	NaN	0.000000	0.001616	0.001741	28.079	0.100316	0.002004	50.0624	-139.523	-166.109	-0.043371	0.721240	-0.529186	-0.530434	0.033151	50.0624	-0.529683	-8.8751e+06	-3.735318E-9	NaN
213	1.000000	0.732522	7.36713e+06	-49289.1	955.819	-29759.7	0.000000	0.000000	6.733049	0.016702	NaN	0.000000	0.001635	0.001758	28.0788	0.018090	0.002029	8.915571	-137.431	12.3478	-0.014095	0.731121	-0.519152	-0.520553	0.016702	8.915571	-0.520557	-6.62742e+06	-2.520070E-9	NaN
213	1.000000	0.742503	7.36713e+06	-49289.1	955.818	-29759.7	0.000000	0.000000	6.743031	0.025025	NaN	0.000000	0.001571	0.001756	28.0788	0.010853	0.001942	5.588506	85.1433	-165.271	0.063822	0.741201	-0.509170	-0.510472	0.025025	5.588506	-0.512529	-5.12425e+06	-4.883624E-9	NaN
213	1.000000	0.752516	7.36713e+06	-49289.1	955.818	-29759.7	0.000000	0.000000	6.753041	-0.042518	NaN	0.000000	0.001588	0.001787	28.0789	0.067803	0.001917	35.3708	105.038	13.2314	-0.055219	0.751185	-0.499158	-0.500489	-0.042518	35.3708	-0.498256	-3.24104e+06	1.311848E-8	NaN
213	1.000000	0.762517	7.36713e+06	-49289.1	955.818	-29759.7	0.000000	0.000000	6.763042	-0.059311	NaN	0.000000	0.001591	0.001710	28.0789	0.046818	0.002046	22.8866	89.4742	-165.221	-0.032799	0.761201	-0.489156	-0.490473	-0.059311	22.8866	-0.487213	-2.27212e+06	2.610389E-8	NaN
213	1.000000	0.772520	7.36713e+06	-49289.1	955.817	-29759.7	0.000000	0.000000	6.773042	-0.090513	NaN	0.000000	0.001600	0.001744	28.0788	0.065172	0.002056	31.6953	-70.5102	16.7117	-0.025442	0.771180	-0.479154	-0.480494	-0.090513	31.6953	-0.477012	-1.63565e+06	5.533732E-8	NaN
213	1.000000	0.782525	7.36713e+06	-49289.1	955.819	-29759.7	0.000000	0.000000	6.783051	-0.008634	NaN	0.000000	0.001584	0.001755	28.0787	0.084559	0.001962	43.1077	-48.4489	-163.914	-0.012634	0.781248	-0.469149	-0.470426	-0.008634	43.1077	-0.468998	-1.26287e+06	6.836711E-9	NaN
213	1.000000	0.792543	7.36713e+06	-49289.1	955.818	-29759.7	0.000000	0.000000	6.793070	0.029105	NaN	0.000000	0.001610	0.001759	28.0801	0.060394	0.001945	31.0507	126.473	14.5271	0.050213	0.791202	-0.459131	-0.460472	0.029105	31.0507	-0.459834	-939043	-3.099409E-8	NaN
213	1.000000	0.802554	7.36713e+06	-49289.1	955.818	-29759.7	0.000000	0.000000	6.803078	-0.062041	NaN	0.000000	0.001597	0.001759	28.08	0.090250	0.001921	46.974	19.1539	-166.525	-0.008133	0.801194	-0.449119	-0.450480	-0.062041	46.974	-0.448129	-642663	9.653719E-8	NaN
213	1.000000	0.812546	7.36713e+06	-49289.1	955.818	-29759.7	0.000000	0.000000	6.813072	0.005141	NaN	0.000000	0.001570	0.001788	28.08	0.060251	0.001939	31.0762	41.4404	16.7723	0.012774	0.811183	-0.439128	-0.440491	0.005141	31.0762	-0.439252	-481733	-1.067190E-8	NaN
213	1.000000	0.822541	7.36713e+06	-49289.1	955.818	-29759.7	0.000000	0.000000	6.823068	0.009076	NaN	0.000000	0.001616	0.001734	28.0802	0.077568	0.001974	39.3002	-160.932	-164.939	0.030087	0.821234	-0.429133	-0.430439	0.009076	39.3002	-0.429306	-348529	-2.604051E-8	NaN
213	1.000000	0.832568	7.36713e+06	-49289.1	955.818	-29759.7	0.000000	0.000000	6.833094	-0.015140	NaN	0.000000	0.001613	0.001735	28.0801	0.126662	0.002014	62.8786	142.881	13.3898	-0.011685	0.831200	-0.419106	-0.420474	-0.015140	62.8786	-0.418925	-248408	6.094779E-8	NaN
213	1.000000	0.842564	7.36713e+06	-49289.1	955.818	-29759.7	0.000000	0.000000	6.843089	-0.034477	NaN	0.000000	0.001583	0.001734	28.0803	0.006247	0.001919	3.255429	106.209	-165.667	-0.051852	0.841211	-0.409110	-0.410463	-0.034477	3.255429	-0.401167	-138876	2.482608E-7	NaN
213	1.000000	0.852544	7.36713e+06	-49289.1	955.818	-29759.7	0.000000	0.000000	6.853071	0.005480	NaN	0.000000	0.001545	0.001732	28.0799	0.104225	0.002113	49.3234	-98.1392	17.0182	0.037131	0.851190	-0.399129	-0.400483	0.005480	49.3234	-0.399213	-130246	-4.207385E-8	NaN
213	1.000000	0.862530	7.36713e+06	-49289.1	955.818	-29759.7	0.000000	0.000000	6.863056	-0.009263	NaN	0.000000	0.001547	0.001762	28.0802	0.138909	0.002067	67.1972	55.2806	-164.889	-0.040748	0.861268	-0.389143	-0.390406	-0.009263	67.1972	-0.389040	-93203.4	9.938438E-8	NaN
213	1.000000	0.872552	7.36713e+06	-49289.1	955.819	-29759.7	0.000000	0.000000	6.873077	-0.034039	NaN	0.000000	0.001528	0.001758	28.0801	0.018742	0.001993	9.402781	-174.786	14.5738	-0.042858	0.871208	-0.379122	-0.380465	-0.034039	9.402781	-0.376407	-61416.6	5.542254E-7	NaN
213	1.000000	0.882576	7.36713e+06	-49289.1	955.817	-29759.7	0.000000	0.000000	6.883099	-0.073333	NaN	0.000000	0.001566	0.001767	28.0803	0.051391	0.002114	24.3098	129.224	-166.522	0.013700	0.881289	-0.369098	-0.370385	-0.073333	24.3098	-0.366835	-44722.4	1.639743E-6	NaN
213	1.000000	0.892572	7.36713e+06	-49289.1	955.817	-29759.7	0.000000	0.000000	6.893098	-0.034306	NaN	0.000000	0.001525	0.001735	28.0795	0.072982	0.002070	35.2618	167.323	18.0338	-0.048125	0.891200	-0.359101	-0.360473	-0.034306	35.2618	-0.358371	-33751.7	1.016424E-6	NaN
213	1.000000	0.902591	7.36713e+06	-49289.1	955.818	-29759.7	0.000000	0.000000	6.903113	-0.093326	NaN	0.000000	0.001527	0.001753	28.0802	0.105541	0.002062	51.1929	130.87	-164.317	-0.102027	0.901243	-0.349083	-0.350430	-0.093326	51.1929	-0.347716	-23650.2	3.946112E-6	NaN
213	1.000000	0.912601	7.36713e+06	-49289.1	955.818	-29759.7	0.000000	0.000000	6.913128	0.005251	NaN	0.000000	0.001533	0.001717	28.0798	0.084143	0.002007	41.9348	147.833	11.1576	0.067484	0.911200	-0.339073	-0.340473	0.005251	41.9348	-0.339167	-17758.5	-2.956730E-7	NaN
213	1.000000	0.922584	7.36713e+06	-49289.1	955.818	-29759.7	0.000000	0.000000	6.923109	-0.042573	NaN	0.000000	0.001548	0.001734	28.0799	0.044534	0.001951	22.8297	144.392	-162.506	0.029110	0.921309	-0.329090	-0.330364	-0.042573	22.8297	-0.327691	-12067.6	3.527844E-6	NaN
213	1.000000	0.932585	7.36713e+06	-49289.1	955.818	-29759.7	0.000000	0.000000	6.933112	0.012401	NaN	0.000000	0.001534	0.001707	28.0786	0.114607	0.002107	54.3849	-117.704	16.0539	0.041656	0.931232	-0.319088	-0.320442	0.012401	54.3849	-0.319259	-9072.69	-1.366809E-6	NaN
213	1.000000	0.942595	7.36713e+06	-49289.1	955.818	-29759.7	0.000000	0.000000	6.943121	-0.031486	NaN	0.000000	0.001520	0.001727	28.0788	0.076662	0.002095	36.5964	108.549	-165.001	0.001985	0.941281	-0.309078	-0.310393	-0.031486	36.5964	-0.308433	-6278.47	5.014840E-6	NaN
213	1.000000	0.952589	7.36713e+06	-49289.1	955.818	-29759.7	0.000000	0.000000	6.953116	0.016116	NaN	0.000000	0.001552	0.001691	28.0787	0.038486	0.002089	18.421	114.552	15.5305	0.013054	0.951282	-0.299085	-0.300392	0.016116	18.421	-0.299741	-4664.24	-3.455196E-6	NaN
213	1.000000	0.962593	7.36713e+06	-49289.1	955.817	-29759.7	0.000000	0.000000	6.963120	0.002089	NaN	0.000000	0.001566	0.001708	28.0786	0.042712	0.001991	21.4532	156.659	-166.739	-0.018014	0.961319	-0.289081	-0.290354	0.002089	21.4532	-0.289154	-3240.56	-6.445892E-7	NaN
213	1.000000	0.972606	7.36713e+06	-49289.1	955.818	-29759.7	0.000000	0.000000	6.973133	-0.009955	NaN	0.000000	0.001547	0.001675	28.0787	0.119497	0.001933	61.812	112.797	17.032	0.041119	0.971228	-0.279067	-0.280446	-0.009955	61.812	-0.278946	-2275.46	4.375086E-6	NaN
213	1.000000	0.982615	7.36713e+06	-49289.1	955.819	-29759.7	0.000000	0.000000	6.983141	-0.005657	NaN	0.000000	0.001540	0.001722	28.0786	0.141907	0.001953	72.6583	106.685	-165.562	0.036671	0.981283	-0.269059	-0.270390	-0.005657	72.6583	-0.269000	-1608.22	3.517335E-6	NaN
213	1.000000	0.992605	7.36713e+06	-49289.1	955.818	-29759.7	0.000000	0.000000	6.993133	0.042527	NaN	0.000000	0.001580	0.001726	28.0788	0.072679	0.002026	35.8707	-105.29	12.4734	0.058191	0.991214	-0.259068	-0.260459	0.042527	35.8707	-0.259958	-1170.22	-3.634094E-5	NaN
213	1.000000	1.002611	7.36713e+06	-49289.1	955.818	-29759.7	0.000000	0.000000	7.003137	-0.021923	NaN	0.000000	0.001562	0.001711	28.0787	0.043279	0.001868	23.1679	162.463	-164.234	0.026002	1.001337	-0.249063	-0.250337	-0.021923	23.1679	-0.248353	-775.308	2.827596E-5	NaN
213	1.000000	1.012602	7.36713e+06	-49289.1	955.817	-29759.7	0.000000	0.000000	7.013129	-0.006246	NaN	0.000000	0.001553	0.001688	28.0789	0.122889	0.001906	64.4901	-103.825	12.472	-0.001676	1.011213	-0.239071	-0.240461	-0.006246	64.4901	-0.238999	-554.503	1.126407E-5	NaN
213	1.000000	1.022623	7.36713e+06	-49289.1	955.817	-29759.7	0.000000	0.000000	7.023149	-0.002905	NaN	0.000000	0.001534	0.001728	28.0787	0.108537	0.002086	52.042	-44.1114	-166.531	0.018706	1.021318	-0.229051	-0.230356	-0.002905	52.042	-0.229009	-386.243	7.521814E-6	NaN
213	1.000000	1.032617	7.36713e+06	-49289.1	955.817	-29759.7	0.000000	0.000000	7.033143	-0.015012	NaN	0.000000	0.001549	0.001744	28.0787	0.103685	0.001978	52.4257	147.998	13.3154	-0.059808	1.031288	-0.219056	-0.220386	-0.015012	52.4257	-0.218842	-266.165	5.640157E-5	NaN
213	1.000000	1.042619	7.36713e+06	-49289.1	955.818	-29759.7	0.000000	0.000000	7.043145	-0.013106	NaN	0.000000	0.001553	0.001745	28.0786	0.083701	0.002052	40.7802	-11.8176	-165.97	-0.038482	1.041341	-0.209054	-0.210332	-0.013106	40.7802	-0.208813	-183.479	7.143116E-5	NaN
213	1.000000	1.052654	7.36713e+06	-49289.1	955.818	-29759.7	0.000000	0.000000	7.053182	0.026759	NaN	0.000000	0.001555	0.001745	28.079	0.142899	0.001960	72.9145	-95.6841	12.7601	0.011417	1.051251	-0.199019	-0.200422	0.026759	72.9145	-0.199295	-128.263	-0.000209	NaN
213	1.000000	1.062657	7.36713e+06	-49289.1	955.818	-29759.7	0.000000	0.000000	7.063185	0.046199	NaN	0.000000	0.001555	0.001750	28.0795	0.054439	0.001914	28.4355	-97.383	-163.879	0.018102	1.061306	-0.189017	-0.190367	0.046199	28.4355	-0.190235	-90.7734	-0.000509	NaN
213	1.000000	1.072621	7.36713e+06	-49289.1	955.818	-29759.7	0.000000	0.000000	7.073146	-0.042738	NaN	0.000000	0.001582	0.001724	28.0799	0.125121	0.002032	61.5635	-85.1552	11.5079	-0.053183	1.071279	-0.179053	-0.180395	-0.042738	61.5635	-0.178532	-57.6047	0.000742	NaN
213	1.000000	1.082678	7.36713e+06	-49289.1	955.817	-29759.7	0.000000	0.000000	7.083204	-0.014438	NaN	0.000000	0.001541	0.001756	28.0795	0.015732	0.001980	7.944575	169.375	-163.598	0.016317	1.081305	-0.168995	-0.170368	-0.014438	7.944575	-0.167632	-37.3588	0.000386	NaN
213	1.000000	1.092639	7.36713e+06	-49289.1	955.817	-29759.7	0.000000	0.000000	7.093166	0.000164	NaN	0.000000	0.001550	0.001769	28.08	0.063300	0.001982	31.9326	-178.854	16.9376	0.002050	1.091283	-0.159035	-0.160390	0.000164	31.9326	-0.159038	-26.3559	-6.234650E-6	NaN
213	1.000000	1.102660	7.36713e+06	-49289.1	955.818	-29759.7	0.000000	0.000000	7.103189	0.045358	NaN	0.000000	0.001539	0.001728	28.0794	0.059937	0.002048	29.2624	138.402	-164.176	0.025569	1.101389	-0.149013	-0.150285	0.045358	29.2624	-0.150176	-18.2478	-0.002486	NaN
213	1.000000	1.112679	7.36713e+06	-49289.1	955.819	-29759.7	0.000000	0.000000	7.113207	0.039594	NaN	0.000000	0.001576	0.001729	28.0799	0.055510	0.002148	25.8425	132.593	15.6691	-0.009661	1.111296	-0.138995	-0.140378	0.039594	25.8425	-0.140144	-11.9032	-0.003326	NaN
213	1.000000	1.122666	7.36713e+06	-49289.1	955.818	-29759.7	0.000000	0.000000	7.123191	-0.034956	NaN	0.000000	0.001583	0.001762	28.0797	0.063533	0.002005	31.6944	-136.281	-167.004	-0.051918	1.121354	-0.129007	-0.130320	-0.034956	31.6944	-0.128180	-7.023372	0.004977	NaN
213	1.000000	1.132671	7.36713e+06	-49289.1	955.817	-29759.7	0.000000	0.000000	7.133196	-0.033527	NaN	0.000000	0.001566	0.001737	28.0805	0.064845	0.001948	33.2904	-130.603	15.4772	-0.088144	1.131315	-0.119003	-0.120359	-0.033527	33.2904	-0.118248	-4.452331	0.007530	NaN
213	1.000000	1.142667	7.36713e+06	-49289.1	955.818	-29759.7	0.000000	0.000000	7.143193	-0.024926	NaN	0.000000	0.001609	0.001731	28.0795	0.073966	0.002042	36.2302	-120.873	-165.486	-0.046423	1.141376	-0.109006	-0.110297	-0.024926	36.2302	-0.108490	-2.792090	0.008927	NaN
213	1.000000	1.152693	7.36713e+06	-49289.1	955.817	-29759.7	0.000000	0.000000	7.153223	0.086118	NaN	0.000000	0.001596	0.001795	28.0801	0.074350	0.002082	35.7083	-48.3371	14.1228	-0.007554	1.151318	-0.098980	-0.100355	0.086118	35.7083	-0.100789	-1.902072	-0.045276	NaN
213	1.000000	1.162700	7.36713e+06	-49289.1	955.817	-29759.7	0.000000	0.000000	7.163226	0.006810	NaN	0.000000	0.001643	0.001754	28.0798	0.044188	0.001923	22.9761	-62.1753	-164.381	0.002213	1.161356	-0.088974	-0.090318	0.006810	22.9761	-0.089196	-1.034939	-0.006580	NaN
213	1.000000	1.172687	7.36713e+06	-49289.1	955.818	-29759.7	0.000000	0.000000	7.173213	-0.021704	NaN	0.000000	0.001682	0.001774	28.0803	0.165716	0.001900	87.2034	156.912	17.6875	-0.027446	1.171382	-0.078986	-0.080292	-0.021704	87.2034	-0.078800	-0.577494	0.037584	NaN
213	1.000000	1.182683	7.36713e+06	-49289.1	955.818	-29759.7	0.000000	0.000000	7.183209	-0.003987	NaN	0.000000	0.001632	0.001768	28.0796	0.094767	0.001942	48.811	61.0411	-166.446	-0.040257	1.181373	-0.068991	-0.070300	-0.003987	48.811	-0.068930	-0.319235	0.012490	NaN
213	1.000000	1.192692	7.36713e+06	-49289.1	955.817	-29759.7	0.000000	0.000000	7.193220	0.030349	NaN	0.000000	0.001646	0.001735	28.0798	0.105573	0.001948	54.2077	-24.5167	10.4569	0.050597	1.191304	-0.058981	-0.060370	0.030349	54.2077	-0.059401	-0.173097	-0.175329	NaN
213	1.000000	1.202714	7.36713e+06	-49289.1	955.817	-29759.7	0.000000	0.000000	7.203239	-0.027577	NaN	0.000000	0.001628	0.001780	28.0783	0.141445	0.002047	69.1125	134.299	-169.204	0.009885	1.201429	-0.048960	-0.050244	-0.027577	69.1125	-0.048661	-0.083108	0.331815	NaN
213	1.000000	1.212701	7.36713e+06	-49289.1	955.818	-29759.7	0.000000	0.000000	7.213231	0.072098	NaN	0.000000	0.001648	0.001790	28.0785	0.082489	0.001921	42.951	-126.67	15.771	-0.033082	1.211315	-0.038973	-0.040359	0.072098	42.951	-0.040232	-0.045961	-1.568684	NaN
213	1.000000	1.222697	7.36713e+06	-49289.1	955.818	-29759.7	0.000000	0.000000	7.223223	-0.028930	NaN	0.000000	0.001629	0.001747	28.0782	0.032178	0.002049	15.7078	-31.7839	-162.913	0.025566	1.221491	-0.028976	-0.030183	-0.028930	15.7078	-0.027595	-0.019770	1.463344	NaN
213	1.000000	1.232714	7.36713e+06	-49289.1	955.819	-29759.7	0.000000	0.000000	7.233239	-0.059002	NaN	0.000000	0.001655	0.001708	28.0783	0.045816	0.002149	21.3177	64.7993	14.197	-0.046880	1.231382	-0.018959	-0.020292	-0.059002	21.3177	-0.016883	-0.010436	5.653654	NaN
213	1.000000	1.242715	7.36713e+06	-49289.1	955.819	-29759.7	0.000000	0.000000	7.243240	-0.039242	NaN	0.000000	0.001638	0.001769	28.0785	0.124354	0.001793	69.3441	-40.3979	-163.923	-0.016584	1.241368	-0.008958	-0.010305	-0.039242	69.3441	-0.008534	-0.005543	7.079626	NaN
213	1.000000	1.252698	7.36713e+06	-49289.1	955.819	-29759.7	0.000000	0.000000	7.253231	0.170545	NaN	0.000000	0.001649	0.001740	28.0785	0.326998	0.001947	167.917	29.281	9.715998	-0.041010	1.251336	0.001024	-0.000338	0.170545	167.917	0.000262	0.000197	865.64	10930
213	2.000000	1.262114	7.36713e+06	-49289.1	955.817	-29759.7	0.000000	0.000000	7.263055	10.0854	NaN	0.000000	0.001695	0.001752	28.0786	9.189152	0.001667	5511.33	11.6771	-176.948	9.248710	1.261354	0.010440	0.009681	10.0854	5511.33	0.009068	0.008164	1235.39	55729.4
213	2.000000	1.264765	7.36713e+06	-49289.1	955.818	-29759.7	0.000000	0.000000	7.265748	11.0974	NaN	0.000000	0.001707	0.001739	28.0786	11.78	0.001675	7032.5	8.384985	4.043122	10.4025	1.264417	0.013091	0.012744	11.0974	7032.5	0.011908	0.011380	975.181	60230.4
213	2.000000	1.267221	7.36713e+06	-49289.1	955.818	-29759.7	0.000000	0.000000	7.268500	18.3107	NaN	0.000000	0.001677	0.001751	28.0789	15.1264	0.001860	8131.52	3.762905	-172.497	16.8826	1.266936	0.015547	0.015263	18.3107	8131.52	0.013858	0.013793	1327.57	63258.9
213	2.000000	1.269734	7.36713e+06	-49289.1	955.818	-29759.7	0.000000	0.000000	7.271155	21.757	NaN	0.000000	0.001693	0.001732	28.0786	17.0875	0.001648	10367.3	3.531275	6.121690	20.3945	1.269372	0.018061	0.017699	21.757	10367.3	0.016487	0.017319	1256.25	71974.4
213	2.000000	1.272183	7.36713e+06	-49289.1	955.817	-29759.7	0.000000	0.000000	7.273961	30.4143	NaN	0.000000	0.001615	0.001736	28.0786	20.3203	0.001785	11385.5	6.587465	-178.151	29.508	1.271889	0.020510	0.020215	30.4143	11385.5	0.018506	0.020249	1502	73100.6
213	2.000000	1.274665	7.36713e+06	-49289.1	955.817	-29759.7	0.000000	0.000000	7.276530	32.5482	NaN	0.000000	0.001637	0.001774	28.0784	22.8262	0.001772	12885	7.362983	0.147565	31.7898	1.274307	0.022991	0.022633	32.5482	12885	0.021097	0.024295	1339.69	75525.7
213	2.000000	1.277117	7.36713e+06	-49289.1	955.817	-29759.7	0.000000	0.000000	7.279312	40.562	NaN	0.000000	0.001628	0.001777	28.0786	25.6455	0.001843	13915.2	4.983863	-177.67	38.6229	1.276871	0.025444	0.025198	40.562	13915.2	0.023257	0.027922	1452.7	76083.7
213	2.000000	1.279697	7.36713e+06	-49289.1	955.819	-29759.7	0.000000	0.000000	7.282240	49.032	NaN	0.000000	0.001638	0.001778	28.0785	27.9489	0.001823	15327.1	8.544991	-1.554130	49.1935	1.279275	0.028023	0.027602	49.032	15327.1	0.025624	0.032161	1524.58	78085.2
213	2.000000	1.282124	7.36713e+06	-49289.1	955.818	-29759.7	0.000000	0.000000	7.285103	59.6336	NaN	0.000000	0.001635	0.001765	28.0794	30.0084	0.001730	17344.7	3.613577	-179.533	57.0605	1.281814	0.030451	0.030140	59.6336	17344.7	0.027872	0.036449	1636.1	83004.3
213	2.000000	1.284645	7.36713e+06	-49289.1	955.817	-29759.7	0.000000	0.000000	7.287876	65.7734	NaN	0.000000	0.001632	0.001773	28.0797	33.3498	0.001813	18394.2	5.051861	-0.587390	64.0313	1.284298	0.032972	0.032625	65.7734	18394.2	0.030290	0.041346	1590.79	82648.4
213	2.000000	1.287139	7.36713e+06	-49289.1	955.818	-29759.7	0.000000	0.000000	7.290735	74.643	NaN	0.000000	0.001625	0.001742	28.0797	36.0559	0.001862	19367.1	7.925704	176.755	72.5074	1.286784	0.035466	0.035111	74.643	19367.1	0.032575	0.046250	1613.9	82277.5
213	2.000000	1.289691	7.36713e+06	-49289.1	955.817	-29759.7	0.000000	0.000000	7.293653	83.5382	NaN	0.000000	0.001636	0.001741	28.0796	37.9478	0.001828	20759.4	4.785123	-1.527843	82.84	1.289320	0.038018	0.037647	83.5382	20759.4	0.035000	0.051745	1614.42	83378.5
213	2.000000	1.292102	7.36713e+06	-49289.1	955.817	-29759.7	0.000000	0.000000	7.296558	95.5573	NaN	0.000000	0.001617	0.001745	28.0796	40.4111	0.001794	22526.3	6.736383	175.394	93.5503	1.291834	0.040429	0.040160	95.5573	22526.3	0.037247	0.057108	1673.27	86121.9
213	2.000000	1.294702	7.36713e+06	-49289.1	955.817	-29759.7	0.000000	0.000000	7.299436	102.303	NaN	0.000000	0.001610	0.001756	28.0797	43.2449	0.001764	24520.6	5.542113	-3.652687	103.947	1.294241	0.043029	0.042567	102.303	24520.6	0.039900	0.063769	1604.27	88715.4
213	2.000000	1.297104	7.36713e+06	-49289.1	955.818	-29759.7	0.000000	0.000000	7.302256	112.483	NaN	0.000000	0.001648	0.001747	28.0796	45.8164	0.001792	25561.8	4.742523	176.976	110.197	1.296782	0.045431	0.045109	112.483	25561.8	0.042130	0.069650	1614.98	88492
213	2.000000	1.299723	7.36713e+06	-49289.1	955.818	-29759.7	0.000000	0.000000	7.305268	122.03	NaN	0.000000	0.001598	0.001750	28.0796	47.671	0.001807	26377.9	2.847441	-1.060976	123.26	1.299260	0.048050	0.047586	122.03	26377.9	0.044580	0.076400	1597.25	87190.2
213	2.000000	1.302167	7.36713e+06	-49289.1	955.819	-29759.7	0.000000	0.000000	7.308208	134.096	NaN	0.000000	0.001615	0.001772	28.0797	49.4715	0.001809	27353.3	3.586050	177.759	135.539	1.301867	0.050494	0.050194	134.096	27353.3	0.046817	0.082829	1618.96	86834.3
213	2.000000	1.304573	7.36714e+06	-49289.1	955.818	-29759.7	0.000000	0.000000	7.311234	149.189	NaN	0.000000	0.001596	0.001751	28.0799	53.1977	0.001820	29224.5	7.329765	-7.363631	144.727	1.304139	0.052899	0.052466	149.189	29224.5	0.049071	0.089562	1665.76	89219.2
213	2.000000	1.307153	7.36714e+06	-49289.1	955.817	-29759.7	0.000000	0.000000	7.314318	161.47	NaN	0.000000	0.001609	0.001749	28.0799	54.9451	0.001698	32358.2	5.956021	174.95	161.132	1.306802	0.055479	0.055128	161.47	32358.2	0.051736	0.097856	1650.09	94507.1
213	2.000000	1.309613	7.36714e+06	-49289.1	955.818	-29759.7	0.000000	0.000000	7.317284	173.77	NaN	0.000000	0.001586	0.001730	28.0797	57.3403	0.001860	30831.1	7.690978	-7.747052	170.198	1.309294	0.057939	0.057620	173.77	30831.1	0.053712	0.104231	1667.17	87249.6
213	2.000000	1.312092	7.36714e+06	-49289.1	955.819	-29759.7	0.000000	0.000000	7.320538	192.587	NaN	0.000000	0.001594	0.001708	28.0798	59.1976	0.001765	33544.9	5.180902	173.61	191.457	1.311812	0.060419	0.060139	192.587	33544.9	0.056113	0.112240	1715.85	91479.8
213	2.000000	1.314674	7.36714e+06	-49289.1	955.818	-29759.7	0.000000	0.000000	7.323722	207.244	NaN	0.000000	0.001626	0.001729	28.0784	62.6622	0.001762	35570.6	8.309328	-9.203318	210.029	1.314101	0.063000	0.062427	207.244	35570.6	0.058631	0.120944	1713.55	93448.5
213	2.000000	1.317042	7.36714e+06	-49289.1	955.818	-29759.7	0.000000	0.000000	7.326557	218.584	NaN	0.000000	0.001619	0.001724	28.0785	64.5724	0.001748	36948.5	-0.451794	178.498	214.785	1.316891	0.065369	0.065217	218.584	36948.5	0.060932	0.129171	1692.21	93926.5
213	2.000000	1.319617	7.36714e+06	-49289.1	955.819	-29759.7	0.000000	0.000000	7.329949	238.481	NaN	0.000000	0.001622	0.001758	28.0783	68.4038	0.001915	35727.7	6.802217	-7.452057	235.942	1.319259	0.067943	0.067586	238.481	35727.7	0.062937	0.136551	1746.47	88334.8
213	2.000000	1.322055	7.36714e+06	-49289.1	955.818	-29759.7	0.000000	0.000000	7.332826	249.142	NaN	0.000000	0.001606	0.001721	28.0787	70.2949	0.001777	39551.1	5.915899	171.286	246.367	1.321713	0.070381	0.070039	249.142	39551.1	0.065657	0.146871	1696.33	94289.6
213	2.000000	1.324589	7.36714e+06	-49289.1	955.817	-29759.7	0.000000	0.000000	7.336168	268.793	NaN	0.000000	0.001596	0.001755	28.0787	73.307	0.001818	40315.8	7.010201	-9.654973	266.06	1.324205	0.072916	0.072531	268.793	40315.8	0.067915	0.155711	1726.23	93344.7
213	2.000000	1.327063	7.36714e+06	-49289.1	955.818	-29759.7	0.000000	0.000000	7.339252	283.632	NaN	0.000000	0.001626	0.001712	28.0786	75.5448	0.001757	42993.1	3.336477	173.962	280.794	1.326767	0.075390	0.075093	283.632	42993.1	0.070442	0.165890	1709.76	96441
213	2.000000	1.329613	7.36714e+06	-49289.1	955.818	-29759.7	0.000000	0.000000	7.342799	307.872	NaN	0.000000	0.001611	0.001715	28.0783	77.1802	0.001729	44641.8	2.774553	-5.388356	304.761	1.329227	0.077940	0.077553	307.872	44641.8	0.072767	0.175528	1753.98	97351.5
213	2.000000	1.332112	7.36714e+06	-49289.1	955.818	-29759.7	0.000000	0.000000	7.345858	321.511	NaN	0.000000	0.001620	0.001746	28.0786	81.5292	0.001808	45094.5	7.292653	169.631	322.889	1.331811	0.080438	0.080137	321.511	45094.5	0.075091	0.185412	1734.04	95681.6
213	2.000000	1.334550	7.36714e+06	-49289.1	955.818	-29759.7	0.000000	0.000000	7.349126	341.701	NaN	0.000000	0.001605	0.001761	28.0787	83.6523	0.001766	47355.6	6.762308	-10.2162	338.553	1.334150	0.082876	0.082476	341.701	47355.6	0.077464	0.195770	1745.42	97784.9
213	2.000000	1.337121	7.36714e+06	-49289.1	955.817	-29759.7	0.000000	0.000000	7.351680	341.252	NaN	0.000000	0.001650	0.001763	28.0788	86.013	0.001755	49012.3	2.974632	172.753	340.95	1.337055	0.085448	0.085381	341.252	49012.3	0.080226	0.208155	1639.41	98148.8
213	2.000000	1.339571	7.36714e+06	-49289.1	955.818	-29759.7	0.000000	0.000000	7.355735	380.313	NaN	0.000000	0.001693	0.001819	28.0785	87.9744	0.001686	52181.8	6.102370	-9.651886	376.613	1.339186	0.087897	0.087513	380.313	52181.8	0.082431	0.218300	1742.16	102039
213	2.000000	1.342066	7.36714e+06	-49289.1	955.817	-29759.7	0.000000	0.000000	7.358952	397.844	NaN	0.000000	0.001679	0.001782	28.0789	90.9162	0.001882	48305.5	7.244748	168.845	395.129	1.341724	0.090393	0.090050	397.844	48305.5	0.084216	0.226675	1755.13	92697.6
213	2.000000	1.344610	7.36714e+06	-49289.1	955.819	-29759.7	0.000000	0.000000	7.362274	416.796	NaN	0.000000	0.001690	0.001779	28.0788	92.9816	0.001754	52996.8	6.092170	-10.8004	414.899	1.344288	0.092936	0.092614	416.796	52996.8	0.087038	0.240220	1735.06	98791.2
213	2.000000	1.347047	7.36714e+06	-49289.1	955.818	-29759.7	0.000000	0.000000	7.365117	426.659	NaN	0.000000	0.001670	0.001757	28.0791	95.8762	0.001877	51085.4	3.534288	172.139	424.489	1.346889	0.095373	0.095216	426.659	51085.4	0.089109	0.250394	1703.95	93273.4
213	2.000000	1.349544	7.36714e+06	-49289.1	955.818	-29759.7	0.000000	0.000000	7.368731	453.84	NaN	0.000000	0.001679	0.001762	28.0799	97.3552	0.001905	51103.3	3.491361	-6.770857	449.38	1.349232	0.097870	0.097558	453.84	51103.3	0.091209	0.260911	1739.45	91406.4
213	2.000000	1.352076	7.36714e+06	-49289.1	955.819	-29759.7	0.000000	0.000000	7.372221	477.119	NaN	0.000000	0.001700	0.001772	28.0802	100.049	0.001911	52345.9	4.544934	171.799	476.149	1.351679	0.100402	0.100005	477.119	52345.9	0.093566	0.272954	1747.98	91540.1
213	2.000000	1.354652	7.36714e+06	-49289.1	955.818	-29759.7	0.000000	0.000000	7.375529	494.927	NaN	0.000000	0.001636	0.001771	28.0799	102.872	0.001937	53118.2	4.047735	-7.299029	497.543	1.354166	0.102978	0.102492	494.927	53118.2	0.095990	0.285604	1732.91	90810.2
213	2.000000	1.357052	7.36714e+06	-49289.1	955.818	-29759.7	0.000000	0.000000	7.378983	520.561	NaN	0.000000	0.001698	0.001773	28.0799	104.347	0.001799	58006.7	6.749696	168.774	518.162	1.356690	0.105378	0.105016	520.561	58006.7	0.098648	0.299781	1736.47	96794.2
213	2.000000	1.359525	7.36714e+06	-49289.1	955.819	-29759.7	0.000000	0.000000	7.382396	543.428	NaN	0.000000	0.001677	0.001771	28.0798	106.023	0.001745	60771.1	6.688390	-11.3954	538.4	1.359012	0.107851	0.107338	543.428	60771.1	0.101144	0.313393	1734.02	99180.4
213	2.000000	1.360553	7.36714e+06	-49289.1	955.817	-29759.7	0.000000	0.000000	7.383381	542.378	NaN	0.000000	0.001694	0.001781	28.0796	106.259	0.001762	60290.5	0.165571	-5.137105	539.464	1.360334	0.108879	0.108661	542.378	60290.5	0.102132	0.318856	1701.01	97549.4