File: remote_trans/data/nanoindenter/0828-1/data/Data_2025-08-06,11h17m57s/2025-07-22_16-23-58_1_554.txt
2025-07-22, 16:23:58, 1
Index	Phase	Displacement	Time	Pos X	Pos Y	Pos Z	Rot A	Rot B	Piezo Z	Force A	Force B	Gripper	Voltage A	Voltage B	Temperature	Amplitude force	Amplitude pos	Stiffness	Phase shift	Phase excitation	Force A raw	Displacement raw	HMax	HMax raw	Real Force	Real Stiffness	Contact Depth	Area	Hardness	Reduced Mod.
[#]	[#]	[um]	[s]	[um]	[um]	[um]	[m°]	[m°]	[um]	[uN]	[uN]	[V]	[V]	[V]	[°C]	[uN]	[um]	[N/m]	[°]	[°]	[uN]	[um]	[um]	[um]	[uN]	[N/m]	[um]	[um^2]	[MPa]	[MPa]
554	1.000000	0.002634	7.37047e+06	-49389.1	1005.82	-29759.2	0.000000	0.000000	6.002812	-0.074984	NaN	0.000000	0.001642	0.001780	28.0812	0.024016	0.001008	23.8201	26.0661	-166.009	-0.013082	0.001337	-1.084963	-1.086260	-0.074984	23.8201	-1.082602	-2.927296E+14	2.561541E-16	NaN
554	1.000000	0.010565	7.37047e+06	-49389.1	1005.82	-29759.2	0.000000	0.000000	6.010745	-0.018863	NaN	0.000000	0.001657	0.001752	28.0812	0.164338	0.000952	172.703	167.268	-168.046	-0.055418	0.009243	-1.077032	-1.078354	-0.018863	172.703	-1.076950	-2.457868E+14	7.674517E-17	NaN
554	1.000000	0.018582	7.37047e+06	-49389.1	1005.82	-29759.2	0.000000	0.000000	6.018765	0.054093	NaN	0.000000	0.001634	0.001755	28.0813	0.041415	0.001739	23.8135	-179.329	-167.316	0.066161	0.017236	-1.069015	-1.070361	0.054093	23.8135	-1.070719	-2.026947E+14	-2.668709E-16	NaN
554	1.000000	0.026580	7.37047e+06	-49389.1	1005.82	-29759.2	0.000000	0.000000	6.026764	0.060086	NaN	0.000000	0.001659	0.001801	28.081	0.072958	0.002027	35.99	92.7404	-167.895	-0.010631	0.025272	-1.061016	-1.062325	0.060086	35.99	-1.062269	-1.560658E+14	-3.850054E-16	NaN
554	1.000000	0.034566	7.37047e+06	-49389.1	1005.82	-29759.2	0.000000	0.000000	6.034751	0.089392	NaN	0.000000	0.001660	0.001820	28.081	0.089107	0.001908	46.7119	-15.8393	-164.815	0.062952	0.033262	-1.053031	-1.054335	0.089392	46.7119	-1.054466	-1.225867E+14	-7.292160E-16	NaN
554	1.000000	0.042562	7.37047e+06	-49389.1	1005.82	-29759.2	0.000000	0.000000	6.042746	0.082184	NaN	0.000000	0.001641	0.001751	28.0808	0.072757	0.002067	35.208	17.4891	-167.795	0.092738	0.041265	-1.045035	-1.046332	0.082184	35.208	-1.046786	-9.665025E+13	-8.503277E-16	NaN
554	1.000000	0.050569	7.37047e+06	-49389.1	1005.82	-29759.2	0.000000	0.000000	6.050750	0.007182	NaN	0.000000	0.001639	0.001755	28.0811	0.060354	0.002043	29.5351	24.5885	-166.782	-0.001818	0.049260	-1.037028	-1.038337	0.007182	29.5351	-1.037211	-7.185521E+13	-9.994560E-17	NaN
554	1.000000	0.058595	7.37047e+06	-49389.1	1005.82	-29759.2	0.000000	0.000000	6.058776	0.004871	NaN	0.000000	0.001667	0.001751	28.081	0.107730	0.001893	56.9031	157.782	-164.643	0.019575	0.057237	-1.029002	-1.030360	0.004871	56.9031	-1.029066	-5.583676E+13	-8.722779E-17	NaN
554	1.000000	0.066560	7.37047e+06	-49389.1	1005.82	-29759.2	0.000000	0.000000	6.066741	0.003062	NaN	0.000000	0.001658	0.001731	28.081	0.090766	0.001980	45.8403	-17.6006	-166.305	0.003185	0.065270	-1.021037	-1.022327	0.003062	45.8403	-1.021087	-4.360878E+13	-7.021904E-17	NaN
554	1.000000	0.074566	7.37047e+06	-49389.1	1005.82	-29759.2	0.000000	0.000000	6.074746	-0.014940	NaN	0.000000	0.001608	0.001734	28.0809	0.053370	0.002032	26.2679	-58.0032	-165.525	0.036973	0.073262	-1.013031	-1.014334	-0.014940	26.2679	-1.012604	-3.352980E+13	4.455807E-16	NaN
554	1.000000	0.082561	7.37047e+06	-49389.1	1005.82	-29759.2	0.000000	0.000000	6.082743	0.046469	NaN	0.000000	0.001609	0.001772	28.0808	0.031116	0.002071	15.0264	102.853	-167.755	-0.004931	0.081306	-1.005036	-1.006291	0.046469	15.0264	-1.007356	-2.849645E+13	-1.630691E-15	NaN
554	1.000000	0.090567	7.37047e+06	-49389.1	1005.82	-29759.2	0.000000	0.000000	6.090749	0.038452	NaN	0.000000	0.001600	0.001765	28.081	0.101081	0.002135	47.3406	-75.4842	-166.796	0.057866	0.089288	-0.997030	-0.998309	0.038452	47.3406	-0.997639	-2.108555E+13	-1.823629E-15	NaN
554	1.000000	0.098598	7.37047e+06	-49389.1	1005.82	-29759.2	0.000000	0.000000	6.098781	0.057830	NaN	0.000000	0.001602	0.001773	28.0811	0.011849	0.002059	5.754197	168.103	-165.216	0.131554	0.097248	-0.988999	-0.990349	0.057830	5.754197	-0.996536	-2.037676E+13	-2.838045E-15	NaN
554	1.000000	0.106586	7.37047e+06	-49389.1	1005.82	-29759.2	0.000000	0.000000	6.106767	0.014250	NaN	0.000000	0.001576	0.001699	28.0797	0.073758	0.002048	36.0139	-110.584	-164.324	-0.078701	0.105296	-0.981011	-0.982301	0.014250	36.0139	-0.981308	-1.270657E+13	-1.121430E-15	NaN
554	1.000000	0.114593	7.37047e+06	-49389.1	1005.82	-29759.2	0.000000	0.000000	6.114773	-0.006559	NaN	0.000000	0.001644	0.001741	28.0797	0.133079	0.001999	66.5752	-12.8613	-165.883	0.009993	0.113255	-0.973004	-0.974342	-0.006559	66.5752	-0.972930	-9.798309E+12	6.694272E-16	NaN
554	1.000000	0.122600	7.37047e+06	-49389.1	1005.82	-29759.2	0.000000	0.000000	6.122782	0.019318	NaN	0.000000	0.001618	0.001731	28.0797	0.023062	0.001956	11.7932	102.107	-166.189	0.036453	0.121277	-0.964997	-0.966320	0.019318	11.7932	-0.966225	-7.957652E+12	-2.427564E-15	NaN
554	1.000000	0.130563	7.37047e+06	-49389.1	1005.82	-29759.2	0.000000	0.000000	6.130744	-0.004079	NaN	0.000000	0.001579	0.001740	28.0798	0.081105	0.001976	41.0446	87.2051	-164.516	-0.032055	0.129269	-0.957034	-0.958328	-0.004079	41.0446	-0.956959	-5.968598E+12	6.833773E-16	NaN
554	1.000000	0.138604	7.37047e+06	-49389.1	1005.82	-29759.2	0.000000	0.000000	6.138787	0.063323	NaN	0.000000	0.001606	0.001756	28.08	0.100188	0.001999	50.1131	-158.28	-166.53	0.027455	0.137281	-0.948993	-0.950316	0.063323	50.1131	-0.949941	-4.799873E+12	-1.319263E-14	NaN
554	1.000000	0.146575	7.37047e+06	-49389.1	1005.82	-29759.2	0.000000	0.000000	6.146755	-0.015836	NaN	0.000000	0.001587	0.001777	28.08	0.046652	0.001854	25.1659	129.388	-166.526	0.005642	0.145281	-0.941022	-0.942316	-0.015836	25.1659	-0.940550	-3.585617E+12	4.416448E-15	NaN
554	1.000000	0.154615	7.37047e+06	-49389.1	1005.82	-29759.2	0.000000	0.000000	6.154795	-0.036489	NaN	0.000000	0.001559	0.001775	28.0802	0.032905	0.002045	16.088	-12.8051	-164.293	-0.067556	0.153303	-0.932982	-0.934294	-0.036489	16.088	-0.931281	-2.688320E+12	1.357323E-14	NaN
554	1.000000	0.162638	7.37047e+06	-49389.1	1005.82	-29759.2	0.000000	0.000000	6.162817	-0.047877	NaN	0.000000	0.001638	0.001767	28.0797	0.061553	0.002049	30.0364	-11.1568	-163.853	0.024759	0.161297	-0.924959	-0.926300	-0.047877	30.0364	-0.923763	-2.128200E+12	2.249654E-14	NaN
554	1.000000	0.170613	7.37047e+06	-49389.1	1005.82	-29759.2	0.000000	0.000000	6.170798	0.086329	NaN	0.000000	0.001610	0.001759	28.0801	0.064410	0.002108	30.5515	-30.2484	-165.279	0.066137	0.169280	-0.916983	-0.918317	0.086329	30.5515	-0.919103	-1.841160E+12	-4.688846E-14	NaN
554	1.000000	0.178629	7.37047e+06	-49389.1	1005.82	-29759.2	0.000000	0.000000	6.178811	0.040543	NaN	0.000000	0.001624	0.001770	28.0799	0.063566	0.002052	30.9801	134.185	-169.743	0.042632	0.177288	-0.908968	-0.910309	0.040543	30.9801	-0.909950	-1.385103E+12	-2.927109E-14	NaN
554	1.000000	0.186609	7.37047e+06	-49389.1	1005.82	-29759.2	0.000000	0.000000	6.186789	-0.035461	NaN	0.000000	0.001626	0.001740	28.0799	0.053270	0.002054	25.9334	-28.8726	-167.819	0.016165	0.185316	-0.900988	-0.902281	-0.035461	25.9334	-0.899962	-1.015207E+12	3.493005E-14	NaN
554	1.000000	0.194628	7.37047e+06	-49389.1	1005.82	-29759.2	0.000000	0.000000	6.194807	-0.050958	NaN	0.000000	0.001622	0.001760	28.0797	0.053119	0.001945	27.3157	104.717	-167.217	0.025510	0.193332	-0.892969	-0.894265	-0.050958	27.3157	-0.891570	-7.818653E+11	6.517512E-14	NaN
554	1.000000	0.202640	7.37047e+06	-49389.1	1005.82	-29759.2	0.000000	0.000000	6.202820	-0.017405	NaN	0.000000	0.001611	0.001759	28.0797	0.043167	0.002044	21.1165	-75.2058	-170.706	0.032844	0.201356	-0.884957	-0.886241	-0.017405	21.1165	-0.884339	-6.242861E+11	2.787919E-14	NaN
554	1.000000	0.210635	7.37047e+06	-49389.1	1005.82	-29759.2	0.000000	0.000000	6.210811	-0.112382	NaN	0.000000	0.001644	0.001759	28.0802	0.148166	0.002060	71.9399	-164.935	-165.221	-0.088004	0.209340	-0.876962	-0.878257	-0.112382	71.9399	-0.875790	-4.783771E+11	2.349229E-13	NaN
554	1.000000	0.218673	7.37047e+06	-49389.1	1005.82	-29759.2	0.000000	0.000000	6.218853	-0.007452	NaN	0.000000	0.001591	0.001755	28.0798	0.068437	0.001914	35.7649	-111.727	-163.197	0.114955	0.217362	-0.868924	-0.870235	-0.007452	35.7649	-0.868768	-3.843931E+11	1.938563E-14	NaN
554	1.000000	0.226660	7.37047e+06	-49389.1	1005.82	-29759.2	0.000000	0.000000	6.226840	-0.013131	NaN	0.000000	0.001622	0.001739	28.0799	0.076892	0.001996	38.523	-76.7875	-167.986	-0.003847	0.225318	-0.860937	-0.862279	-0.013131	38.523	-0.860682	-2.987777E+11	4.394880E-14	NaN
554	1.000000	0.234671	7.37047e+06	-49389.1	1005.82	-29759.2	0.000000	0.000000	6.234851	-0.021180	NaN	0.000000	0.001631	0.001733	28.0796	0.093543	0.002144	43.6348	142.15	-163.8	0.029234	0.233330	-0.852926	-0.854267	-0.021180	43.6348	-0.852562	-2.319673E+11	9.130641E-14	NaN
554	1.000000	0.242682	7.37047e+06	-49389.1	1005.82	-29759.2	0.000000	0.000000	6.242862	-0.001656	NaN	0.000000	0.001632	0.001735	28.081	0.040001	0.002041	19.6008	-76.1861	-164.247	0.012011	0.241361	-0.844915	-0.846236	-0.001656	19.6008	-0.844852	-1.823978E+11	9.078244E-15	NaN
554	1.000000	0.250626	7.37047e+06	-49389.1	1005.82	-29759.2	0.000000	0.000000	6.250807	-0.004731	NaN	0.000000	0.001614	0.001762	28.0809	0.095123	0.002155	44.1361	115.598	-169.548	0.017885	0.249310	-0.836971	-0.838287	-0.004731	44.1361	-0.836891	-1.422872E+11	3.324833E-14	NaN
554	1.000000	0.258650	7.37047e+06	-49389.1	1005.82	-29759.2	0.000000	0.000000	6.258828	-0.073202	NaN	0.000000	0.001609	0.001714	28.0809	0.002266	0.001965	1.153136	-101.991	-165.312	0.044727	0.257356	-0.828947	-0.830241	-0.073202	1.153136	-0.781336	-2.508310E+10	2.918396E-12	NaN
554	1.000000	0.266699	7.37047e+06	-49389.1	1005.82	-29759.2	0.000000	0.000000	6.266881	0.033399	NaN	0.000000	0.001622	0.001752	28.0812	0.161351	0.001899	84.9715	99.8737	-161.259	0.013372	0.265343	-0.820898	-0.822254	0.033399	84.9715	-0.821193	-8.717411E+10	-3.831330E-13	NaN
554	1.000000	0.274652	7.37047e+06	-49389.1	1005.82	-29759.2	0.000000	0.000000	6.274832	0.001555	NaN	0.000000	0.001620	0.001752	28.081	0.141380	0.001944	72.7263	-86.1737	-167.582	-0.064353	0.273375	-0.812945	-0.814222	0.001555	72.7263	-0.812961	-6.741362E+10	-2.306290E-14	NaN
554	1.000000	0.282672	7.37047e+06	-49389.1	1005.82	-29759.2	0.000000	0.000000	6.282852	-0.003170	NaN	0.000000	0.001629	0.001740	28.0812	0.122659	0.002060	59.5394	-113.142	-169.276	-0.002978	0.281354	-0.804925	-0.806243	-0.003170	59.5394	-0.804885	-5.238072E+10	6.052098E-14	NaN
554	1.000000	0.290673	7.37047e+06	-49389.1	1005.82	-29759.2	0.000000	0.000000	6.290854	-0.012838	NaN	0.000000	0.001660	0.001744	28.081	0.106681	0.001973	54.084	113.487	-170.197	-0.094649	0.289360	-0.796924	-0.798237	-0.012838	54.084	-0.796746	-4.061482E+10	3.161032E-13	NaN
554	1.000000	0.298670	7.37047e+06	-49389.1	1005.82	-29759.2	0.000000	0.000000	6.298849	-0.050736	NaN	0.000000	0.001578	0.001737	28.0811	0.024906	0.002102	11.8505	-53.4973	-167.612	-0.040156	0.297410	-0.788927	-0.790187	-0.050736	11.8505	-0.785716	-2.876682E+10	1.763687E-12	NaN
554	1.000000	0.306704	7.37047e+06	-49389.1	1005.82	-29759.2	0.000000	0.000000	6.306887	0.043934	NaN	0.000000	0.001623	0.001767	28.081	0.068439	0.001930	35.4619	-165.682	-164.707	0.066466	0.305398	-0.780893	-0.782199	0.043934	35.4619	-0.781822	-2.546762E+10	-1.725098E-12	NaN
554	1.000000	0.314674	7.37047e+06	-49389.1	1005.82	-29759.2	0.000000	0.000000	6.314856	0.028630	NaN	0.000000	0.001640	0.001696	28.0813	0.031510	0.001982	15.8946	-130.206	-168.156	0.037453	0.313386	-0.772923	-0.774211	0.028630	15.8946	-0.774274	-2.011005E+10	-1.423665E-12	NaN
554	1.000000	0.322703	7.37047e+06	-49389.1	1005.82	-29759.2	0.000000	0.000000	6.322885	0.023701	NaN	0.000000	0.001593	0.001794	28.0814	0.085811	0.001978	43.3793	-77.7512	-166.816	0.005937	0.321400	-0.764894	-0.766197	0.023701	43.3793	-0.765304	-1.518593E+10	-1.560736E-12	NaN
554	1.000000	0.330679	7.37047e+06	-49389.1	1005.82	-29759.2	0.000000	0.000000	6.330861	0.034324	NaN	0.000000	0.001623	0.001798	28.0811	0.105070	0.001996	52.6459	115.417	-168.643	-0.024290	0.329327	-0.756918	-0.758270	0.034324	52.6459	-0.757407	-1.185832E+10	-2.894468E-12	NaN
554	1.000000	0.338703	7.37047e+06	-49389.1	1005.82	-29759.2	0.000000	0.000000	6.338885	0.029337	NaN	0.000000	0.001618	0.001788	28.0813	0.034199	0.001988	17.2034	-72.6346	-164.114	0.035330	0.337339	-0.748894	-0.750258	0.029337	17.2034	-0.750173	-9.453095E+9	-3.103379E-12	NaN
554	1.000000	0.346711	7.37047e+06	-49389.1	1005.82	-29759.2	0.000000	0.000000	6.346893	0.027567	NaN	0.000000	0.001596	0.001768	28.0811	0.038994	0.002004	19.4562	-103.647	-163.396	0.044765	0.345380	-0.740886	-0.742217	0.027567	19.4562	-0.741949	-7.304605E+9	-3.773978E-12	NaN
554	1.000000	0.354707	7.37047e+06	-49389.1	1005.82	-29759.2	0.000000	0.000000	6.354888	0.019859	NaN	0.000000	0.001597	0.001748	28.0812	0.049531	0.001977	25.0503	73.5148	-164.076	0.026132	0.353358	-0.732890	-0.734239	0.019859	25.0503	-0.733485	-5.601430E+9	-3.545284E-12	NaN
554	1.000000	0.362685	7.37047e+06	-49389.1	1005.82	-29759.2	0.000000	0.000000	6.362865	-0.013966	NaN	0.000000	0.001604	0.001723	28.0812	0.013675	0.002061	6.634101	101.151	-167.343	-0.026784	0.361407	-0.724912	-0.726190	-0.013966	6.634101	-0.723333	-4.073131E+9	3.428778E-12	NaN
554	1.000000	0.370703	7.37047e+06	-49389.1	1005.82	-29759.2	0.000000	0.000000	6.370886	0.046742	NaN	0.000000	0.001594	0.001749	28.0812	0.071434	0.002175	32.8485	-55.9556	-165.705	-0.019717	0.369416	-0.716894	-0.718181	0.046742	32.8485	-0.717961	-3.440847E+9	-1.358435E-11	NaN
554	1.000000	0.378715	7.37047e+06	-49389.1	1005.82	-29759.2	0.000000	0.000000	6.378895	-0.010290	NaN	0.000000	0.001597	0.001730	28.0805	0.079578	0.001970	40.4045	-7.824536	-164.809	-0.005299	0.377400	-0.708882	-0.710197	-0.010290	40.4045	-0.708691	-2.571512E+9	4.001401E-12	NaN
554	1.000000	0.386696	7.37047e+06	-49389.1	1005.82	-29759.2	0.000000	0.000000	6.386879	0.044277	NaN	0.000000	0.001609	0.001760	28.0799	0.066315	0.002043	32.4559	23.1008	-167.507	0.027117	0.385331	-0.700901	-0.702266	0.044277	32.4559	-0.701924	-2.078776E+9	-2.129972E-11	NaN
554	1.000000	0.394695	7.37047e+06	-49389.1	1005.82	-29759.2	0.000000	0.000000	6.394877	0.009047	NaN	0.000000	0.001608	0.001745	28.0802	0.105487	0.002171	48.6002	-77.0034	-168.715	0.049423	0.393403	-0.692902	-0.694194	0.009047	48.6002	-0.693041	-1.572084E+9	-5.755097E-12	NaN
554	1.000000	0.402693	7.37047e+06	-49389.1	1005.82	-29759.2	0.000000	0.000000	6.402873	-0.035119	NaN	0.000000	0.001571	0.001788	28.0802	0.047113	0.002030	23.2113	-97.9323	-168.409	-0.016855	0.401427	-0.684904	-0.686170	-0.035119	23.2113	-0.683769	-1.174203E+9	2.990919E-11	NaN
554	1.000000	0.410729	7.37047e+06	-49389.1	1005.82	-29759.2	0.000000	0.000000	6.410909	-0.010780	NaN	0.000000	0.001565	0.001751	28.08	0.045584	0.001988	22.9267	-57.3194	-166.092	0.035840	0.409407	-0.676868	-0.678190	-0.010780	22.9267	-0.676515	-9.344241E+8	1.153601E-11	NaN
554	1.000000	0.418715	7.37047e+06	-49389.1	1005.82	-29759.2	0.000000	0.000000	6.418899	0.075715	NaN	0.000000	0.001595	0.001750	28.0802	0.013415	0.001940	6.916546	-113.429	-163.195	0.014101	0.417380	-0.668882	-0.670216	0.075715	6.916546	-0.677092	-9.515546E+8	-7.956971E-11	NaN
554	1.000000	0.426743	7.37047e+06	-49389.1	1005.82	-29759.2	0.000000	0.000000	6.426925	0.016784	NaN	0.000000	0.001565	0.001699	28.0799	0.089184	0.001944	45.8738	-9.094130	-168.913	-0.003456	0.425428	-0.660854	-0.662169	0.016784	45.8738	-0.661128	-5.753398E+8	-2.917241E-11	NaN
554	1.000000	0.434732	7.37047e+06	-49389.1	1005.82	-29759.2	0.000000	0.000000	6.434911	-0.037305	NaN	0.000000	0.001583	0.001700	28.0801	0.106434	0.001963	54.2307	-164.097	-168.731	-0.037539	0.433412	-0.652865	-0.654185	-0.037305	54.2307	-0.652349	-4.361507E+8	8.553273E-11	NaN
554	1.000000	0.442716	7.37047e+06	-49389.1	1005.82	-29759.2	0.000000	0.000000	6.442900	0.055119	NaN	0.000000	0.001567	0.001745	28.0797	0.061972	0.002081	29.7745	-42.0383	-164.452	-0.013621	0.441443	-0.644880	-0.646153	0.055119	29.7745	-0.646269	-3.599807E+8	-1.531155E-10	NaN
554	1.000000	0.450742	7.37047e+06	-49389.1	1005.82	-29759.2	0.000000	0.000000	6.450922	-0.013525	NaN	0.000000	0.001650	0.001670	28.0798	0.080114	0.002047	39.1346	166.894	-165.351	-0.018537	0.449441	-0.636855	-0.638156	-0.013525	39.1346	-0.636596	-2.652025E+8	5.099910E-11	NaN
554	1.000000	0.458738	7.37047e+06	-49389.1	1005.82	-29759.2	0.000000	0.000000	6.458919	0.008347	NaN	0.000000	0.001635	0.001769	28.08	0.069311	0.001967	35.2415	-176.421	-168.986	-0.047860	0.457436	-0.628859	-0.630161	0.008347	35.2415	-0.629037	-2.088311E+8	-3.996773E-11	NaN
554	1.000000	0.466734	7.37047e+06	-49389.1	1005.82	-29759.2	0.000000	0.000000	6.466914	-0.023204	NaN	0.000000	0.001611	0.001694	28.0799	0.027406	0.001973	13.8872	94.1324	-161.509	-0.009998	0.465418	-0.620863	-0.622179	-0.023204	13.8872	-0.619610	-1.549784E+8	1.497269E-10	NaN
554	1.000000	0.474690	7.37047e+06	-49389.1	1005.82	-29759.2	0.000000	0.000000	6.474875	0.088533	NaN	0.000000	0.001647	0.001720	28.0799	0.064759	0.002027	31.9548	-33.9274	-167.178	0.038840	0.473426	-0.612907	-0.614171	0.088533	31.9548	-0.614985	-1.338697E+8	-6.613366E-10	NaN
554	1.000000	0.482739	7.37047e+06	-49389.1	1005.82	-29759.2	0.000000	0.000000	6.482922	0.054199	NaN	0.000000	0.001623	0.001735	28.0798	0.035189	0.001962	17.9385	27.2883	-166.199	0.063334	0.481413	-0.604858	-0.606184	0.054199	17.9385	-0.607124	-1.043612E+8	-5.193391E-10	NaN
554	1.000000	0.490770	7.37047e+06	-49389.1	1005.82	-29759.2	0.000000	0.000000	6.490952	0.049674	NaN	0.000000	0.001596	0.001769	28.0803	0.048676	0.001963	24.7956	-51.9218	-167.153	0.079926	0.489465	-0.596827	-0.598132	0.049674	24.7956	-0.598330	-7.896921E+7	-6.290321E-10	NaN
554	1.000000	0.498800	7.37047e+06	-49389.1	1005.82	-29759.2	0.000000	0.000000	6.498983	0.031709	NaN	0.000000	0.001601	0.001723	28.0799	0.080594	0.002049	39.3335	-111.734	-162.692	0.024410	0.497491	-0.588797	-0.590106	0.031709	39.3335	-0.589401	-5.948537E+7	-5.330623E-10	NaN
554	1.000000	0.506778	7.37047e+06	-49389.1	1005.82	-29759.2	0.000000	0.000000	6.506960	0.040359	NaN	0.000000	0.001599	0.001764	28.08	0.043392	0.002009	21.5993	44.9085	-168.215	-0.012144	0.505500	-0.580819	-0.582097	0.040359	21.5993	-0.582220	-4.735517E+7	-8.522576E-10	NaN
554	1.000000	0.514746	7.37047e+06	-49389.1	1005.82	-29759.2	0.000000	0.000000	6.514930	0.066699	NaN	0.000000	0.001606	0.001732	28.0813	0.036721	0.002013	18.2394	27.147	-166.481	0.101257	0.513469	-0.572851	-0.574128	0.066699	18.2394	-0.575593	-3.836121E+7	-1.738702E-9	NaN
554	1.000000	0.522781	7.37047e+06	-49389.1	1005.82	-29759.2	0.000000	0.000000	6.522960	-0.025501	NaN	0.000000	0.001609	0.001707	28.081	0.019005	0.002076	9.152590	11.1607	-163.357	0.075763	0.521479	-0.564816	-0.566118	-0.025501	9.152590	-0.562727	-2.547361E+7	1.001092E-9	NaN
554	1.000000	0.530761	7.37047e+06	-49389.1	1005.82	-29759.2	0.000000	0.000000	6.530942	0.009011	NaN	0.000000	0.001596	0.001758	28.0813	0.088789	0.002038	43.5733	-121.208	-165.653	0.015671	0.529485	-0.556836	-0.558112	0.009011	43.5733	-0.556991	-2.122022E+7	-4.246364E-10	NaN
554	1.000000	0.538765	7.37047e+06	-49389.1	1005.82	-29759.2	0.000000	0.000000	6.538948	0.057173	NaN	0.000000	0.001531	0.001714	28.081	0.088059	0.002075	42.4309	-101.323	-168.59	-0.014730	0.537522	-0.548832	-0.550075	0.057173	42.4309	-0.549842	-1.689551E+7	-3.383887E-9	NaN
554	1.000000	0.546766	7.37047e+06	-49389.1	1005.82	-29759.2	0.000000	0.000000	6.546951	0.097731	NaN	0.000000	0.001555	0.001763	28.0813	0.026965	0.002051	13.1454	-87.3086	-166.354	0.033709	0.545489	-0.540831	-0.542108	0.097731	13.1454	-0.546407	-1.514181E+7	-6.454352E-9	NaN
554	1.000000	0.554751	7.37047e+06	-49389.1	1005.82	-29759.2	0.000000	0.000000	6.554934	0.052008	NaN	0.000000	0.001567	0.001715	28.0811	0.051635	0.002013	25.6507	-31.983	-170.46	0.054273	0.553437	-0.532846	-0.534160	0.052008	25.6507	-0.534367	-1.030869E+7	-5.045112E-9	NaN
554	1.000000	0.562800	7.37047e+06	-49389.1	1005.82	-29759.2	0.000000	0.000000	6.562978	-0.065685	NaN	0.000000	0.001553	0.001724	28.0811	0.169412	0.002002	84.6134	118.662	-166.974	-0.071496	0.561412	-0.524797	-0.526185	-0.065685	84.6134	-0.524215	-7.45073e+06	8.815899E-9	NaN
554	1.000000	0.570787	7.37047e+06	-49389.1	1005.82	-29759.2	0.000000	0.000000	6.570971	0.076119	NaN	0.000000	0.001614	0.001713	28.0811	0.083520	0.001942	42.9967	-33.0698	-163.944	0.102034	0.569438	-0.516810	-0.518159	0.076119	42.9967	-0.518138	-6.13334e+06	-1.241063E-8	NaN
554	1.000000	0.578787	7.37047e+06	-49389.1	1005.82	-29759.2	0.000000	0.000000	6.578969	0.032352	NaN	0.000000	0.001585	0.001745	28.0808	0.068797	0.002061	33.381	83.7808	-165.491	0.036956	0.577477	-0.508810	-0.510120	0.032352	33.381	-0.509537	-4.6555e+06	-6.949113E-9	NaN
554	1.000000	0.586800	7.37047e+06	-49389.1	1005.82	-29759.2	0.000000	0.000000	6.586979	-0.045848	NaN	0.000000	0.001575	0.001748	28.0813	0.067773	0.002034	33.323	168.133	-168.235	-0.089627	0.585489	-0.500797	-0.502108	-0.045848	33.323	-0.499765	-3.40201e+06	1.347682E-8	NaN
554	1.000000	0.594808	7.37047e+06	-49389.1	1005.82	-29759.2	0.000000	0.000000	6.594985	-0.097442	NaN	0.000000	0.001540	0.001750	28.0811	0.129461	0.002031	63.7304	155.385	-169.634	-0.068617	0.593506	-0.492789	-0.494091	-0.097442	63.7304	-0.491642	-2.6202e+06	3.718889E-8	NaN
554	1.000000	0.602823	7.37047e+06	-49389.1	1005.82	-29759.2	0.000000	0.000000	6.603003	-0.039492	NaN	0.000000	0.001583	0.001744	28.0813	0.041568	0.002056	20.2218	132.253	-167.579	-0.047546	0.601432	-0.484773	-0.486165	-0.039492	20.2218	-0.483309	-2.0037e+06	1.970966E-8	NaN
554	1.000000	0.610797	7.37047e+06	-49389.1	1005.82	-29759.2	0.000000	0.000000	6.610980	0.055166	NaN	0.000000	0.001595	0.001713	28.0811	0.124740	0.002138	58.335	-153.385	-166.68	-0.012251	0.609523	-0.476800	-0.478074	0.055166	58.335	-0.477510	-1.66209e+06	-3.319043E-8	NaN
554	1.000000	0.618816	7.37047e+06	-49389.1	1005.82	-29759.2	0.000000	0.000000	6.618999	0.040670	NaN	0.000000	0.001605	0.001703	28.0812	0.079576	0.001964	40.5261	119.911	-166.777	0.039461	0.617502	-0.468781	-0.470095	0.040670	40.5261	-0.469533	-1.28487e+06	-3.165291E-8	NaN
554	1.000000	0.626814	7.37047e+06	-49389.1	1005.82	-29759.2	0.000000	0.000000	6.626995	-0.010608	NaN	0.000000	0.001556	0.001722	28.0812	0.083777	0.002026	41.3581	-144.031	-169.417	0.008196	0.625470	-0.460783	-0.462127	-0.010608	41.3581	-0.460590	-962306	1.102328E-8	NaN
554	1.000000	0.634820	7.37047e+06	-49389.1	1005.82	-29759.2	0.000000	0.000000	6.635000	-0.012086	NaN	0.000000	0.001556	0.001691	28.0811	0.087596	0.002009	43.5924	156.372	-167.631	-0.047266	0.633477	-0.452777	-0.454120	-0.012086	43.5924	-0.452569	-742185	1.628419E-8	NaN
554	1.000000	0.642810	7.37047e+06	-49389.1	1005.82	-29759.2	0.000000	0.000000	6.642991	-0.005608	NaN	0.000000	0.001601	0.001704	28.0814	0.077241	0.002155	35.8473	-21.549	-166.085	0.020965	0.641487	-0.444786	-0.446110	-0.005608	35.8473	-0.444669	-574418	9.762574E-9	NaN
554	1.000000	0.650815	7.37047e+06	-49389.1	1005.82	-29759.2	0.000000	0.000000	6.650993	-0.068614	NaN	0.000000	0.001595	0.001722	28.0799	0.044905	0.002144	20.9444	-9.949994	-163.19	-0.063144	0.649491	-0.436782	-0.438106	-0.068614	20.9444	-0.434325	-410405	1.671870E-7	NaN
554	1.000000	0.658818	7.37047e+06	-49389.1	1005.82	-29759.2	0.000000	0.000000	6.659001	0.053897	NaN	0.000000	0.001671	0.001716	28.0801	0.105326	0.002000	52.6532	-152.026	-165.306	0.045483	0.657508	-0.428779	-0.430089	0.053897	52.6532	-0.429547	-351278	-1.534320E-7	NaN
554	1.000000	0.666818	7.37047e+06	-49389.1	1005.82	-29759.2	0.000000	0.000000	6.666997	-0.056519	NaN	0.000000	0.001651	0.001714	28.0799	0.022771	0.001957	11.6344	0.579328	-164.814	-0.013844	0.665534	-0.420779	-0.422063	-0.056519	11.6344	-0.417135	-234299	2.412274E-7	NaN
554	1.000000	0.674842	7.37047e+06	-49389.1	1005.82	-29759.2	0.000000	0.000000	6.675023	0.004352	NaN	0.000000	0.001641	0.001694	28.0799	0.056723	0.001982	28.6152	-13.5594	-164.014	-0.072591	0.673491	-0.412755	-0.414106	0.004352	28.6152	-0.412869	-203793	-2.135330E-8	NaN
554	1.000000	0.682813	7.37047e+06	-49389.1	1005.82	-29759.2	0.000000	0.000000	6.682992	-0.046576	NaN	0.000000	0.001679	0.001697	28.0799	0.014773	0.002084	7.089436	149.856	-167.301	0.032104	0.681520	-0.404784	-0.406077	-0.046576	7.089436	-0.399857	-133031	3.501155E-7	NaN
554	1.000000	0.690826	7.37047e+06	-49389.1	1005.82	-29759.2	0.000000	0.000000	6.691009	0.048422	NaN	0.000000	0.001648	0.001699	28.08	0.061649	0.001876	32.8557	-4.504660	-162.73	0.030712	0.689474	-0.396771	-0.398123	0.048422	32.8557	-0.397876	-124651	-3.884583E-7	NaN
554	1.000000	0.698824	7.37047e+06	-49389.1	1005.82	-29759.2	0.000000	0.000000	6.699003	-0.059014	NaN	0.000000	0.001639	0.001749	28.0801	0.021533	0.001926	11.182	62.1126	-168.191	-0.078579	0.697502	-0.388773	-0.390095	-0.059014	11.182	-0.384814	-81082.4	7.278326E-7	NaN
554	1.000000	0.706853	7.37047e+06	-49389.1	1005.82	-29759.2	0.000000	0.000000	6.707033	-0.019156	NaN	0.000000	0.001640	0.001719	28.08	0.098769	0.001939	50.9443	53.3681	-167.446	0.027043	0.705573	-0.380744	-0.382024	-0.019156	50.9443	-0.380462	-70228.5	2.727672E-7	NaN
554	1.000000	0.714818	7.37047e+06	-49389.1	1005.82	-29759.2	0.000000	0.000000	6.714999	-0.012985	NaN	0.000000	0.001617	0.001753	28.08	0.046824	0.001975	23.7087	165.983	-166.122	-0.003344	0.713532	-0.372779	-0.374065	-0.012985	23.7087	-0.372368	-53729.8	2.416698E-7	NaN
554	1.000000	0.722854	7.37047e+06	-49389.1	1005.82	-29759.2	0.000000	0.000000	6.723034	-0.011621	NaN	0.000000	0.001661	0.001749	28.0802	0.043153	0.001927	22.3961	-66.0605	-163.646	-0.031773	0.721556	-0.364743	-0.366041	-0.011621	22.3961	-0.364354	-41184.1	2.821682E-7	NaN
554	1.000000	0.730851	7.37047e+06	-49389.1	1005.82	-29759.2	0.000000	0.000000	6.731031	-0.015712	NaN	0.000000	0.001636	0.001736	28.0799	0.169669	0.002007	84.5595	81.391	-164.058	-0.013119	0.729526	-0.356746	-0.358071	-0.015712	84.5595	-0.356607	-31824.8	4.937100E-7	NaN
554	1.000000	0.738826	7.37047e+06	-49389.1	1005.82	-29759.2	0.000000	0.000000	6.739006	-0.028732	NaN	0.000000	0.001665	0.001738	28.0799	0.018775	0.001997	9.403262	-1.092321	-168.711	-0.006025	0.737523	-0.348771	-0.350074	-0.028732	9.403262	-0.346479	-22691.8	1.266170E-6	NaN
554	1.000000	0.746839	7.37047e+06	-49389.1	1005.82	-29759.2	0.000000	0.000000	6.747020	-0.002727	NaN	0.000000	0.001652	0.001749	28.0801	0.037057	0.002012	18.4162	54.5777	-167.837	0.029712	0.745552	-0.340758	-0.342045	-0.002727	18.4162	-0.340647	-18662.9	1.461290E-7	NaN
554	1.000000	0.754855	7.37047e+06	-49389.1	1005.82	-29759.2	0.000000	0.000000	6.755039	0.089354	NaN	0.000000	0.001617	0.001672	28.0811	0.050896	0.002070	24.5846	155.946	-166.694	0.076297	0.753515	-0.332742	-0.334082	0.089354	24.5846	-0.335468	-15682.9	-5.697549E-6	NaN
554	1.000000	0.762853	7.37047e+06	-49389.1	1005.82	-29759.2	0.000000	0.000000	6.763035	0.016635	NaN	0.000000	0.001654	0.001720	28.0803	0.023627	0.002024	11.6725	-163.738	-165.231	-0.050706	0.761564	-0.324744	-0.326033	0.016635	11.6725	-0.325813	-11325.7	-1.468806E-6	NaN
554	1.000000	0.770887	7.37047e+06	-49389.1	1005.82	-29759.2	0.000000	0.000000	6.771067	-0.009264	NaN	0.000000	0.001642	0.001708	28.0802	0.179280	0.001939	92.4707	160.607	-164.259	-0.023154	0.769572	-0.316710	-0.318025	-0.009264	92.4707	-0.316635	-8299.83	1.116173E-6	NaN
554	1.000000	0.778855	7.37047e+06	-49389.1	1005.82	-29759.2	0.000000	0.000000	6.779037	0.021073	NaN	0.000000	0.001672	0.001701	28.08	0.044388	0.002017	22.0051	-154.769	-167.685	-0.056849	0.777583	-0.308742	-0.310014	0.021073	22.0051	-0.309460	-6502.21	-3.240956E-6	NaN
554	1.000000	0.786880	7.37047e+06	-49389.1	1005.82	-29759.2	0.000000	0.000000	6.787059	-0.045337	NaN	0.000000	0.001660	0.001713	28.0812	0.075315	0.001947	38.6813	35.4494	-167.543	-0.012126	0.785578	-0.300717	-0.302019	-0.045337	38.6813	-0.299838	-4679.75	9.687907E-6	NaN
554	1.000000	0.794898	7.37047e+06	-49389.1	1005.82	-29759.2	0.000000	0.000000	6.795079	0.001922	NaN	0.000000	0.001627	0.001730	28.0814	0.026377	0.001988	13.2671	54.947	-165.287	-0.072027	0.793584	-0.292699	-0.294013	0.001922	13.2671	-0.292808	-3675.59	-5.229063E-7	NaN
554	1.000000	0.802900	7.37047e+06	-49389.1	1005.82	-29759.2	0.000000	0.000000	6.803079	-0.049120	NaN	0.000000	0.001653	0.001721	28.0813	0.047201	0.002060	22.9143	26.1774	-167.211	-0.076307	0.801557	-0.284697	-0.286040	-0.049120	22.9143	-0.283090	-2627.41	1.869533E-5	NaN
554	1.000000	0.810897	7.37047e+06	-49389.1	1005.82	-29759.2	0.000000	0.000000	6.811078	-0.003253	NaN	0.000000	0.001690	0.001721	28.0814	0.000993	0.001959	0.506972	-149.615	-166.67	0.015653	0.809602	-0.276700	-0.277995	-0.003253	0.506972	-0.271887	-1779.16	1.828460E-6	NaN
554	1.000000	0.818898	7.37047e+06	-49389.1	1005.82	-29759.2	0.000000	0.000000	6.819081	0.052221	NaN	0.000000	0.001635	0.001713	28.0814	0.065708	0.001883	34.8874	9.679349	-167.027	-0.017946	0.817582	-0.268699	-0.270015	0.052221	34.8874	-0.269821	-1655.11	-3.155147E-5	NaN
554	1.000000	0.826899	7.37047e+06	-49389.1	1005.82	-29759.2	0.000000	0.000000	6.827082	0.046170	NaN	0.000000	0.001628	0.001754	28.0814	0.054830	0.002073	26.4507	-62.403	-171.132	0.023606	0.825593	-0.260698	-0.262004	0.046170	26.4507	-0.262007	-1257.91	-3.670411E-5	NaN
554	1.000000	0.834901	7.37047e+06	-49389.1	1005.82	-29759.2	0.000000	0.000000	6.835081	-0.022449	NaN	0.000000	0.001571	0.001737	28.0813	0.063977	0.002068	30.9403	90.0926	-166.2	0.093772	0.833636	-0.252696	-0.253961	-0.022449	30.9403	-0.252152	-887.587	2.529232E-5	NaN
554	1.000000	0.842886	7.37047e+06	-49389.1	1005.82	-29759.2	0.000000	0.000000	6.843069	0.040175	NaN	0.000000	0.001603	0.001748	28.0812	0.058821	0.002070	28.4201	119.134	-166.024	-0.021861	0.841591	-0.244711	-0.246005	0.040175	28.4201	-0.245771	-707.014	-5.682356E-5	NaN
554	1.000000	0.850892	7.37047e+06	-49389.1	1005.82	-29759.2	0.000000	0.000000	6.851070	-0.059586	NaN	0.000000	0.001605	0.001733	28.0813	0.122682	0.002008	61.0846	157.188	-167.092	-0.025890	0.849622	-0.236705	-0.237975	-0.059586	61.0846	-0.235973	-497.191	0.000120	NaN
554	1.000000	0.858903	7.37047e+06	-49389.1	1005.82	-29759.2	0.000000	0.000000	6.859084	0.004369	NaN	0.000000	0.001607	0.001720	28.0811	0.062910	0.001902	33.0781	-23.7237	-169.754	-0.030663	0.857638	-0.228694	-0.229959	0.004369	33.0781	-0.228793	-383.213	-1.140095E-5	NaN
554	1.000000	0.866871	7.37047e+06	-49389.1	1005.82	-29759.2	0.000000	0.000000	6.867052	-0.005333	NaN	0.000000	0.001597	0.001735	28.0814	0.032176	0.001926	16.7083	-133.011	-166.815	-0.071378	0.865599	-0.220726	-0.221998	-0.005333	16.7083	-0.220486	-282.78	1.885964E-5	NaN
554	1.000000	0.874891	7.37047e+06	-49389.1	1005.82	-29759.2	0.000000	0.000000	6.875073	0.039573	NaN	0.000000	0.001569	0.001722	28.0812	0.056236	0.001975	28.473	-43.4702	-165.178	-0.046708	0.873614	-0.212706	-0.213983	0.039573	28.473	-0.213748	-220.478	-0.000179	NaN
554	1.000000	0.882914	7.37047e+06	-49389.1	1005.82	-29759.2	0.000000	0.000000	6.883095	0.012695	NaN	0.000000	0.001650	0.001687	28.0811	0.034215	0.001911	17.8995	-0.405185	-166.679	-0.006831	0.881632	-0.204683	-0.205965	0.012695	17.8995	-0.205215	-160.349	-7.916969E-5	NaN
554	1.000000	0.890908	7.37047e+06	-49389.1	1005.82	-29759.2	0.000000	0.000000	6.891087	-0.033026	NaN	0.000000	0.001672	0.001747	28.0811	0.081178	0.001985	40.9054	-119.3	-166.326	-0.007698	0.889591	-0.196689	-0.198006	-0.033026	40.9054	-0.196084	-113.538	0.000291	NaN
554	1.000000	0.898930	7.37047e+06	-49389.1	1005.82	-29759.2	0.000000	0.000000	6.899113	0.056089	NaN	0.000000	0.001666	0.001688	28.0811	0.111026	0.001906	58.258	-148.622	-165.917	0.035370	0.897596	-0.188667	-0.190001	0.056089	58.258	-0.189389	-87.8655	-0.000638	NaN
554	1.000000	0.906917	7.37047e+06	-49389.1	1005.82	-29759.2	0.000000	0.000000	6.907100	0.043945	NaN	0.000000	0.001653	0.001694	28.0812	0.054401	0.002072	26.2558	-100.82	-167.669	-0.015490	0.905640	-0.180680	-0.181957	0.043945	26.2558	-0.181935	-65.8153	-0.000668	NaN
554	1.000000	0.914918	7.37047e+06	-49389.1	1005.82	-29759.2	0.000000	0.000000	6.915100	0.007234	NaN	0.000000	0.001661	0.001705	28.0812	0.069497	0.001981	35.0862	-157.058	-164.005	0.010316	0.913617	-0.172678	-0.173979	0.007234	35.0862	-0.172833	-45.9899	-0.000157	NaN
554	1.000000	0.922932	7.37047e+06	-49389.1	1005.82	-29759.2	0.000000	0.000000	6.923113	0.001223	NaN	0.000000	0.001687	0.001736	28.0801	0.022786	0.002047	11.1318	-115.582	-166.242	-0.062426	0.921621	-0.164665	-0.165976	0.001223	11.1318	-0.164748	-33.2562	-3.676268E-5	NaN
554	1.000000	0.930950	7.37047e+06	-49389.1	1005.82	-29759.2	0.000000	0.000000	6.931130	-0.032825	NaN	0.000000	0.001691	0.001715	28.0799	0.098397	0.002078	47.3608	70.6511	-168.424	0.019934	0.929610	-0.156647	-0.157987	-0.032825	47.3608	-0.156127	-23.3791	0.001404	NaN
554	1.000000	0.938963	7.37047e+06	-49389.1	1005.82	-29759.2	0.000000	0.000000	6.939146	0.040824	NaN	0.000000	0.001701	0.001692	28.08	0.034876	0.002024	17.2306	-134.86	-163.768	0.113887	0.937580	-0.148634	-0.150017	0.040824	17.2306	-0.150411	-18.4284	-0.002215	NaN
554	1.000000	0.946958	7.37047e+06	-49389.1	1005.82	-29759.2	0.000000	0.000000	6.947143	0.103149	NaN	0.000000	0.001672	0.001694	28.0799	0.075594	0.002088	36.2005	20.2662	-171.037	0.056293	0.945653	-0.140639	-0.141943	0.103149	36.2005	-0.142776	-13.3316	-0.007737	NaN
554	1.000000	0.954948	7.37047e+06	-49389.1	1005.82	-29759.2	0.000000	0.000000	6.955130	0.035558	NaN	0.000000	0.001703	0.001698	28.0802	0.148133	0.001995	74.2414	-17.9036	-166.938	-0.018774	0.953608	-0.132649	-0.133989	0.035558	74.2414	-0.133008	-8.712395	-0.004081	NaN
554	1.000000	0.962966	7.37047e+06	-49389.1	1005.82	-29759.2	0.000000	0.000000	6.963150	0.058986	NaN	0.000000	0.001713	0.001692	28.0801	0.072574	0.001913	37.9378	-89.2396	-168.389	-0.015675	0.961658	-0.124630	-0.125939	0.058986	37.9378	-0.125797	-6.305684	-0.009354	NaN
554	1.000000	0.970956	7.37047e+06	-49389.1	1005.82	-29759.2	0.000000	0.000000	6.971136	-0.029080	NaN	0.000000	0.001686	0.001707	28.08	0.082775	0.001955	42.346	-117.75	-165.877	-0.063877	0.969622	-0.116641	-0.117975	-0.029080	42.346	-0.116126	-4.029580	0.007217	NaN
554	1.000000	0.978951	7.37047e+06	-49389.1	1005.82	-29759.2	0.000000	0.000000	6.979135	0.064263	NaN	0.000000	0.001651	0.001698	28.0801	0.076663	0.002092	36.6425	-59.6329	-166.105	0.085143	0.977632	-0.108646	-0.109965	0.064263	36.6425	-0.109961	-2.999515	-0.021424	NaN
554	1.000000	0.986958	7.37047e+06	-49389.1	1005.82	-29759.2	0.000000	0.000000	6.987139	-0.006915	NaN	0.000000	0.001635	0.001707	28.0798	0.008494	0.001935	4.389863	107.666	-168.496	0.040151	0.985641	-0.100638	-0.101956	-0.006915	4.389863	-0.099457	-1.777136	0.003891	NaN
554	1.000000	0.994955	7.37047e+06	-49389.1	1005.82	-29759.2	0.000000	0.000000	6.995134	-0.055014	NaN	0.000000	0.001599	0.001690	28.08	0.082626	0.002090	39.5249	-106.268	-167.923	-0.018134	0.993631	-0.092642	-0.093966	-0.055014	39.5249	-0.091598	-1.177944	0.046703	NaN
554	1.000000	1.002931	7.37047e+06	-49389.1	1005.82	-29759.2	0.000000	0.000000	7.003113	0.018675	NaN	0.000000	0.001646	0.001681	28.0798	0.028985	0.002076	13.9594	-77.647	-162.795	-0.040266	1.001626	-0.084666	-0.085971	0.018675	13.9594	-0.085669	-0.852796	-0.021899	NaN
554	1.000000	1.010976	7.37047e+06	-49389.1	1005.82	-29759.2	0.000000	0.000000	7.011154	-0.072942	NaN	0.000000	0.001593	0.001695	28.08	0.055132	0.002047	26.9333	-137.42	-168.6	-0.088865	1.009633	-0.076621	-0.077964	-0.072942	26.9333	-0.074590	-0.450712	0.161838	NaN
554	1.000000	1.018961	7.37047e+06	-49389.1	1005.82	-29759.2	0.000000	0.000000	7.019140	-0.047401	NaN	0.000000	0.001608	0.001685	28.0799	0.142977	0.001998	71.5449	50.9195	-168.712	-0.049078	1.017706	-0.068636	-0.069891	-0.047401	71.5449	-0.068139	-0.303892	0.155981	NaN
554	1.000000	1.026975	7.37047e+06	-49389.1	1005.82	-29759.2	0.000000	0.000000	7.027156	-0.000607	NaN	0.000000	0.001622	0.001716	28.0799	0.074824	0.002044	36.5992	168.544	-163.865	0.030941	1.025648	-0.060622	-0.061949	-0.000607	36.5992	-0.060609	-0.187474	0.003240	NaN
554	1.000000	1.034981	7.37047e+06	-49389.1	1005.82	-29759.2	0.000000	0.000000	7.035163	0.025185	NaN	0.000000	0.001653	0.001685	28.0803	0.138058	0.001968	70.1643	89.0583	-165.954	0.039640	1.033637	-0.052616	-0.053960	0.025185	70.1643	-0.052885	-0.111427	-0.226020	NaN
554	1.000000	1.042979	7.37047e+06	-49389.1	1005.82	-29759.2	0.000000	0.000000	7.043158	-0.056926	NaN	0.000000	0.001631	0.001694	28.0798	0.061160	0.002019	30.285	-105.085	-167.435	0.037932	1.041698	-0.044618	-0.045899	-0.056926	30.285	-0.043208	-0.056648	1.004915	NaN
554	1.000000	1.050972	7.37047e+06	-49389.1	1005.82	-29759.2	0.000000	0.000000	7.051152	-0.018015	NaN	0.000000	0.001650	0.001622	28.0799	0.089182	0.002057	43.3469	-28.9277	-167.505	0.030641	1.049701	-0.036625	-0.037896	-0.018015	43.3469	-0.036313	-0.035025	0.514345	NaN
554	1.000000	1.059003	7.37047e+06	-49389.1	1005.82	-29759.2	0.000000	0.000000	7.059184	-0.011425	NaN	0.000000	0.001628	0.001666	28.081	0.030515	0.002047	14.9051	-56.3442	-165.744	0.052801	1.057685	-0.028594	-0.029912	-0.011425	14.9051	-0.028019	-0.020299	0.562831	NaN
554	1.000000	1.066968	7.37047e+06	-49389.1	1005.82	-29759.2	0.000000	0.000000	7.067148	-0.011042	NaN	0.000000	0.001649	0.001657	28.0811	0.078376	0.001878	41.7427	88.4237	-166.676	-0.087589	1.065663	-0.020629	-0.021933	-0.011042	41.7427	-0.020431	-0.012882	0.857199	NaN
554	1.000000	1.074999	7.37047e+06	-49389.1	1005.82	-29759.2	0.000000	0.000000	7.075180	0.002504	NaN	0.000000	0.001657	0.001626	28.0813	0.071846	0.002017	35.6179	-25.6753	-165.076	0.000910	1.073675	-0.012598	-0.013922	0.002504	35.6179	-0.012650	-0.007901	-0.316955	NaN
554	1.000000	1.082995	7.37047e+06	-49389.1	1005.82	-29759.2	0.000000	0.000000	7.083186	0.240861	NaN	0.000000	0.001635	0.001643	28.081	0.420903	0.001862	226.029	20.1889	-172.335	0.026749	1.081631	-0.004602	-0.005966	0.240861	226.029	-0.005401	-0.003667	-65.6769	NaN
554	1.000000	1.090908	7.37047e+06	-49389.1	1005.82	-29759.2	0.000000	0.000000	7.091400	7.556497	NaN	0.000000	0.001595	0.001701	28.081	7.414241	0.001711	4334.16	7.206124	-169.222	6.109757	1.089681	0.003311	0.002084	7.556497	4334.16	0.002004	0.001558	4850.39	100324
554	2.000000	1.093638	7.37047e+06	-49389.1	1005.82	-29759.2	0.000000	0.000000	7.094283	11.2799	NaN	0.000000	0.001607	0.001684	28.0809	10.6464	0.001540	6912.99	6.392133	-176.746	10.9343	1.093332	0.006041	0.005735	11.2799	6912.99	0.004817	0.003967	2843.31	100277
554	2.000000	1.095652	7.37047e+06	-49389.1	1005.82	-29759.2	0.000000	0.000000	7.096422	14.3186	NaN	0.000000	0.001606	0.001680	28.0812	12.5454	0.001729	7255.58	7.936336	-175.783	14.1044	1.095323	0.008055	0.007726	14.3186	7255.58	0.006575	0.005617	2549.1	88448.1
554	2.000000	1.097600	7.37047e+06	-49389.1	1005.82	-29759.2	0.000000	0.000000	7.098474	16.8641	NaN	0.000000	0.001610	0.001670	28.0811	14.593	0.001738	8397.65	6.170889	-177.108	15.8334	1.097315	0.010003	0.009718	16.8641	8397.65	0.008497	0.007558	2231.25	88251.7
554	2.000000	1.099618	7.37047e+06	-49389.1	1005.82	-29759.2	0.000000	0.000000	7.100714	22.2627	NaN	0.000000	0.001598	0.001684	28.0811	17.0017	0.001737	9786.73	6.910214	-176.032	23.4544	1.099250	0.012021	0.011653	22.2627	9786.73	0.010315	0.009533	2335.22	91576.9
554	2.000000	1.101569	7.37047e+06	-49389.1	1005.82	-29759.2	0.000000	0.000000	7.102819	26.0214	NaN	0.000000	0.001610	0.001659	28.0814	18.6743	0.001785	10462.8	8.495872	179.374	25.7223	1.101236	0.013972	0.013639	26.0214	10462.8	0.012106	0.011618	2239.82	88687.2
554	2.000000	1.103563	7.37047e+06	-49389.1	1005.82	-29759.2	0.000000	0.000000	7.104923	28.663	NaN	0.000000	0.001598	0.001680	28.0811	20.8075	0.001849	11255.3	6.090272	-178.46	27.9665	1.103257	0.015966	0.015660	28.663	11255.3	0.014056	0.014048	2040.43	86761.9
554	2.000000	1.105545	7.37047e+06	-49389.1	1005.82	-29759.2	0.000000	0.000000	7.107187	35.5209	NaN	0.000000	0.001625	0.001671	28.0815	22.3889	0.001871	11963.1	2.302195	-174.433	34.1536	1.105272	0.017948	0.017675	35.5209	11963.1	0.015721	0.016259	2184.64	85716.4
554	2.000000	1.107537	7.37047e+06	-49389.1	1005.82	-29759.2	0.000000	0.000000	7.109297	38.3939	NaN	0.000000	0.001609	0.001640	28.0813	24.5154	0.001808	13561.1	5.859092	179.825	37.04	1.107274	0.019940	0.019677	38.3939	13561.1	0.017817	0.019227	1996.88	89353.9
554	2.000000	1.109581	7.37047e+06	-49389.1	1005.82	-29759.2	0.000000	0.000000	7.111579	44.1819	NaN	0.000000	0.001627	0.001659	28.0811	26.1453	0.001739	15038.6	4.865808	-179.421	44.9403	1.109194	0.021984	0.021597	44.1819	15038.6	0.019781	0.022199	1990.28	92218.3
554	2.000000	1.111540	7.37047e+06	-49389.1	1005.82	-29759.2	0.000000	0.000000	7.113861	52.0661	NaN	0.000000	0.001601	0.001693	28.0817	27.1872	0.001736	15660.8	3.190945	-177.444	51.2814	1.111179	0.023943	0.023582	52.0661	15660.8	0.021449	0.024871	2093.47	90728.1
554	2.000000	1.113587	7.37047e+06	-49389.1	1005.82	-29759.2	0.000000	0.000000	7.116036	55.1572	NaN	0.000000	0.001646	0.001739	28.0811	29.6206	0.001764	16788.7	6.243216	178.718	55.911	1.113169	0.025990	0.025572	55.1572	16788.7	0.023526	0.028389	1942.91	91036.7
554	2.000000	1.115552	7.37047e+06	-49389.1	1005.82	-29759.2	0.000000	0.000000	7.118299	62.4054	NaN	0.000000	0.001626	0.001713	28.0818	31.379	0.001608	19518.9	5.862532	176.758	60.6622	1.115190	0.027955	0.027593	62.4054	19518.9	0.025557	0.032037	1947.93	99633.2
554	2.000000	1.117491	7.37047e+06	-49389.1	1005.82	-29759.2	0.000000	0.000000	7.120422	66.8757	NaN	0.000000	0.001627	0.001722	28.08	32.9249	0.001762	18683.1	3.858761	179.603	65.582	1.117140	0.029894	0.029543	66.8757	18683.1	0.027210	0.035158	1902.13	91034.7
554	2.000000	1.119472	7.37047e+06	-49389.1	1005.82	-29759.2	0.000000	0.000000	7.122604	71.7801	NaN	0.000000	0.001634	0.001692	28.0799	35.742	0.001837	19454.6	5.237806	178.226	69.6289	1.119259	0.031875	0.031662	71.7801	19454.6	0.029108	0.038914	1844.57	90103.1
554	2.000000	1.121541	7.37047e+06	-49389.1	1005.82	-29759.2	0.000000	0.000000	7.125083	81.7319	NaN	0.000000	0.001609	0.001660	28.0799	36.8708	0.001742	21169.3	5.940888	176.039	82.4421	1.121201	0.033944	0.033604	81.7319	21169.3	0.031049	0.042946	1903.15	93329.9
554	2.000000	1.123540	7.37047e+06	-49389.1	1005.82	-29759.2	0.000000	0.000000	7.127411	89.7534	NaN	0.000000	0.001604	0.001697	28.0801	38.8185	0.001623	23920.6	2.808971	178.616	89.7288	1.123150	0.035943	0.035553	89.7534	23920.6	0.033129	0.047478	1890.41	100299
554	2.000000	1.125569	7.37047e+06	-49389.1	1005.82	-29759.2	0.000000	0.000000	7.129733	96.8841	NaN	0.000000	0.001604	0.001674	28.0805	41.036	0.001778	23085.3	5.030205	177.866	98.0567	1.125134	0.037972	0.037537	96.8841	23085.3	0.034824	0.051337	1887.21	93087.8
554	2.000000	1.127508	7.37047e+06	-49389.1	1005.82	-29759.2	0.000000	0.000000	7.131929	103.127	NaN	0.000000	0.001614	0.001661	28.0798	43.2253	0.001885	22933	5.022138	176.594	102.251	1.127240	0.039911	0.039643	103.127	22933	0.036538	0.055388	1861.9	89027.9
554	2.000000	1.129466	7.37047e+06	-49389.1	1005.82	-29759.2	0.000000	0.000000	7.134416	115.983	NaN	0.000000	0.001639	0.001662	28.0798	45.0231	0.001726	26082.7	5.256014	175.001	113.72	1.129139	0.041869	0.041542	115.983	26082.7	0.038534	0.060294	1923.61	97048.2
554	2.000000	1.131480	7.37047e+06	-49389.1	1005.82	-29759.2	0.000000	0.000000	7.136696	122.457	NaN	0.000000	0.001632	0.001660	28.0797	46.0886	0.001786	25805.6	2.811848	177.648	119.751	1.131112	0.043883	0.043515	122.457	25805.6	0.040324	0.064867	1887.8	92570.8
554	2.000000	1.133457	7.37047e+06	-49389.1	1005.82	-29759.2	0.000000	0.000000	7.139077	132.287	NaN	0.000000	0.001602	0.001690	28.0797	48.9888	0.001848	26510.1	6.577102	173.938	130.193	1.133101	0.045860	0.045504	132.287	26510.1	0.042118	0.069615	1900.26	91797.9
554	2.000000	1.135481	7.37047e+06	-49389.1	1005.82	-29759.2	0.000000	0.000000	7.141373	138.877	NaN	0.000000	0.001589	0.001637	28.0803	50.9639	0.001810	28151.8	7.734970	171.761	136.947	1.135210	0.047884	0.047613	138.877	28151.8	0.044185	0.075289	1844.59	93737.5
554	2.000000	1.137389	7.37047e+06	-49389.1	1005.82	-29759.2	0.000000	0.000000	7.143612	146.956	NaN	0.000000	0.001648	0.001662	28.0799	51.5537	0.001748	29491.6	5.726294	173.265	142.948	1.137175	0.049792	0.049578	146.956	29491.6	0.046055	0.080609	1823.06	94902.9
554	2.000000	1.139480	7.37047e+06	-49389.1	1005.82	-29759.2	0.000000	0.000000	7.145974	153.55	NaN	0.000000	0.001597	0.001620	28.0802	54.9557	0.001714	32058.4	7.072319	170.717	151.109	1.139194	0.051883	0.051598	153.55	32058.4	0.048290	0.087202	1760.85	99186.3
554	2.000000	1.141468	7.37047e+06	-49389.1	1005.82	-29759.2	0.000000	0.000000	7.148295	161.654	NaN	0.000000	0.001630	0.001655	28.0798	55.0233	0.001768	31129.7	5.067417	173.332	158.78	1.141121	0.053871	0.053524	161.654	31129.7	0.049976	0.092339	1750.66	93595.6
554	2.000000	1.143454	7.37047e+06	-49389.1	1005.82	-29759.2	0.000000	0.000000	7.150885	176.324	NaN	0.000000	0.001623	0.001654	28.0797	57.4882	0.001772	32439.5	4.248577	175.056	173.36	1.143137	0.055857	0.055540	176.324	32439.5	0.051780	0.097995	1799.31	94677
554	2.000000	1.145491	7.37047e+06	-49389.1	1005.82	-29759.2	0.000000	0.000000	7.153477	189.82	NaN	0.000000	0.001634	0.001632	28.08	59.1689	0.001691	34984.7	3.819610	174.18	188.225	1.145151	0.057894	0.057554	189.82	34984.7	0.053824	0.104600	1814.73	98829.4
554	2.000000	1.147449	7.37047e+06	-49389.1	1005.82	-29759.2	0.000000	0.000000	7.155729	196.963	NaN	0.000000	0.001628	0.001622	28.0797	60.6054	0.001697	35707.7	3.171244	174.282	195.259	1.147206	0.059852	0.059609	196.963	35707.7	0.055715	0.110894	1776.14	97967.3
554	2.000000	1.149469	7.37047e+06	-49389.1	1005.82	-29759.2	0.000000	0.000000	7.158184	207.554	NaN	0.000000	0.001598	0.001686	28.0801	61.9678	0.001645	37674.4	1.377987	175.837	206.763	1.149212	0.061872	0.061615	207.554	37674.4	0.057740	0.117830	1761.48	100275
554	2.000000	1.151500	7.37047e+06	-49389.1	1005.82	-29759.2	0.000000	0.000000	7.160744	220.425	NaN	0.000000	0.001623	0.001600	28.0809	63.481	0.001818	34921.6	2.081336	176.162	218.48	1.151168	0.063903	0.063572	220.425	34921.6	0.059169	0.122844	1794.34	91031
554	2.000000	1.153431	7.37047e+06	-49389.1	1005.82	-29759.2	0.000000	0.000000	7.163095	230.643	NaN	0.000000	0.001615	0.001639	28.0811	66.5288	0.001928	34498.5	8.223924	170.877	228.022	1.153040	0.065834	0.065443	230.643	34498.5	0.060819	0.128763	1791.23	87837
554	2.000000	1.155505	7.37047e+06	-49389.1	1005.82	-29759.2	0.000000	0.000000	7.165756	244.907	NaN	0.000000	0.001577	0.001632	28.0811	67.4823	0.001655	40763.7	6.340030	171.934	244.311	1.155062	0.067908	0.067465	244.907	40763.7	0.063402	0.138289	1770.98	100150
554	2.000000	1.157429	7.37047e+06	-49389.1	1005.82	-29759.2	0.000000	0.000000	7.168088	254.829	NaN	0.000000	0.001630	0.001713	28.0811	69.8021	0.001815	38448.7	7.396085	170.987	252.386	1.157027	0.069832	0.069430	254.829	38448.7	0.064861	0.143814	1771.93	92630.5
554	2.000000	1.159411	7.37047e+06	-49389.1	1005.82	-29759.2	0.000000	0.000000	7.170609	267.928	NaN	0.000000	0.001621	0.001682	28.0809	72.0494	0.001769	40720.4	3.721403	173.406	264.821	1.159189	0.071814	0.071592	267.928	40720.4	0.066879	0.151626	1767.04	95543
554	2.000000	1.161406	7.37047e+06	-49389.1	1005.82	-29759.2	0.000000	0.000000	7.173272	284.195	NaN	0.000000	0.001565	0.001736	28.0813	73.296	0.001757	41721.6	7.026359	169.349	280.832	1.161078	0.073809	0.073481	284.195	41721.6	0.068700	0.158839	1789.2	95643.5
554	2.000000	1.163522	7.37047e+06	-49389.1	1005.82	-29759.2	0.000000	0.000000	7.175609	289.546	NaN	0.000000	0.001633	0.001712	28.081	75.6472	0.001842	41062.1	4.448299	172.497	292.883	1.163123	0.075925	0.075526	289.546	41062.1	0.070637	0.166688	1737.05	91888.7
554	2.000000	1.165435	7.37047e+06	-49389.1	1005.82	-29759.2	0.000000	0.000000	7.178426	311.532	NaN	0.000000	0.001608	0.001658	28.0811	76.6396	0.001654	46329.6	3.366374	172.943	308.613	1.165089	0.077838	0.077492	311.532	46329.6	0.072795	0.175643	1773.67	100999
554	2.000000	1.167431	7.37047e+06	-49389.1	1005.82	-29759.2	0.000000	0.000000	7.180769	319.979	NaN	0.000000	0.001603	0.001691	28.0809	78.6474	0.001758	44724.5	5.886769	170.252	317.212	1.167151	0.079834	0.079554	319.979	44724.5	0.074468	0.182739	1751.02	95588.1
554	2.000000	1.169498	7.37047e+06	-49389.1	1005.82	-29759.2	0.000000	0.000000	7.183456	335.058	NaN	0.000000	0.001568	0.001682	28.0809	81.5009	0.001824	44672.7	7.061718	169.429	334.751	1.169184	0.081901	0.081587	335.058	44672.7	0.076276	0.190552	1758.36	93499.5
554	2.000000	1.171455	7.37047e+06	-49389.1	1005.82	-29759.2	0.000000	0.000000	7.186164	353.317	NaN	0.000000	0.001579	0.001696	28.0809	81.5192	0.001798	45337.5	3.291606	173.346	351.714	1.171063	0.083858	0.083466	353.317	45337.5	0.078013	0.198203	1782.6	93041.1
554	2.000000	1.173482	7.37047e+06	-49389.1	1005.82	-29759.2	0.000000	0.000000	7.188425	359.009	NaN	0.000000	0.001596	0.001694	28.0811	83.7094	0.001714	48833.1	0.294497	175.119	358.288	1.173214	0.085885	0.085617	359.009	48833.1	0.080372	0.208818	1719.24	97634.6
554	2.000000	1.175401	7.37047e+06	-49389.1	1005.82	-29759.2	0.000000	0.000000	7.191303	382.348	NaN	0.000000	0.001577	0.001728	28.0812	87.6302	0.001880	46600.6	6.711966	169.657	377.664	1.175136	0.087804	0.087539	382.348	46600.6	0.081650	0.214681	1781.01	91890
554	2.000000	1.177411	7.37047e+06	-49389.1	1005.82	-29759.2	0.000000	0.000000	7.193930	397.338	NaN	0.000000	0.001621	0.001726	28.0812	88.7576	0.001780	49853.7	8.917631	167.355	395.249	1.177033	0.089814	0.089436	397.338	49853.7	0.083837	0.224884	1766.86	96048.6
554	2.000000	1.179521	7.37047e+06	-49389.1	1005.82	-29759.2	0.000000	0.000000	7.196442	407.129	NaN	0.000000	0.001586	0.001715	28.0812	91.4121	0.001696	53893.9	4.261731	170.951	412.845	1.179165	0.091924	0.091568	407.129	53893.9	0.086258	0.236442	1721.9	101263
554	2.000000	1.181459	7.37047e+06	-49389.1	1005.82	-29759.2	0.000000	0.000000	7.199306	429.626	NaN	0.000000	0.001643	0.001716	28.081	91.6794	0.001733	52897.5	5.052924	170.676	429.019	1.181080	0.093862	0.093483	429.626	52897.5	0.087771	0.243797	1762.22	97879.9
554	2.000000	1.183507	7.37047e+06	-49389.1	1005.82	-29759.2	0.000000	0.000000	7.201739	439.014	NaN	0.000000	0.001592	0.001734	28.0809	95.8115	0.001870	51241.4	4.582305	170.678	440.417	1.183130	0.095910	0.095533	439.014	51241.4	0.089484	0.252257	1740.35	93212.3
554	2.000000	1.185483	7.37047e+06	-49389.1	1005.82	-29759.2	0.000000	0.000000	7.204541	459.076	NaN	0.000000	0.001580	0.001712	28.0805	97.0632	0.001811	53592.4	2.254736	173.351	458.255	1.185104	0.097886	0.097507	459.076	53592.4	0.091462	0.262189	1750.94	95624.6
554	2.000000	1.187439	7.37047e+06	-49389.1	1005.82	-29759.2	0.000000	0.000000	7.207157	475.143	NaN	0.000000	0.001571	0.001667	28.0799	98.6957	0.001712	57657.2	5.616892	168.742	474.644	1.187191	0.099842	0.099594	475.143	57657.2	0.093661	0.273443	1737.63	100738
554	2.000000	1.189444	7.37047e+06	-49389.1	1005.82	-29759.2	0.000000	0.000000	7.209485	483.002	NaN	0.000000	0.001581	0.001689	28.0797	102.704	0.001830	56137.8	5.357647	168.868	481.228	1.189250	0.101847	0.101653	483.002	56137.8	0.095394	0.282467	1709.94	96503.9
554	2.000000	1.190410	7.37047e+06	-49389.1	1005.82	-29759.2	0.000000	0.000000	7.211160	500.259	NaN	0.000000	0.001583	0.001688	28.0798	102.867	0.001825	56368.3	3.526571	170.936	500.189	1.190023	0.102813	0.102426	500.259	56368.3	0.096156	0.286482	1746.22	96218.7