File: remote_trans/data/nanoindenter/0828-1/data/Data_2025-08-06,11h17m57s/2025-07-22_16-23-58_1_689.txt
2025-07-22, 16:23:58, 1
Index	Phase	Displacement	Time	Pos X	Pos Y	Pos Z	Rot A	Rot B	Piezo Z	Force A	Force B	Gripper	Voltage A	Voltage B	Temperature	Amplitude force	Amplitude pos	Stiffness	Phase shift	Phase excitation	Force A raw	Displacement raw	HMax	HMax raw	Real Force	Real Stiffness	Contact Depth	Area	Hardness	Reduced Mod.
[#]	[#]	[um]	[s]	[um]	[um]	[um]	[m°]	[m°]	[um]	[uN]	[uN]	[V]	[V]	[V]	[°C]	[uN]	[um]	[N/m]	[°]	[°]	[uN]	[um]	[um]	[um]	[uN]	[N/m]	[um]	[um^2]	[MPa]	[MPa]
689	1.000000	0.002698	7.37179e+06	-42639.1	1005.82	-29781.9	0.000000	0.000000	6.002787	-0.062611	NaN	0.000000	0.001724	0.001742	28.0803	0.111676	0.000955	116.957	139.961	-167.662	-0.081512	0.001404	-1.178033	-1.179327	-0.062611	116.957	-1.177632	-5.509919E+15	1.136324E-17	NaN
689	1.000000	0.012726	7.37179e+06	-42639.1	1005.82	-29781.9	0.000000	0.000000	6.012818	0.000633	NaN	0.000000	0.001764	0.001732	28.0801	0.048189	0.001288	37.4229	176.572	18.7154	0.015267	0.011362	-1.168005	-1.169369	0.000633	37.4229	-1.168018	-4.095643E+15	-1.545134E-19	NaN
689	1.000000	0.022672	7.37179e+06	-42639.1	1005.82	-29781.9	0.000000	0.000000	6.022762	-0.036542	NaN	0.000000	0.001773	0.001733	28.0802	0.055761	0.001697	32.8654	15.8691	-168.902	-0.036717	0.021305	-1.158059	-1.159426	-0.036542	32.8654	-1.157225	-2.935464E+15	1.244852E-17	NaN
689	1.000000	0.032668	7.37179e+06	-42639.1	1005.82	-29781.9	0.000000	0.000000	6.032762	0.065407	NaN	0.000000	0.001790	0.001741	28.0805	0.009236	0.001963	4.703789	-176.254	15.3708	0.066365	0.031320	-1.148063	-1.149411	0.065407	4.703789	-1.158492	-3.052527E+15	-2.142715E-17	NaN
689	1.000000	0.042669	7.37179e+06	-42639.1	1005.82	-29781.9	0.000000	0.000000	6.042762	0.038670	NaN	0.000000	0.001761	0.001741	28.0803	0.103432	0.002128	48.5976	-0.810455	-165.095	0.077993	0.041335	-1.138062	-1.139396	0.038670	48.5976	-1.138659	-1.654813E+15	-2.336803E-17	NaN
689	1.000000	0.052650	7.37179e+06	-42639.1	1005.82	-29781.9	0.000000	0.000000	6.052744	0.054130	NaN	0.000000	0.001729	0.001763	28.0804	0.142954	0.002072	68.9858	-168.967	13.3193	0.035802	0.051293	-1.128081	-1.129438	0.054130	68.9858	-1.128670	-1.215559E+15	-4.453104E-17	NaN
689	1.000000	0.062669	7.37179e+06	-42639.1	1005.82	-29781.9	0.000000	0.000000	6.062760	-0.009427	NaN	0.000000	0.001720	0.001752	28.0815	0.080205	0.002021	39.6814	-151.337	-167.935	0.026013	0.061347	-1.118062	-1.119384	-0.009427	39.6814	-1.117884	-8.711300E+14	1.082126E-17	NaN
689	1.000000	0.072653	7.37179e+06	-42639.1	1005.82	-29781.9	0.000000	0.000000	6.072743	-0.037994	NaN	0.000000	0.001719	0.001705	28.0806	0.012012	0.002062	5.824926	-87.5616	18.6465	-0.007713	0.071321	-1.108078	-1.109410	-0.037994	5.824926	-1.103186	-5.531380E+14	6.868803E-17	NaN
689	1.000000	0.082654	7.37179e+06	-42639.1	1005.82	-29781.9	0.000000	0.000000	6.082745	-0.018684	NaN	0.000000	0.001743	0.001751	28.0804	0.109266	0.001964	55.6344	-26.9304	-165.042	-0.007129	0.081324	-1.098077	-1.099407	-0.018684	55.6344	-1.097825	-4.686728E+14	3.986476E-17	NaN
689	1.000000	0.092673	7.37179e+06	-42639.1	1005.82	-29781.9	0.000000	0.000000	6.092767	0.059014	NaN	0.000000	0.001721	0.001731	28.0808	0.071777	0.001888	38.0154	59.8088	12.4407	0.127611	0.091260	-1.088058	-1.089471	0.059014	38.0154	-1.089223	-3.592300E+14	-1.642794E-16	NaN
689	1.000000	0.102675	7.37179e+06	-42639.1	1005.82	-29781.9	0.000000	0.000000	6.102768	0.029351	NaN	0.000000	0.001755	0.001745	28.0819	0.085776	0.001985	43.2086	20.9325	-167.778	-0.005745	0.101371	-1.078056	-1.079360	0.029351	43.2086	-1.078566	-2.583768E+14	-1.135972E-16	NaN
689	1.000000	0.112710	7.37179e+06	-42639.1	1005.82	-29781.9	0.000000	0.000000	6.112802	-0.006156	NaN	0.000000	0.001736	0.001756	28.0816	0.065467	0.002094	31.2677	167.532	13.4314	-0.023890	0.111337	-1.068021	-1.069394	-0.006156	31.2677	-1.067873	-1.856141E+14	3.316458E-17	NaN
689	1.000000	0.122663	7.37179e+06	-42639.1	1005.82	-29781.9	0.000000	0.000000	6.122756	0.041317	NaN	0.000000	0.001730	0.001770	28.0818	0.008471	0.001969	4.301541	-119.764	-165.794	0.023992	0.121350	-1.058068	-1.059381	0.041317	4.301541	-1.065272	-1.712635E+14	-2.412489E-16	NaN
689	1.000000	0.132684	7.37179e+06	-42639.1	1005.82	-29781.9	0.000000	0.000000	6.132776	-0.006163	NaN	0.000000	0.001729	0.001760	28.0816	0.004119	0.002054	2.005032	-162.146	10.4502	0.003102	0.131308	-1.048047	-1.049423	-0.006163	2.005032	-1.045741	-9.357526E+13	6.586336E-17	NaN
689	1.000000	0.142690	7.37179e+06	-42639.1	1005.82	-29781.9	0.000000	0.000000	6.142781	-0.011235	NaN	0.000000	0.001744	0.001760	28.0818	0.046456	0.001994	23.2946	-91.2172	-163.622	-0.044802	0.141386	-1.038041	-1.039345	-0.011235	23.2946	-1.037680	-7.290619E+13	1.541035E-16	NaN
689	1.000000	0.152665	7.37179e+06	-42639.1	1005.82	-29781.9	0.000000	0.000000	6.152759	0.057141	NaN	0.000000	0.001709	0.001764	28.0816	0.023343	0.002091	11.1631	-53.3729	13.5001	0.013577	0.151313	-1.028066	-1.029418	0.057141	11.1631	-1.031905	-6.096841E+13	-9.372154E-16	NaN
689	1.000000	0.162709	7.37179e+06	-42639.1	1005.82	-29781.9	0.000000	0.000000	6.162799	-0.025708	NaN	0.000000	0.001717	0.001780	28.0819	0.084927	0.001826	46.5176	-151.64	-168.807	-0.032219	0.161359	-1.018022	-1.019372	-0.025708	46.5176	-1.017608	-3.915267E+13	6.565992E-16	NaN
689	1.000000	0.172706	7.37179e+06	-42639.1	1005.82	-29781.9	0.000000	0.000000	6.172797	-0.009625	NaN	0.000000	0.001739	0.001749	28.0819	0.063306	0.002045	30.9631	139.163	12.1934	-0.001306	0.171360	-1.008025	-1.009371	-0.009625	30.9631	-1.007792	-2.888409E+13	3.332221E-16	NaN
689	1.000000	0.182695	7.37179e+06	-42639.1	1005.82	-29781.9	0.000000	0.000000	6.182784	-0.072185	NaN	0.000000	0.001752	0.001777	28.0817	0.050405	0.001981	25.4432	8.621916	-167.804	-0.102576	0.181384	-0.998036	-0.999347	-0.072185	25.4432	-0.995908	-1.998347E+13	3.612217E-15	NaN
689	1.000000	0.192690	7.37179e+06	-42639.1	1005.82	-29781.9	0.000000	0.000000	6.192779	-0.049024	NaN	0.000000	0.001723	0.001742	28.0818	0.078732	0.001905	41.3201	-84.2596	15.7046	-0.087363	0.191325	-0.988041	-0.989406	-0.049024	41.3201	-0.987152	-1.523170E+13	3.218535E-15	NaN
689	1.000000	0.202678	7.37179e+06	-42639.1	1005.82	-29781.9	0.000000	0.000000	6.202768	-0.029641	NaN	0.000000	0.001766	0.001758	28.0817	0.042216	0.001965	21.4793	-10.5329	-165.156	0.062745	0.201366	-0.978053	-0.979365	-0.029641	21.4793	-0.977018	-1.112330E+13	2.664735E-15	NaN
689	1.000000	0.212705	7.37179e+06	-42639.1	1005.82	-29781.9	0.000000	0.000000	6.212797	-0.001618	NaN	0.000000	0.001729	0.001746	28.082	0.057675	0.001871	30.8336	7.201053	12.4533	0.024035	0.211322	-0.968026	-0.969409	-0.001618	30.8336	-0.967986	-8.404701E+12	1.925355E-16	NaN
689	1.000000	0.222701	7.37179e+06	-42639.1	1005.82	-29781.9	0.000000	0.000000	6.222795	0.044285	NaN	0.000000	0.001732	0.001728	28.0816	0.051522	0.002015	25.572	-125.799	-164.158	0.045567	0.221458	-0.958030	-0.959273	0.044285	25.572	-0.959329	-6.424203E+12	-6.893457E-15	NaN
689	1.000000	0.232723	7.37179e+06	-42639.1	1005.82	-29781.9	0.000000	0.000000	6.232816	0.026105	NaN	0.000000	0.001734	0.001738	28.0805	0.098804	0.001893	52.1863	-84.3642	16.6589	-0.005908	0.231418	-0.948007	-0.949313	0.026105	52.1863	-0.948383	-4.573140E+12	-5.708253E-15	NaN
689	1.000000	0.242723	7.37179e+06	-42639.1	1005.82	-29781.9	0.000000	0.000000	6.242815	0.025323	NaN	0.000000	0.001709	0.001748	28.0805	0.064891	0.002069	31.3617	-40.8179	-165.4	0.064150	0.241390	-0.938008	-0.939341	0.025323	31.3617	-0.938614	-3.376276E+12	-7.500143E-15	NaN
689	1.000000	0.252742	7.37179e+06	-42639.1	1005.82	-29781.9	0.000000	0.000000	6.252834	0.022421	NaN	0.000000	0.001724	0.001723	28.0807	0.041650	0.002126	19.5918	129.884	14.4712	0.098348	0.251404	-0.927989	-0.929327	0.022421	19.5918	-0.928848	-2.492557E+12	-8.995377E-15	NaN
689	1.000000	0.262710	7.37179e+06	-42639.1	1005.82	-29781.9	0.000000	0.000000	6.262806	0.089122	NaN	0.000000	0.001737	0.001753	28.0805	0.067437	0.001991	33.8718	-148.14	-166.433	0.070901	0.261443	-0.918020	-0.919288	0.089122	33.8718	-0.919994	-1.892879E+12	-4.708296E-14	NaN
689	1.000000	0.272736	7.37179e+06	-42639.1	1005.82	-29781.9	0.000000	0.000000	6.272831	0.070482	NaN	0.000000	0.001725	0.001793	28.0805	0.025552	0.002087	12.2408	92.7282	14.377	0.031794	0.271369	-0.907995	-0.909362	0.070482	12.2408	-0.912313	-1.490764E+12	-4.727895E-14	NaN
689	1.000000	0.282770	7.37179e+06	-42639.1	1005.82	-29781.9	0.000000	0.000000	6.282864	0.057917	NaN	0.000000	0.001755	0.001790	28.0805	0.091494	0.002060	44.4218	-127.825	-165.196	0.114721	0.281406	-0.897961	-0.899325	0.057917	44.4218	-0.898939	-9.833924E+11	-5.889545E-14	NaN
689	1.000000	0.292755	7.37179e+06	-42639.1	1005.82	-29781.9	0.000000	0.000000	6.292845	-0.043863	NaN	0.000000	0.001720	0.001773	28.0804	0.049109	0.002099	23.3928	152.049	14.147	-0.002664	0.291389	-0.887976	-0.889342	-0.043863	23.3928	-0.886570	-6.691791E+11	6.554793E-14	NaN
689	1.000000	0.302752	7.37179e+06	-42639.1	1005.82	-29781.9	0.000000	0.000000	6.302844	0.019977	NaN	0.000000	0.001740	0.001772	28.0803	0.078971	0.002064	38.269	-112.176	-167.001	0.028350	0.301472	-0.877979	-0.879259	0.019977	38.269	-0.878370	-5.184069E+11	-3.853531E-14	NaN
689	1.000000	0.312748	7.37179e+06	-42639.1	1005.82	-29781.9	0.000000	0.000000	6.312842	0.060006	NaN	0.000000	0.001730	0.001831	28.0804	0.012315	0.002128	5.786786	-71.4728	11.6943	0.003911	0.311453	-0.867983	-0.869278	0.060006	5.786786	-0.875760	-4.779296E+11	-1.255530E-13	NaN
689	1.000000	0.322788	7.37179e+06	-42639.1	1005.82	-29781.9	0.000000	0.000000	6.322881	0.016247	NaN	0.000000	0.001756	0.001792	28.0806	0.100903	0.001882	53.6231	179.808	-166.596	0.021423	0.321440	-0.857943	-0.859291	0.016247	53.6231	-0.858170	-2.762789E+11	-5.880591E-14	NaN
689	1.000000	0.332770	7.37179e+06	-42639.1	1005.82	-29781.9	0.000000	0.000000	6.332862	-0.000810	NaN	0.000000	0.001729	0.001738	28.0809	0.037699	0.001895	19.89	165.785	12.1625	0.006339	0.331400	-0.847961	-0.849331	-0.000810	19.89	-0.847930	-2.007761E+11	4.032455E-15	NaN
689	1.000000	0.342775	7.37179e+06	-42639.1	1005.82	-29781.9	0.000000	0.000000	6.342865	-0.022058	NaN	0.000000	0.001758	0.001780	28.0804	0.097396	0.001949	49.9676	-115.603	-167.065	0.059060	0.341434	-0.837956	-0.839297	-0.022058	49.9676	-0.837625	-1.455857E+11	1.515101E-13	NaN
689	1.000000	0.352788	7.37179e+06	-42639.1	1005.82	-29781.9	0.000000	0.000000	6.352880	0.003879	NaN	0.000000	0.001712	0.001793	28.0806	0.033054	0.002163	15.2823	-146.257	13.2	-0.079517	0.351435	-0.827943	-0.829296	0.003879	15.2823	-0.828133	-1.082626E+11	-3.582846E-14	NaN
689	1.000000	0.362788	7.37179e+06	-42639.1	1005.82	-29781.9	0.000000	0.000000	6.362880	7.466297E-5	NaN	0.000000	0.001703	0.001804	28.0805	0.113684	0.001814	62.6825	-4.596263	-167.33	-0.049063	0.361543	-0.817943	-0.819188	7.466297E-5	62.6825	-0.817944	-7.876311E+10	-9.479434E-16	NaN
689	1.000000	0.372815	7.37179e+06	-42639.1	1005.82	-29781.9	0.000000	0.000000	6.372906	-0.021727	NaN	0.000000	0.001683	0.001804	28.0819	0.021487	0.001991	10.7898	92.6634	17.1753	-0.030336	0.371431	-0.807916	-0.809300	-0.021727	10.7898	-0.806406	-5.492911E+10	3.955442E-13	NaN
689	1.000000	0.382771	7.37179e+06	-42639.1	1005.82	-29781.9	0.000000	0.000000	6.382863	0.015495	NaN	0.000000	0.001749	0.001786	28.0817	0.053748	0.001949	27.575	169.125	-169.789	0.150018	0.381485	-0.797960	-0.799246	0.015495	27.575	-0.798382	-4.274606E+10	-3.624983E-13	NaN
689	1.000000	0.392799	7.37179e+06	-42639.1	1005.82	-29781.9	0.000000	0.000000	6.392892	0.017882	NaN	0.000000	0.001713	0.001794	28.0819	0.068123	0.002045	33.3068	-12.0289	14.6594	0.007764	0.391447	-0.787932	-0.789284	0.017882	33.3068	-0.788334	-3.122185E+10	-5.727323E-13	NaN
689	1.000000	0.402814	7.37179e+06	-42639.1	1005.82	-29781.9	0.000000	0.000000	6.402905	-0.005523	NaN	0.000000	0.001718	0.001775	28.0816	0.085665	0.001982	43.2197	59.3091	-165.288	-0.010197	0.401479	-0.777917	-0.779252	-0.005523	43.2197	-0.777822	-2.247124E+10	2.457740E-13	NaN
689	1.000000	0.412782	7.37179e+06	-42639.1	1005.82	-29781.9	0.000000	0.000000	6.412875	0.039960	NaN	0.000000	0.001712	0.001779	28.0819	0.016414	0.002036	8.062018	-73.0436	12.7347	0.006271	0.411486	-0.767949	-0.769245	0.039960	8.062018	-0.771667	-1.853375E+10	-2.156063E-12	NaN
689	1.000000	0.422815	7.37179e+06	-42639.1	1005.82	-29781.9	0.000000	0.000000	6.422909	0.057816	NaN	0.000000	0.001729	0.001782	28.0817	0.053852	0.001974	27.2781	-169.815	-166.27	-0.003083	0.421518	-0.757916	-0.759213	0.057816	27.2781	-0.759505	-1.266407E+10	-4.565345E-12	NaN
689	1.000000	0.432845	7.37179e+06	-42639.1	1005.82	-29781.9	0.000000	0.000000	6.432936	-0.007233	NaN	0.000000	0.001746	0.001817	28.082	0.078912	0.001970	40.057	-175.167	16.2972	-0.025404	0.431435	-0.747886	-0.749296	-0.007233	40.057	-0.747751	-8.761907E+9	8.254811E-13	NaN
689	1.000000	0.442790	7.37179e+06	-42639.1	1005.82	-29781.9	0.000000	0.000000	6.442880	-0.030823	NaN	0.000000	0.001732	0.001792	28.0818	0.048821	0.001960	24.9099	-108.023	-164.992	-0.039811	0.441498	-0.737941	-0.739233	-0.030823	24.9099	-0.737013	-6.257033E+9	4.926068E-12	NaN
689	1.000000	0.452874	7.37179e+06	-42639.1	1005.82	-29781.9	0.000000	0.000000	6.452964	-0.034380	NaN	0.000000	0.001714	0.001791	28.082	0.100591	0.002052	49.0185	-163.142	13.5564	0.018194	0.451471	-0.727857	-0.729260	-0.034380	49.0185	-0.727331	-4.617793E+9	7.445131E-12	NaN
689	1.000000	0.462825	7.37179e+06	-42639.1	1005.82	-29781.9	0.000000	0.000000	6.462917	-0.002580	NaN	0.000000	0.001700	0.001790	28.0819	0.066887	0.002028	32.9778	-87.645	-165.954	-0.070730	0.461502	-0.717906	-0.719229	-0.002580	32.9778	-0.717847	-3.428530E+9	7.525768E-13	NaN
689	1.000000	0.472855	7.37179e+06	-42639.1	1005.82	-29781.9	0.000000	0.000000	6.472947	0.013513	NaN	0.000000	0.001707	0.001748	28.0818	0.085521	0.001959	43.6488	14.0075	16.2397	0.076270	0.471508	-0.707876	-0.709223	0.013513	43.6488	-0.708108	-2.524793E+9	-5.352165E-12	NaN
689	1.000000	0.482840	7.37179e+06	-42639.1	1005.82	-29781.9	0.000000	0.000000	6.482935	0.077145	NaN	0.000000	0.001711	0.001789	28.0816	0.068522	0.002029	33.7794	108.092	-166.656	0.072106	0.481518	-0.697891	-0.699213	0.077145	33.7794	-0.699604	-1.932503E+9	-3.991966E-11	NaN
689	1.000000	0.492840	7.37179e+06	-42639.1	1005.82	-29781.9	0.000000	0.000000	6.492932	0.004744	NaN	0.000000	0.001715	0.001831	28.0819	0.091299	0.001888	48.3471	-89.7546	14.6488	-0.002728	0.491491	-0.687891	-0.689240	0.004744	48.3471	-0.687965	-1.339989E+9	-3.540641E-12	NaN
689	1.000000	0.502848	7.37179e+06	-42639.1	1005.82	-29781.9	0.000000	0.000000	6.502940	0.014473	NaN	0.000000	0.001660	0.001815	28.0813	0.029965	0.002003	14.9623	72.1498	-164.721	-0.079377	0.501541	-0.677883	-0.679190	0.014473	14.9623	-0.678609	-9.981070E+8	-1.449996E-11	NaN
689	1.000000	0.512838	7.37179e+06	-42639.1	1005.82	-29781.9	0.000000	0.000000	6.512926	-0.105092	NaN	0.000000	0.001688	0.001781	28.0805	0.033649	0.001887	17.828	69.2094	14.9917	-0.073580	0.511519	-0.667893	-0.669212	-0.105092	17.828	-0.663472	-6.194627E+8	1.696501E-10	NaN
689	1.000000	0.522853	7.37179e+06	-42639.1	1005.82	-29781.9	0.000000	0.000000	6.522946	0.016975	NaN	0.000000	0.001720	0.001829	28.0802	0.036703	0.002006	18.2986	36.6489	-166.492	0.029248	0.521557	-0.657878	-0.659174	0.016975	18.2986	-0.658573	-5.307956E+8	-3.198018E-11	NaN
689	1.000000	0.532848	7.37179e+06	-42639.1	1005.82	-29781.9	0.000000	0.000000	6.532939	-0.012052	NaN	0.000000	0.001670	0.001802	28.0806	0.125417	0.001903	65.8878	-168.269	11.9112	-0.035470	0.531543	-0.647883	-0.649188	-0.012052	65.8878	-0.647746	-3.771621E+8	3.195502E-11	NaN
689	1.000000	0.542866	7.37179e+06	-42639.1	1005.82	-29781.9	0.000000	0.000000	6.542960	0.035280	NaN	0.000000	0.001680	0.001814	28.0804	0.048232	0.001993	24.2047	6.368081	-166.788	-0.023955	0.541556	-0.637864	-0.639175	0.035280	24.2047	-0.638958	-2.857507E+8	-1.234632E-10	NaN
689	1.000000	0.552864	7.37179e+06	-42639.1	1005.82	-29781.9	0.000000	0.000000	6.552957	0.026211	NaN	0.000000	0.001733	0.001817	28.0806	0.039665	0.002137	18.5643	-61.8243	16.0523	0.002598	0.551488	-0.627867	-0.629243	0.026211	18.5643	-0.628926	-2.080990E+8	-1.259558E-10	NaN
689	1.000000	0.562877	7.37179e+06	-42639.1	1005.82	-29781.9	0.000000	0.000000	6.562969	0.007394	NaN	0.000000	0.001685	0.001813	28.0807	0.092506	0.001998	46.3065	-142.218	-165.157	-0.016658	0.561548	-0.617854	-0.619183	0.007394	46.3065	-0.617973	-1.471547E+8	-5.024725E-11	NaN
689	1.000000	0.572869	7.37179e+06	-42639.1	1005.82	-29781.9	0.000000	0.000000	6.572962	0.020002	NaN	0.000000	0.001668	0.001820	28.0808	0.034942	0.001989	17.5686	109.843	14.6244	0.019120	0.571526	-0.607862	-0.609205	0.020002	17.5686	-0.608716	-1.097595E+8	-1.822382E-10	NaN
689	1.000000	0.582894	7.37179e+06	-42639.1	1005.82	-29781.9	0.000000	0.000000	6.582985	-0.018361	NaN	0.000000	0.001697	0.001834	28.0805	0.049001	0.001903	25.7491	-21.9361	-163.725	-0.018381	0.581576	-0.597837	-0.599155	-0.018361	25.7491	-0.597302	-7.643694E+7	2.402097E-10	NaN
689	1.000000	0.592860	7.37179e+06	-42639.1	1005.82	-29781.9	0.000000	0.000000	6.592952	0.015548	NaN	0.000000	0.001689	0.001839	28.0805	0.127749	0.002046	62.4455	140.579	9.000286	0.039320	0.591559	-0.587871	-0.589172	0.015548	62.4455	-0.588058	-5.700218E+7	-2.727535E-10	NaN
689	1.000000	0.602876	7.37179e+06	-42639.1	1005.82	-29781.9	0.000000	0.000000	6.602969	0.017191	NaN	0.000000	0.001719	0.001828	28.0806	0.028434	0.001965	14.4715	66.943	-163.766	0.068331	0.601535	-0.577855	-0.579196	0.017191	14.4715	-0.578746	-4.240436E+7	-4.054114E-10	NaN
689	1.000000	0.612910	7.37179e+06	-42639.1	1005.82	-29781.9	0.000000	0.000000	6.613002	0.024062	NaN	0.000000	0.001702	0.001855	28.0809	0.043032	0.002072	20.7716	179.19	14.7243	0.057886	0.611523	-0.567821	-0.569208	0.024062	20.7716	-0.568690	-3.079856E+7	-7.812541E-10	NaN
689	1.000000	0.622910	7.37179e+06	-42639.1	1005.82	-29781.9	0.000000	0.000000	6.623002	0.008196	NaN	0.000000	0.001697	0.001803	28.0808	0.048754	0.002140	22.7789	71.91	-165.196	0.025708	0.621598	-0.557821	-0.559133	0.008196	22.7789	-0.558091	-2.197668E+7	-3.729593E-10	NaN
689	1.000000	0.632907	7.37179e+06	-42639.1	1005.82	-29781.9	0.000000	0.000000	6.632997	-0.036834	NaN	0.000000	0.001689	0.001837	28.0807	0.081096	0.002118	38.2959	-39.725	14.2504	-0.038033	0.631545	-0.547824	-0.549186	-0.036834	38.2959	-0.547102	-1.548146E+7	2.379265E-9	NaN
689	1.000000	0.642848	7.37179e+06	-42639.1	1005.82	-29781.9	0.000000	0.000000	6.642942	0.043586	NaN	0.000000	0.001689	0.001835	28.0823	0.049719	0.001895	26.2425	-133.745	-165	0.033017	0.641609	-0.537883	-0.539122	0.043586	26.2425	-0.539128	-1.200242E+7	-3.631467E-9	NaN
689	1.000000	0.652922	7.37179e+06	-42639.1	1005.82	-29781.9	0.000000	0.000000	6.653015	0.031235	NaN	0.000000	0.001771	0.001836	28.0819	0.038605	0.002038	18.939	106.138	14.458	0.104456	0.651589	-0.527809	-0.529142	0.031235	18.939	-0.529046	-8.69615e+06	-3.591773E-9	NaN
689	1.000000	0.662927	7.37179e+06	-42639.1	1005.82	-29781.9	0.000000	0.000000	6.663019	0.010335	NaN	0.000000	0.001728	0.001799	28.0819	0.053870	0.002013	26.7589	-85.3786	-165.715	0.058183	0.661614	-0.517804	-0.519117	0.010335	26.7589	-0.518094	-6.12469e+06	-1.687397E-9	NaN
689	1.000000	0.672876	7.37179e+06	-42639.1	1005.82	-29781.9	0.000000	0.000000	6.672970	0.058442	NaN	0.000000	0.001698	0.001797	28.0818	0.103080	0.002011	51.2465	163.23	15.8576	0.071650	0.671539	-0.507855	-0.509192	0.058442	51.2465	-0.508710	-4.53366e+06	-1.289070E-8	NaN
689	1.000000	0.682932	7.37179e+06	-42639.1	1005.82	-29781.9	0.000000	0.000000	6.683024	0.028580	NaN	0.000000	0.001701	0.001802	28.082	0.065023	0.001947	33.3908	80.5498	-160.472	0.073410	0.681582	-0.497799	-0.499149	0.028580	33.3908	-0.498441	-3.2604e+06	-8.765771E-9	NaN
689	1.000000	0.692924	7.37179e+06	-42639.1	1005.82	-29781.9	0.000000	0.000000	6.693017	0.038523	NaN	0.000000	0.001692	0.001792	28.0819	0.144977	0.001939	74.7569	148.121	12.4465	0.070113	0.691560	-0.487807	-0.489171	0.038523	74.7569	-0.488193	-2.34501e+06	-1.642762E-8	NaN
689	1.000000	0.702917	7.37179e+06	-42639.1	1005.82	-29781.9	0.000000	0.000000	6.703010	0.050878	NaN	0.000000	0.001716	0.001814	28.0819	0.104566	0.001933	54.1064	47.2844	-166.906	0.049027	0.701612	-0.477814	-0.479119	0.050878	54.1064	-0.478519	-1.71711e+06	-2.963023E-8	NaN
689	1.000000	0.712933	7.37179e+06	-42639.1	1005.82	-29781.9	0.000000	0.000000	6.713026	0.025674	NaN	0.000000	0.001705	0.001834	28.0818	0.074952	0.002074	36.1328	-163.295	12.0469	-0.008465	0.711566	-0.467798	-0.469165	0.025674	36.1328	-0.468331	-1.23593e+06	-2.077275E-8	NaN
689	1.000000	0.722940	7.37179e+06	-42639.1	1005.82	-29781.9	0.000000	0.000000	6.723034	0.065560	NaN	0.000000	0.001690	0.001818	28.0816	0.084885	0.001871	45.3644	13.0966	-164.437	0.081048	0.721664	-0.457791	-0.459067	0.065560	45.3644	-0.458875	-910347	-7.201639E-8	NaN
689	1.000000	0.732964	7.37179e+06	-42639.1	1005.82	-29781.9	0.000000	0.000000	6.733057	0.031754	NaN	0.000000	0.001687	0.001842	28.0816	0.070798	0.001936	36.5658	-169.133	9.159881	-0.047444	0.731511	-0.447767	-0.449220	0.031754	36.5658	-0.448418	-648732	-4.894758E-8	NaN
689	1.000000	0.742927	7.37179e+06	-42639.1	1005.82	-29781.9	0.000000	0.000000	6.743019	-0.007374	NaN	0.000000	0.001716	0.001773	28.0815	0.072295	0.001992	36.3004	77.0435	-165.27	0.012850	0.741643	-0.437804	-0.439088	-0.007374	36.3004	-0.437651	-457306	1.612522E-8	NaN
689	1.000000	0.752950	7.37179e+06	-42639.1	1005.82	-29781.9	0.000000	0.000000	6.753041	-0.016209	NaN	0.000000	0.001701	0.001756	28.0819	0.112995	0.001914	59.0283	18.6999	15.3839	-0.025422	0.751614	-0.427781	-0.429117	-0.016209	59.0283	-0.427575	-329419	4.920556E-8	NaN
689	1.000000	0.762936	7.37179e+06	-42639.1	1005.82	-29781.9	0.000000	0.000000	6.763031	0.066500	NaN	0.000000	0.001690	0.001747	28.0817	0.133248	0.002010	66.3066	135.933	-166.373	-0.019574	0.761603	-0.417794	-0.419128	0.066500	66.3066	-0.418547	-245357	-2.710332E-7	NaN
689	1.000000	0.772938	7.37179e+06	-42639.1	1005.82	-29781.9	0.000000	0.000000	6.773027	-0.046636	NaN	0.000000	0.001697	0.001771	28.0816	0.076388	0.001994	38.3041	-130.943	15.3374	-0.063700	0.771604	-0.407793	-0.409126	-0.046636	38.3041	-0.406880	-167501	2.784237E-7	NaN
689	1.000000	0.782949	7.37179e+06	-42639.1	1005.82	-29781.9	0.000000	0.000000	6.783042	0.028526	NaN	0.000000	0.001781	0.001763	28.0804	0.096525	0.002091	46.1558	105.338	-165.403	0.033139	0.781595	-0.397782	-0.399136	0.028526	46.1558	-0.398245	-126172	-2.260877E-7	NaN
689	1.000000	0.792951	7.37179e+06	-42639.1	1005.82	-29781.9	0.000000	0.000000	6.793042	-0.024662	NaN	0.000000	0.001771	0.001796	28.0804	0.025528	0.001982	12.8827	70.5241	13.5008	-0.116976	0.791598	-0.387780	-0.389133	-0.024662	12.8827	-0.386344	-85278.6	2.891907E-7	NaN
689	1.000000	0.802960	7.37179e+06	-42639.1	1005.82	-29781.9	0.000000	0.000000	6.803054	0.051605	NaN	0.000000	0.001758	0.001782	28.0802	0.017546	0.001955	8.974854	-148.49	-165.527	0.114164	0.801633	-0.377771	-0.379098	0.051605	8.974854	-0.382083	-74093.2	-6.964885E-7	NaN
689	1.000000	0.812931	7.37179e+06	-42639.1	1005.82	-29781.9	0.000000	0.000000	6.813024	0.033570	NaN	0.000000	0.001777	0.001785	28.0804	0.103122	0.001881	54.8316	133.489	13.7558	0.025606	0.811596	-0.367800	-0.369135	0.033570	54.8316	-0.368259	-46886.1	-7.159921E-7	NaN
689	1.000000	0.822993	7.37179e+06	-42639.1	1005.82	-29781.9	0.000000	0.000000	6.823087	0.057307	NaN	0.000000	0.001738	0.001819	28.0804	0.035869	0.001871	19.1736	65.4147	-166.285	0.103252	0.821675	-0.357738	-0.359056	0.057307	19.1736	-0.359980	-35608.8	-1.609355E-6	NaN
689	1.000000	0.833001	7.37179e+06	-42639.1	1005.82	-29781.9	0.000000	0.000000	6.833094	0.039923	NaN	0.000000	0.001771	0.001811	28.0802	0.020196	0.002097	9.630165	-151.845	12.0065	0.038555	0.831602	-0.347730	-0.349129	0.039923	9.630165	-0.350839	-26253.3	-1.520700E-6	NaN
689	1.000000	0.842993	7.37179e+06	-42639.1	1005.82	-29781.9	0.000000	0.000000	6.843086	0.026023	NaN	0.000000	0.001791	0.001770	28.0803	0.050490	0.002051	24.6138	93.7199	-169.226	0.011818	0.841682	-0.337738	-0.339049	0.026023	24.6138	-0.338531	-17383.2	-1.497047E-6	NaN
689	1.000000	0.852975	7.37179e+06	-42639.1	1005.82	-29781.9	0.000000	0.000000	6.853066	-0.017003	NaN	0.000000	0.001788	0.001776	28.0805	0.021808	0.001966	11.0909	100.166	13.6327	0.080514	0.851677	-0.327756	-0.329054	-0.017003	11.0909	-0.326606	-11633.3	1.461605E-6	NaN
689	1.000000	0.863008	7.37179e+06	-42639.1	1005.82	-29781.9	0.000000	0.000000	6.863099	-0.006371	NaN	0.000000	0.001778	0.001764	28.0805	0.022438	0.001795	12.4979	-90.4385	-168.663	-0.028946	0.861669	-0.317723	-0.319062	-0.006371	12.4979	-0.317341	-8500.97	7.494020E-7	NaN
689	1.000000	0.873007	7.37179e+06	-42639.1	1005.82	-29781.9	0.000000	0.000000	6.873099	0.011989	NaN	0.000000	0.001797	0.001781	28.0804	0.079141	0.001984	39.8809	-28.2114	13.358	0.077910	0.871652	-0.307724	-0.309079	0.011989	39.8809	-0.307950	-6175.84	-1.941295E-6	NaN
689	1.000000	0.883038	7.37179e+06	-42639.1	1005.82	-29781.9	0.000000	0.000000	6.883130	0.016116	NaN	0.000000	0.001714	0.001829	28.0803	0.009014	0.002080	4.332635	150.543	-164.736	-0.007710	0.881647	-0.297693	-0.299084	0.016116	4.332635	-0.300483	-4784.36	-3.368422E-6	NaN
689	1.000000	0.893021	7.37179e+06	-42639.1	1005.82	-29781.9	0.000000	0.000000	6.893113	-0.003946	NaN	0.000000	0.001711	0.001817	28.0805	0.015533	0.002041	7.612088	-57.9733	12.8654	0.017551	0.891638	-0.287710	-0.289093	-0.003946	7.612088	-0.287321	-3041.79	1.297377E-6	NaN
689	1.000000	0.903023	7.37179e+06	-42639.1	1005.82	-29781.9	0.000000	0.000000	6.903115	0.006287	NaN	0.000000	0.001701	0.001817	28.0805	0.095784	0.001987	48.1971	33.2956	-169.042	0.003919	0.901721	-0.277708	-0.279010	0.006287	48.1971	-0.277805	-2186.94	-2.874883E-6	NaN
689	1.000000	0.913013	7.37179e+06	-42639.1	1005.82	-29781.9	0.000000	0.000000	6.913106	0.022009	NaN	0.000000	0.001699	0.001803	28.0813	0.116032	0.001998	58.0846	149.118	14.3971	0.084414	0.911667	-0.267718	-0.269064	0.022009	58.0846	-0.268002	-1552.9	-1.417284E-5	NaN
689	1.000000	0.923048	7.37179e+06	-42639.1	1005.82	-29781.9	0.000000	0.000000	6.923140	-0.008587	NaN	0.000000	0.001705	0.001773	28.0816	0.005703	0.001883	3.028643	-38.2418	-165.104	-0.069092	0.921739	-0.257683	-0.258992	-0.008587	3.028643	-0.255556	-1001.56	8.573588E-6	NaN
689	1.000000	0.933029	7.37179e+06	-42639.1	1005.82	-29781.9	0.000000	0.000000	6.933121	0.013940	NaN	0.000000	0.001711	0.001827	28.082	0.053796	0.001910	28.1717	45.1804	14.0946	0.003650	0.931681	-0.247702	-0.249050	0.013940	28.1717	-0.248073	-767.614	-1.816075E-5	NaN
689	1.000000	0.943025	7.37179e+06	-42639.1	1005.82	-29781.9	0.000000	0.000000	6.943116	-0.007644	NaN	0.000000	0.001714	0.001775	28.0817	0.002867	0.002056	1.394616	25.7807	-163.479	0.009811	0.941735	-0.237706	-0.238996	-0.007644	1.394616	-0.233596	-456.226	1.675417E-5	NaN
689	1.000000	0.953050	7.37179e+06	-42639.1	1005.82	-29781.9	0.000000	0.000000	6.953139	-0.047005	NaN	0.000000	0.001721	0.001774	28.0818	0.037519	0.002118	17.712	175.274	16.0308	0.035423	0.951661	-0.227681	-0.229070	-0.047005	17.712	-0.225691	-342.22	0.000137	NaN
689	1.000000	0.963072	7.37179e+06	-42639.1	1005.82	-29781.9	0.000000	0.000000	6.963167	0.084211	NaN	0.000000	0.001705	0.001818	28.0816	0.060517	0.002103	28.7707	-28.5557	-164.442	0.080250	0.961683	-0.217659	-0.219048	0.084211	28.7707	-0.219855	-276.282	-0.000305	NaN
689	1.000000	0.973046	7.37179e+06	-42639.1	1005.82	-29781.9	0.000000	0.000000	6.973135	-0.051251	NaN	0.000000	0.001679	0.001768	28.0822	0.035678	0.002038	17.5037	14.9371	14.6618	-0.055456	0.971680	-0.207685	-0.209051	-0.051251	17.5037	-0.205489	-162.006	0.000316	NaN
689	1.000000	0.983019	7.37179e+06	-42639.1	1005.82	-29781.9	0.000000	0.000000	6.983113	0.061809	NaN	0.000000	0.001684	0.001773	28.0818	0.120827	0.001980	61.0264	125.241	-162.549	-0.023188	0.981751	-0.197712	-0.198980	0.061809	61.0264	-0.198472	-124.323	-0.000497	NaN
689	1.000000	0.993023	7.37179e+06	-42639.1	1005.82	-29781.9	0.000000	0.000000	6.993116	0.014614	NaN	0.000000	0.001715	0.001772	28.0818	0.076691	0.002037	37.6433	91.9768	16.4145	0.029933	0.991702	-0.187708	-0.189029	0.014614	37.6433	-0.187999	-83.2795	-0.000175	NaN
689	1.000000	1.003082	7.37179e+06	-42639.1	1005.82	-29781.9	0.000000	0.000000	7.003174	0.006953	NaN	0.000000	0.001724	0.001771	28.0818	0.063687	0.001901	33.5038	154.928	-167.214	-0.023740	1.001737	-0.177649	-0.178994	0.006953	33.5038	-0.177804	-55.9794	-0.000124	NaN
689	1.000000	1.013062	7.37179e+06	-42639.1	1005.82	-29781.9	0.000000	0.000000	7.013155	0.024722	NaN	0.000000	0.001729	0.001786	28.0818	0.080030	0.001858	43.0767	-125.204	8.049554	-6.711824E-5	1.011691	-0.167669	-0.169040	0.024722	43.0767	-0.168099	-38.0664	-0.000649	NaN
689	1.000000	1.023078	7.37179e+06	-42639.1	1005.82	-29781.9	0.000000	0.000000	7.023169	-0.027913	NaN	0.000000	0.001733	0.001805	28.0817	0.132204	0.001971	67.0666	96.9893	-165.344	0.003780	1.021770	-0.157653	-0.158961	-0.027913	67.0666	-0.157340	-24.5794	0.001136	NaN
689	1.000000	1.033088	7.37179e+06	-42639.1	1005.82	-29781.9	0.000000	0.000000	7.033181	0.043607	NaN	0.000000	0.001732	0.001767	28.0818	0.103828	0.002049	50.6751	-42.1011	11.9245	0.011299	1.031709	-0.147643	-0.149022	0.043607	50.6751	-0.148289	-16.8547	-0.002587	NaN
689	1.000000	1.043039	7.37179e+06	-42639.1	1005.82	-29781.9	0.000000	0.000000	7.043130	-0.018068	NaN	0.000000	0.001695	0.001772	28.0819	0.028737	0.002096	13.7122	-176.48	-167.129	-0.049059	1.041775	-0.137692	-0.138956	-0.018068	13.7122	-0.136704	-10.25	0.001763	NaN
689	1.000000	1.053084	7.37179e+06	-42639.1	1005.82	-29781.9	0.000000	0.000000	7.053179	0.076896	NaN	0.000000	0.001682	0.001815	28.0806	0.123145	0.001961	62.7826	172.575	15.2262	0.066515	1.051706	-0.127647	-0.129025	0.076896	62.7826	-0.128565	-7.146078	-0.010761	NaN
689	1.000000	1.063070	7.37179e+06	-42639.1	1005.82	-29781.9	0.000000	0.000000	7.063161	-0.006199	NaN	0.000000	0.001712	0.001813	28.0807	0.041633	0.002076	20.0545	-157.677	-166.247	0.067303	1.061781	-0.117661	-0.118950	-0.006199	20.0545	-0.117429	-4.284684	0.001447	NaN
689	1.000000	1.073056	7.37179e+06	-42639.1	1005.82	-29781.9	0.000000	0.000000	7.073149	0.044158	NaN	0.000000	0.001696	0.001815	28.0806	0.084046	0.001954	43.0083	5.967555	12.0894	0.071715	1.071751	-0.107675	-0.108980	0.044158	43.0083	-0.108445	-2.785895	-0.015851	NaN
689	1.000000	1.083072	7.37179e+06	-42639.1	1005.82	-29781.9	0.000000	0.000000	7.083168	0.096255	NaN	0.000000	0.001713	0.001829	28.0807	0.030545	0.002012	15.1804	-120.729	-164.985	0.145455	1.081762	-0.097659	-0.098968	0.096255	15.1804	-0.102414	-2.065156	-0.046609	NaN
689	1.000000	1.093084	7.37179e+06	-42639.1	1005.82	-29781.9	0.000000	0.000000	7.093176	0.014321	NaN	0.000000	0.001690	0.001789	28.0805	0.085706	0.001955	43.8411	79.1421	16.6845	-0.045626	1.091720	-0.087647	-0.089011	0.014321	43.8411	-0.087892	-0.963935	-0.014857	NaN
689	1.000000	1.103091	7.37179e+06	-42639.1	1005.82	-29781.9	0.000000	0.000000	7.103187	0.100446	NaN	0.000000	0.001756	0.001757	28.0807	0.046716	0.002040	22.8967	-107.615	-166.833	0.019453	1.101732	-0.077640	-0.078999	0.100446	22.8967	-0.080930	-0.652943	-0.153836	NaN
689	1.000000	1.113070	7.37179e+06	-42639.1	1005.82	-29781.9	0.000000	0.000000	7.113162	0.001759	NaN	0.000000	0.001702	0.001761	28.0812	0.094334	0.001941	48.591	-168.069	11.7593	-0.008689	1.111765	-0.067661	-0.068966	0.001759	48.591	-0.067688	-0.295427	-0.005954	NaN
689	1.000000	1.123097	7.37179e+06	-42639.1	1005.82	-29781.9	0.000000	0.000000	7.123190	0.011735	NaN	0.000000	0.001731	0.001771	28.0807	0.135150	0.001993	67.8251	173.141	-163.942	0.022441	1.121769	-0.057634	-0.058962	0.011735	67.8251	-0.057763	-0.155196	-0.075613	NaN
689	1.000000	1.133094	7.37179e+06	-42639.1	1005.82	-29781.9	0.000000	0.000000	7.133186	0.007200	NaN	0.000000	0.001738	0.001778	28.0808	0.018387	0.002045	8.991555	140.305	13.7442	0.013847	1.131776	-0.047636	-0.048955	0.007200	8.991555	-0.048237	-0.080680	-0.089240	NaN
689	1.000000	1.143077	7.37179e+06	-42639.1	1005.82	-29781.9	0.000000	0.000000	7.143169	0.019019	NaN	0.000000	0.001710	0.001785	28.0809	0.037079	0.002066	17.9498	-19.4258	-168.117	0.009679	1.141753	-0.037654	-0.038978	0.019019	17.9498	-0.038449	-0.040588	-0.468582	NaN
689	1.000000	1.153085	7.37179e+06	-42639.1	1005.82	-29781.9	0.000000	0.000000	7.153178	0.031237	NaN	0.000000	0.001728	0.001797	28.0806	0.027532	0.001910	14.4151	19.437	15.2604	0.076244	1.151732	-0.027646	-0.028999	0.031237	14.4151	-0.029272	-0.021967	-1.421998	NaN
689	1.000000	1.163116	7.37179e+06	-42639.1	1005.82	-29781.9	0.000000	0.000000	7.163211	0.087513	NaN	0.000000	0.001708	0.001783	28.0809	0.097436	0.001958	49.7741	-21.9799	-163.701	0.056081	1.161793	-0.017615	-0.018938	0.087513	49.7741	-0.018934	-0.011798	-7.417580	NaN
689	1.000000	1.173079	7.37179e+06	-42639.1	1005.82	-29781.9	0.000000	0.000000	7.173190	0.475099	NaN	0.000000	0.001695	0.001782	28.0807	0.794035	0.001972	402.671	14.7288	11.0561	0.220881	1.171771	-0.007652	-0.008960	0.475099	402.671	-0.008537	-0.005545	-85.6859	NaN
689	1.000000	1.182992	7.37179e+06	-42639.1	1005.82	-29781.9	0.000000	0.000000	7.183396	7.605958	NaN	0.000000	0.001711	0.001788	28.0808	7.645283	0.001715	4458.87	10.3484	-171.883	6.311436	1.181768	0.002261	0.001037	7.605958	4458.87	0.000982	0.000748	10167.9	148949
689	2.000000	1.186172	7.37179e+06	-42639.1	1005.82	-29781.9	0.000000	0.000000	7.186692	10.4132	NaN	0.000000	0.001711	0.001839	28.082	10.7384	0.001622	6620.38	3.110215	9.286518	8.947319	1.185761	0.005441	0.005030	10.4132	6620.38	0.004261	0.003469	3001.62	102693
689	2.000000	1.188645	7.37179e+06	-42639.1	1005.82	-29781.9	0.000000	0.000000	7.189376	15.545	NaN	0.000000	0.001684	0.001803	28.0824	14.4776	0.001862	7777.23	6.130255	-173.98	14.0439	1.188379	0.007914	0.007648	15.545	7777.23	0.006415	0.005462	2845.92	96142.4
689	2.000000	1.191153	7.37179e+06	-42639.1	1005.82	-29781.9	0.000000	0.000000	7.192086	20.4831	NaN	0.000000	0.001677	0.001780	28.0819	16.8352	0.001713	9830.21	6.754799	3.102057	18.6352	1.190735	0.010422	0.010004	20.4831	9830.21	0.008859	0.007941	2579.42	100786
689	2.000000	1.193637	7.37179e+06	-42639.1	1005.82	-29781.9	0.000000	0.000000	7.194745	24.7154	NaN	0.000000	0.001720	0.001831	28.0825	19.3582	0.001757	11018.8	6.531204	-177.391	24.2915	1.193384	0.012906	0.012653	24.7154	11018.8	0.011224	0.010574	2337.38	97901.6
689	2.000000	1.196153	7.37179e+06	-42639.1	1005.82	-29781.9	0.000000	0.000000	7.197467	29.7436	NaN	0.000000	0.001728	0.001785	28.082	22.9971	0.001907	12056.4	9.814292	-2.167208	28.0251	1.195780	0.015422	0.015049	29.7436	12056.4	0.013572	0.013428	2215.06	95058
689	2.000000	1.198645	7.37179e+06	-42639.1	1005.82	-29781.9	0.000000	0.000000	7.200082	32.744	NaN	0.000000	0.001740	0.001834	28.0826	24.532	0.001830	13402.5	4.682689	-177.808	32.9159	1.198398	0.017914	0.017668	32.744	13402.5	0.016081	0.016754	1954.36	94601.1
689	2.000000	1.201104	7.37179e+06	-42639.1	1005.82	-29781.9	0.000000	0.000000	7.203020	44.4024	NaN	0.000000	0.001745	0.001814	28.082	26.5032	0.001829	14491.1	3.845026	3.495020	41.9411	1.200719	0.020373	0.019988	44.4024	14491.1	0.018075	0.019607	2264.62	94551.9
689	2.000000	1.203638	7.37179e+06	-42639.1	1005.82	-29781.9	0.000000	0.000000	7.205678	47.3995	NaN	0.000000	0.001729	0.001819	28.0826	28.33	0.001729	16386.9	6.922749	179.077	48.6157	1.203271	0.022907	0.022540	47.3995	16386.9	0.020738	0.023715	1998.7	97220.4
689	2.000000	1.206086	7.37179e+06	-42639.1	1005.82	-29781.9	0.000000	0.000000	7.208573	58.2774	NaN	0.000000	0.001718	0.001825	28.0819	30.8018	0.001693	18198.5	2.038184	2.439871	56.2635	1.205696	0.025355	0.024965	58.2774	18198.5	0.022954	0.027397	2127.11	100451
689	2.000000	1.208576	7.37179e+06	-42639.1	1005.82	-29781.9	0.000000	0.000000	7.211358	65.4534	NaN	0.000000	0.001743	0.001841	28.0823	34.7443	0.001875	18533.6	6.463401	178.953	63.8008	1.208294	0.027845	0.027564	65.4534	18533.6	0.025196	0.031374	2086.26	95598.4
689	2.000000	1.211080	7.37179e+06	-42639.1	1005.82	-29781.9	0.000000	0.000000	7.214313	76.4093	NaN	0.000000	0.001749	0.001855	28.0818	35.7612	0.001761	20312.3	4.967240	-0.832900	73.0053	1.210738	0.030350	0.030007	76.4093	20312.3	0.027528	0.035776	2135.76	98115.1
689	2.000000	1.213549	7.3718e+06	-42639.1	1005.82	-29781.9	0.000000	0.000000	7.217093	84.0087	NaN	0.000000	0.001719	0.001801	28.0822	38.0745	0.001820	20922.8	1.962812	-178.684	80.6694	1.213232	0.032818	0.032501	84.0087	20922.8	0.029806	0.040343	2082.36	95172
689	2.000000	1.216039	7.3718e+06	-42639.1	1005.82	-29781.9	0.000000	0.000000	7.220021	94.6462	NaN	0.000000	0.001725	0.001847	28.082	40.2775	0.001684	23911.8	3.452244	-1.016260	91.026	1.215744	0.035309	0.035013	94.6462	23911.8	0.032340	0.045733	2069.52	102157
689	2.000000	1.218591	7.3718e+06	-42639.1	1005.82	-29781.9	0.000000	0.000000	7.222769	99.4112	NaN	0.000000	0.001682	0.001811	28.0811	44.5446	0.001925	23142.4	6.396367	175.692	98.1751	1.218310	0.037860	0.037579	99.4112	23142.4	0.034639	0.050908	1952.76	93710.6
689	2.000000	1.221077	7.3718e+06	-42639.1	1005.82	-29781.9	0.000000	0.000000	7.225917	115.527	NaN	0.000000	0.001663	0.001817	28.0809	46.1791	0.001825	25304.8	6.754600	-4.466966	112.991	1.220701	0.040346	0.039970	115.527	25304.8	0.036922	0.056317	2051.38	97422.3
689	2.000000	1.223555	7.3718e+06	-42639.1	1005.82	-29781.9	0.000000	0.000000	7.228786	125.031	NaN	0.000000	0.001695	0.001812	28.0811	48.6738	0.001843	26404.1	7.903282	172.835	123.375	1.223221	0.042824	0.042490	125.031	26404.1	0.039273	0.062163	2011.36	96756.4
689	2.000000	1.226126	7.3718e+06	-42639.1	1005.82	-29781.9	0.000000	0.000000	7.231584	130.577	NaN	0.000000	0.001676	0.001778	28.0807	51.3319	0.001835	27974.1	3.481375	-2.993678	131.765	1.225804	0.045395	0.045073	130.577	27974.1	0.041894	0.069014	1892.02	97288
689	2.000000	1.228561	7.3718e+06	-42639.1	1005.82	-29781.9	0.000000	0.000000	7.234627	145.34	NaN	0.000000	0.001679	0.001811	28.0808	53.3079	0.001819	29312.8	3.017341	177.69	146.2	1.228295	0.047830	0.047564	145.34	29312.8	0.044112	0.075086	1935.65	97735.4
689	2.000000	1.231021	7.3718e+06	-42639.1	1005.82	-29781.9	0.000000	0.000000	7.237683	159.863	NaN	0.000000	0.001690	0.001827	28.0809	54.4826	0.001710	31861.3	4.005332	-4.068911	154.302	1.230648	0.050290	0.049917	159.863	31861.3	0.046527	0.081980	1950.01	101667
689	2.000000	1.233619	7.3718e+06	-42639.1	1005.82	-29781.9	0.000000	0.000000	7.240645	168.734	NaN	0.000000	0.001701	0.001815	28.0808	57.4199	0.001755	32717.8	5.106127	174.209	171.848	1.233266	0.052888	0.052535	168.734	32717.8	0.049020	0.089408	1887.24	99970.2
689	2.000000	1.236062	7.3718e+06	-42639.1	1005.82	-29781.9	0.000000	0.000000	7.243687	183.293	NaN	0.000000	0.001696	0.001815	28.0807	59.9426	0.001765	33966.4	4.680440	-5.308297	182.24	1.235745	0.055331	0.055014	183.293	33966.4	0.051284	0.096424	1900.9	99937.8
689	2.000000	1.238473	7.3718e+06	-42639.1	1005.82	-29781.9	0.000000	0.000000	7.246702	197.976	NaN	0.000000	0.001698	0.001794	28.0807	62.1415	0.001801	34504.3	4.089799	175.573	192.784	1.238219	0.057742	0.057488	197.976	34504.3	0.053439	0.103339	1915.8	98065.1
689	2.000000	1.241050	7.3718e+06	-42639.1	1005.82	-29781.9	0.000000	0.000000	7.249895	212.993	NaN	0.000000	0.001720	0.001801	28.0809	63.9104	0.001734	36866.3	1.597439	-2.211682	210.984	1.240724	0.060319	0.059993	212.993	36866.3	0.055986	0.111809	1904.98	100731
689	2.000000	1.243522	7.3718e+06	-42639.1	1005.82	-29781.9	0.000000	0.000000	7.252796	223.409	NaN	0.000000	0.001709	0.001818	28.0809	65.6084	0.001769	37078.4	3.032845	175.51	221.552	1.243193	0.062791	0.062462	223.409	37078.4	0.058272	0.119687	1866.62	97920
689	2.000000	1.246051	7.3718e+06	-42639.1	1005.82	-29781.9	0.000000	0.000000	7.256199	244.669	NaN	0.000000	0.001776	0.001816	28.0807	69.2491	0.001877	36890.4	4.165921	-5.357483	242.652	1.245564	0.065320	0.064834	244.669	36890.4	0.060346	0.127052	1925.73	94557.4
689	2.000000	1.248561	7.3718e+06	-42639.1	1005.82	-29781.9	0.000000	0.000000	7.259062	253.261	NaN	0.000000	0.001776	0.001784	28.0811	71.0124	0.001817	39091	2.504996	175.376	252.282	1.248313	0.067830	0.067582	253.261	39091	0.062971	0.136676	1853	96605.9
689	2.000000	1.251073	7.3718e+06	-42639.1	1005.82	-29781.9	0.000000	0.000000	7.262519	276.237	NaN	0.000000	0.001814	0.001797	28.0808	73.7813	0.001814	40683.2	8.777438	-10.5415	274.69	1.250610	0.070343	0.069879	276.237	40683.2	0.065250	0.145304	1901.09	97510
689	2.000000	1.253462	7.3718e+06	-42639.1	1005.82	-29781.9	0.000000	0.000000	7.265421	288.753	NaN	0.000000	0.001762	0.001769	28.0821	74.5739	0.001729	43141.8	2.401835	174.577	283.651	1.253197	0.072731	0.072466	288.753	43141.8	0.067711	0.154901	1864.11	100148
689	2.000000	1.256122	7.3718e+06	-42639.1	1005.82	-29781.9	0.000000	0.000000	7.268640	302.324	NaN	0.000000	0.001808	0.001793	28.0821	78.2096	0.001779	43967.3	3.774593	-6.495805	304.666	1.255805	0.075391	0.075074	302.324	43967.3	0.070234	0.165042	1831.8	98879.3
689	2.000000	1.258509	7.3718e+06	-42639.1	1005.82	-29781.9	0.000000	0.000000	7.271995	325.873	NaN	0.000000	0.001793	0.001802	28.0824	80.6482	0.001810	44566.5	1.280056	176.527	324.076	1.258185	0.077778	0.077454	325.873	44566.5	0.072294	0.173546	1877.73	97740.3
689	2.000000	1.260973	7.3718e+06	-42639.1	1005.82	-29781.9	0.000000	0.000000	7.275033	339.865	NaN	0.000000	0.001781	0.001817	28.082	82.9324	0.001833	45247.1	4.165214	-6.756780	333.085	1.260624	0.080242	0.079893	339.865	45247.1	0.074609	0.183340	1853.75	96546.3
689	2.000000	1.263521	7.3718e+06	-42639.1	1005.82	-29781.9	0.000000	0.000000	7.278326	357.969	NaN	0.000000	0.001776	0.001813	28.0822	84.084	0.001786	47077.8	3.019888	173.629	357.036	1.263306	0.082790	0.082575	357.969	47077.8	0.077088	0.194108	1844.17	97626.5
689	2.000000	1.266027	7.3718e+06	-42639.1	1005.82	-29781.9	0.000000	0.000000	7.281868	383.204	NaN	0.000000	0.001780	0.001820	28.0819	88.8946	0.001753	50717.7	8.091053	-12.1171	380.225	1.265595	0.085296	0.084864	383.204	50717.7	0.079629	0.205447	1865.22	102231
689	2.000000	1.268507	7.3718e+06	-42639.1	1005.82	-29781.9	0.000000	0.000000	7.284950	397.843	NaN	0.000000	0.001807	0.001794	28.0826	90.9875	0.001897	47962.6	2.457280	174.368	394.27	1.268239	0.087776	0.087508	397.843	47962.6	0.081555	0.214241	1856.98	94672.6
689	2.000000	1.271026	7.3718e+06	-42639.1	1005.82	-29781.9	0.000000	0.000000	7.288486	422.591	NaN	0.000000	0.001780	0.001804	28.0819	92.748	0.001862	49807.3	4.953936	-7.473068	418.262	1.270648	0.090295	0.089917	422.591	49807.3	0.083931	0.225330	1875.43	95864.3
689	2.000000	1.273550	7.3718e+06	-42639.1	1005.82	-29781.9	0.000000	0.000000	7.291503	434.578	NaN	0.000000	0.001811	0.001787	28.0823	95.7271	0.001812	52833.6	5.602586	170.326	435.668	1.273326	0.092819	0.092595	434.578	52833.6	0.086650	0.238336	1823.39	98875.6
689	2.000000	1.275948	7.3718e+06	-42639.1	1005.82	-29781.9	0.000000	0.000000	7.295195	466.072	NaN	0.000000	0.001793	0.001796	28.0821	97.3417	0.001757	55412.2	0.220697	-3.921378	460.141	1.275468	0.095217	0.094737	466.072	55412.2	0.088909	0.249400	1868.77	101375
689	2.000000	1.278338	7.3718e+06	-42639.1	1005.82	-29781.9	0.000000	0.000000	7.298114	478.936	NaN	0.000000	0.001778	0.001812	28.0824	101.435	0.001873	54158.8	5.463793	170.388	468.723	1.278178	0.097607	0.097447	478.936	54158.8	0.090974	0.259723	1844.03	97092.8
689	2.000000	1.280963	7.3718e+06	-42639.1	1005.82	-29781.9	0.000000	0.000000	7.302032	510.392	NaN	0.000000	0.001778	0.001809	28.082	102.783	0.001823	56366.9	5.577456	-9.270930	504.112	1.280512	0.100232	0.099781	510.392	56366.9	0.093441	0.272309	1874.31	98688.4
689	2.000000	1.282490	7.3718e+06	-42639.1	1005.82	-29781.9	0.000000	0.000000	7.303824	516.841	NaN	0.000000	0.001758	0.001765	28.0822	103.329	0.001774	58259.6	3.258776	172.482	512.905	1.282217	0.101759	0.101486	516.841	58259.6	0.095106	0.280957	1839.57	100420