File: remote_trans/data/nanoindenter/0828-1/data/Data_2025-08-06,11h17m57s/2025-07-22_16-23-58_1_204.txt
2025-07-22, 16:23:58, 1
Index	Phase	Displacement	Time	Pos X	Pos Y	Pos Z	Rot A	Rot B	Piezo Z	Force A	Force B	Gripper	Voltage A	Voltage B	Temperature	Amplitude force	Amplitude pos	Stiffness	Phase shift	Phase excitation	Force A raw	Displacement raw	HMax	HMax raw	Real Force	Real Stiffness	Contact Depth	Area	Hardness	Reduced Mod.
[#]	[#]	[um]	[s]	[um]	[um]	[um]	[m°]	[m°]	[um]	[uN]	[uN]	[V]	[V]	[V]	[°C]	[uN]	[um]	[N/m]	[°]	[°]	[uN]	[um]	[um]	[um]	[uN]	[N/m]	[um]	[um^2]	[MPa]	[MPa]
204	1.000000	0.002549	7.36704e+06	-48839.1	955.819	-29761.3	0.000000	0.000000	6.002797	0.006293	NaN	0.000000	0.001684	0.001744	28.0783	0.155023	0.000861	180.048	177.412	-165.319	0.012518	0.001331	-1.122929	-1.124147	0.006293	180.048	-1.122955	-1.018880E+15	-6.176731E-18	NaN
204	1.000000	0.012626	7.36704e+06	-48839.1	955.819	-29761.3	0.000000	0.000000	6.012875	0.040005	NaN	0.000000	0.001714	0.001717	28.0782	0.071556	0.001344	53.26	-138.959	15.7966	0.050089	0.011202	-1.112852	-1.114277	0.040005	53.26	-1.113416	-7.587985E+14	-5.272143E-17	NaN
204	1.000000	0.022508	7.36704e+06	-48839.1	955.819	-29761.3	0.000000	0.000000	6.022757	0.026950	NaN	0.000000	0.001695	0.001767	28.0781	0.072872	0.001847	39.445	145.93	-168.582	0.120250	0.021262	-1.102970	-1.104217	0.026950	39.445	-1.103483	-5.582355E+14	-4.827673E-17	NaN
204	1.000000	0.032502	7.36704e+06	-48839.1	955.819	-29761.3	0.000000	0.000000	6.032751	0.035510	NaN	0.000000	0.001705	0.001748	28.0777	0.017312	0.002063	8.392397	-60.2082	13.6687	0.086329	0.031127	-1.092977	-1.094351	0.035510	8.392397	-1.096150	-4.450250E+14	-7.979265E-17	NaN
204	1.000000	0.042504	7.36704e+06	-48839.1	955.819	-29761.3	0.000000	0.000000	6.042750	-0.062851	NaN	0.000000	0.001662	0.001766	28.0783	0.037381	0.001845	20.2602	-28.7019	-168.243	-0.018990	0.041207	-1.082974	-1.084271	-0.062851	20.2602	-1.080647	-2.755569E+14	2.280859E-16	NaN
204	1.000000	0.052518	7.36704e+06	-48839.1	955.818	-29761.3	0.000000	0.000000	6.052766	0.007676	NaN	0.000000	0.001725	0.001735	28.0779	0.056634	0.001895	29.8818	-40.7364	11.2958	0.074066	0.051165	-1.072961	-1.074313	0.007676	29.8818	-1.073153	-2.185496E+14	-3.512176E-17	NaN
204	1.000000	0.062501	7.36704e+06	-48839.1	955.818	-29761.3	0.000000	0.000000	6.062748	-0.026176	NaN	0.000000	0.001727	0.001770	28.0783	0.105549	0.002062	51.1812	56.5319	-162.945	-0.035180	0.061241	-1.062977	-1.064238	-0.026176	51.1812	-1.062594	-1.576438E+14	1.660428E-16	NaN
204	1.000000	0.072502	7.36704e+06	-48839.1	955.818	-29761.3	0.000000	0.000000	6.072750	-0.000532	NaN	0.000000	0.001733	0.001725	28.0767	0.053268	0.002068	25.7588	35.728	15.6446	0.016183	0.071128	-1.052976	-1.054350	-0.000532	25.7588	-1.052960	-1.170059E+14	4.547952E-18	NaN
204	1.000000	0.082531	7.36704e+06	-48839.1	955.819	-29761.3	0.000000	0.000000	6.082780	0.032355	NaN	0.000000	0.001691	0.001734	28.0772	0.139907	0.001960	71.3719	103.344	-164.719	0.015562	0.081198	-1.042947	-1.044281	0.032355	71.3719	-1.043287	-8.672937E+13	-3.730541E-16	NaN
204	1.000000	0.092532	7.36704e+06	-48839.1	955.819	-29761.3	0.000000	0.000000	6.092779	-0.000603	NaN	0.000000	0.001716	0.001720	28.0765	0.102808	0.002023	50.8172	47.3921	14.3544	0.011914	0.091125	-1.032947	-1.034353	-0.000603	50.8172	-1.032938	-6.294983E+13	9.576841E-18	NaN
204	1.000000	0.102516	7.36704e+06	-48839.1	955.818	-29761.3	0.000000	0.000000	6.102765	0.026333	NaN	0.000000	0.001708	0.001742	28.0769	0.110380	0.001958	56.3698	-131.83	-168.924	0.058483	0.101261	-1.022962	-1.024217	0.026333	56.3698	-1.023312	-4.672162E+13	-5.636179E-16	NaN
204	1.000000	0.112503	7.36704e+06	-48839.1	955.818	-29761.3	0.000000	0.000000	6.112750	-0.029356	NaN	0.000000	0.001686	0.001744	28.0768	0.060320	0.001906	31.6473	177.143	17.8761	0.032669	0.111145	-1.012975	-1.014333	-0.029356	31.6473	-1.012279	-3.319382E+13	8.843888E-16	NaN
204	1.000000	0.122518	7.36704e+06	-48839.1	955.818	-29761.3	0.000000	0.000000	6.122763	-0.067465	NaN	0.000000	0.001684	0.001734	28.0768	0.131053	0.002064	63.4833	-77.2638	-163.445	-0.042007	0.121261	-1.002960	-1.004217	-0.067465	63.4833	-1.002163	-2.426000E+13	2.780899E-15	NaN
204	1.000000	0.132536	7.36704e+06	-48839.1	955.819	-29761.3	0.000000	0.000000	6.132785	0.034233	NaN	0.000000	0.001723	0.001759	28.0767	0.109783	0.002004	54.7941	-57.5758	15.5019	0.046432	0.131126	-0.992942	-0.994352	0.034233	54.7941	-0.993411	-1.849468E+13	-1.850973E-15	NaN
204	1.000000	0.142538	7.36704e+06	-48839.1	955.818	-29761.3	0.000000	0.000000	6.142786	0.021592	NaN	0.000000	0.001670	0.001790	28.0767	0.049683	0.001975	25.1555	137.222	-163.536	0.016799	0.141194	-0.982941	-0.984284	0.021592	25.1555	-0.983584	-1.363634E+13	-1.583391E-15	NaN
204	1.000000	0.152553	7.36704e+06	-48839.1	955.818	-29761.3	0.000000	0.000000	6.152803	0.051058	NaN	0.000000	0.001681	0.001779	28.077	0.100446	0.002030	49.4758	-27.9317	16.5523	0.050572	0.151161	-0.972925	-0.974317	0.051058	49.4758	-0.973699	-1.003495E+13	-5.087987E-15	NaN
204	1.000000	0.162568	7.36704e+06	-48839.1	955.818	-29761.3	0.000000	0.000000	6.162818	0.036823	NaN	0.000000	0.001685	0.001784	28.077	0.025239	0.002093	12.0586	-65.8634	-164.134	-0.009302	0.161169	-0.962910	-0.964310	0.036823	12.0586	-0.965200	-7.708532E+12	-4.776948E-15	NaN
204	1.000000	0.172525	7.36704e+06	-48839.1	955.818	-29761.3	0.000000	0.000000	6.172774	0.011309	NaN	0.000000	0.001646	0.001758	28.077	0.036820	0.002061	17.8633	-91.2298	15.2295	0.048957	0.171167	-0.952953	-0.954311	0.011309	17.8633	-0.953428	-5.348760E+12	-2.114380E-15	NaN
204	1.000000	0.182543	7.36704e+06	-48839.1	955.818	-29761.3	0.000000	0.000000	6.182790	-0.020050	NaN	0.000000	0.001652	0.001784	28.0766	0.087140	0.002123	41.0368	134.332	-162.541	0.021015	0.181305	-0.942935	-0.944173	-0.020050	41.0368	-0.942569	-3.817584E+12	5.252043E-15	NaN
204	1.000000	0.192576	7.36704e+06	-48839.1	955.817	-29761.3	0.000000	0.000000	6.192825	0.019581	NaN	0.000000	0.001675	0.001773	28.0772	0.096967	0.001965	49.3478	-121.918	13.546	0.038839	0.191129	-0.932902	-0.934349	0.019581	49.3478	-0.933199	-2.853486E+12	-6.862120E-15	NaN
204	1.000000	0.202553	7.36704e+06	-48839.1	955.818	-29761.3	0.000000	0.000000	6.202798	-0.062717	NaN	0.000000	0.001675	0.001760	28.0769	0.048400	0.002001	24.1846	3.046049	-167.393	-0.038080	0.201247	-0.922926	-0.924231	-0.062717	24.1846	-0.920981	-1.951845E+12	3.213199E-14	NaN
204	1.000000	0.212552	7.36704e+06	-48839.1	955.819	-29761.3	0.000000	0.000000	6.212796	-0.081559	NaN	0.000000	0.001687	0.001770	28.0783	0.076464	0.002048	37.3405	-127.786	11.1776	-0.001899	0.211159	-0.912927	-0.914319	-0.081559	37.3405	-0.911288	-1.443991E+12	5.648187E-14	NaN
204	1.000000	0.222569	7.36704e+06	-48839.1	955.818	-29761.3	0.000000	0.000000	6.222816	-0.027339	NaN	0.000000	0.001677	0.001739	28.0782	0.163378	0.002017	80.9876	-100.394	-164.284	-0.063246	0.221247	-0.902909	-0.904232	-0.027339	80.9876	-0.902656	-1.103955E+12	2.476434E-14	NaN
204	1.000000	0.232585	7.36704e+06	-48839.1	955.817	-29761.3	0.000000	0.000000	6.232830	-0.066767	NaN	0.000000	0.001670	0.001745	28.0781	0.088561	0.001936	45.7394	-49.7923	13.5488	-0.070166	0.231230	-0.892893	-0.894248	-0.066767	45.7394	-0.891798	-7.874466E+11	8.478962E-14	NaN
204	1.000000	0.242591	7.36704e+06	-48839.1	955.818	-29761.3	0.000000	0.000000	6.242835	-0.099533	NaN	0.000000	0.001687	0.001748	28.078	0.093365	0.002045	45.6605	-121.29	-161.915	-0.126181	0.241275	-0.882887	-0.884203	-0.099533	45.6605	-0.881252	-5.670791E+11	1.755184E-13	NaN
204	1.000000	0.252584	7.36704e+06	-48839.1	955.819	-29761.3	0.000000	0.000000	6.252830	-0.044167	NaN	0.000000	0.001709	0.001754	28.0782	0.088128	0.002060	42.7741	-160.168	14.1484	-0.076790	0.251222	-0.872895	-0.874257	-0.044167	42.7741	-0.872120	-4.267032E+11	1.035077E-13	NaN
204	1.000000	0.262597	7.36704e+06	-48839.1	955.818	-29761.3	0.000000	0.000000	6.262844	-0.021868	NaN	0.000000	0.001680	0.001783	28.0779	0.079610	0.002051	38.8087	69.8435	-165.533	-0.026378	0.261281	-0.862882	-0.864198	-0.021868	38.8087	-0.862459	-3.157924E+11	6.924787E-14	NaN
204	1.000000	0.272607	7.36704e+06	-48839.1	955.819	-29761.3	0.000000	0.000000	6.272854	-0.028192	NaN	0.000000	0.001663	0.001721	28.0782	0.009627	0.001911	5.036639	134.458	11.3248	0.024242	0.271195	-0.852871	-0.854283	-0.028192	5.036639	-0.848673	-2.054782E+11	1.372023E-13	NaN
204	1.000000	0.282597	7.36704e+06	-48839.1	955.818	-29761.3	0.000000	0.000000	6.282843	-0.037145	NaN	0.000000	0.001665	0.001790	28.0777	0.148357	0.001986	74.6878	153.889	-166.566	-0.052286	0.281329	-0.842881	-0.844149	-0.037145	74.6878	-0.842508	-1.695392E+11	2.190922E-13	NaN
204	1.000000	0.292628	7.36704e+06	-48839.1	955.818	-29761.3	0.000000	0.000000	6.292876	-0.001820	NaN	0.000000	0.001691	0.001746	28.0778	0.022396	0.002087	10.7334	-154.161	16.2278	-0.091803	0.291216	-0.832850	-0.834262	-0.001820	10.7334	-0.832723	-1.249359E+11	1.456985E-14	NaN
204	1.000000	0.302611	7.36704e+06	-48839.1	955.818	-29761.3	0.000000	0.000000	6.302856	-0.061738	NaN	0.000000	0.001791	0.001812	28.0781	0.077693	0.002044	38.014	42.1108	-166.549	-0.047512	0.301307	-0.822868	-0.824171	-0.061738	38.014	-0.821649	-8.842555E+10	6.981954E-13	NaN
204	1.000000	0.312635	7.36704e+06	-48839.1	955.818	-29761.3	0.000000	0.000000	6.312886	0.086886	NaN	0.000000	0.001779	0.001778	28.0781	0.016978	0.002051	8.278698	-89.1294	10.4831	-0.036239	0.311243	-0.812844	-0.814235	0.086886	8.278698	-0.820715	-8.588327E+10	-1.011678E-12	NaN
204	1.000000	0.322626	7.36704e+06	-48839.1	955.818	-29761.3	0.000000	0.000000	6.322873	-0.021199	NaN	0.000000	0.001781	0.001799	28.0778	0.069528	0.001977	35.1665	-45.9822	-165.452	-0.055074	0.321307	-0.802852	-0.804171	-0.021199	35.1665	-0.802400	-4.846662E+10	4.373967E-13	NaN
204	1.000000	0.332647	7.36704e+06	-48839.1	955.819	-29761.3	0.000000	0.000000	6.332897	0.037390	NaN	0.000000	0.001762	0.001769	28.078	0.097366	0.001894	51.3961	-65.7818	15.4428	0.029812	0.331237	-0.792831	-0.794241	0.037390	51.3961	-0.793376	-3.655413E+10	-1.022872E-12	NaN
204	1.000000	0.342628	7.36704e+06	-48839.1	955.818	-29761.3	0.000000	0.000000	6.342873	-0.085908	NaN	0.000000	0.001779	0.001779	28.0768	0.119252	0.002083	57.2519	160.809	-165.745	-0.051661	0.341247	-0.782850	-0.784231	-0.085908	57.2519	-0.781724	-2.539006E+10	3.383526E-12	NaN
204	1.000000	0.352596	7.36704e+06	-48839.1	955.818	-29761.3	0.000000	0.000000	6.352845	0.014898	NaN	0.000000	0.001765	0.001770	28.0766	0.017050	0.001981	8.608961	-67.8825	17.2692	-0.030658	0.351213	-0.772882	-0.774265	0.014898	8.608961	-0.774180	-2.005065E+10	-7.430332E-13	NaN
204	1.000000	0.362645	7.36704e+06	-48839.1	955.819	-29761.3	0.000000	0.000000	6.362894	0.031180	NaN	0.000000	0.001748	0.001785	28.0766	0.097645	0.002117	46.1342	102.292	-163.496	0.065760	0.361330	-0.762834	-0.764149	0.031180	46.1342	-0.763340	-1.428046E+10	-2.183374E-12	NaN
204	1.000000	0.372655	7.36704e+06	-48839.1	955.818	-29761.3	0.000000	0.000000	6.372903	0.011926	NaN	0.000000	0.001785	0.001799	28.0769	0.133249	0.001961	67.953	107.423	13.243	-0.024880	0.371294	-0.752824	-0.754184	0.011926	67.953	-0.752955	-1.031439E+10	-1.156234E-12	NaN
204	1.000000	0.382650	7.36704e+06	-48839.1	955.818	-29761.3	0.000000	0.000000	6.382897	-0.013499	NaN	0.000000	0.001807	0.001739	28.077	0.037691	0.001973	19.1071	-24.4623	-167.093	0.052176	0.381356	-0.742828	-0.744122	-0.013499	19.1071	-0.742298	-7.385120E+9	1.827904E-12	NaN
204	1.000000	0.392650	7.36704e+06	-48839.1	955.819	-29761.3	0.000000	0.000000	6.392899	0.047043	NaN	0.000000	0.001808	0.001780	28.0769	0.114051	0.001945	58.6259	103.859	14.0212	0.026641	0.391262	-0.732828	-0.734216	0.047043	58.6259	-0.733430	-5.591843E+9	-8.412877E-12	NaN
204	1.000000	0.402639	7.36704e+06	-48839.1	955.819	-29761.3	0.000000	0.000000	6.402887	-0.002668	NaN	0.000000	0.001780	0.001774	28.077	0.063201	0.002084	30.3227	153.066	-167.743	-0.066872	0.401326	-0.722839	-0.724153	-0.002668	30.3227	-0.722773	-4.002076E+9	6.666930E-13	NaN
204	1.000000	0.412664	7.36704e+06	-48839.1	955.819	-29761.3	0.000000	0.000000	6.412913	0.042962	NaN	0.000000	0.001787	0.001758	28.0771	0.120069	0.002129	56.3916	-126.837	14.5128	0.000347	0.411311	-0.712815	-0.714167	0.042962	56.3916	-0.713386	-2.980258E+9	-1.441543E-11	NaN
204	1.000000	0.422668	7.36704e+06	-48839.1	955.818	-29761.3	0.000000	0.000000	6.422914	-0.028694	NaN	0.000000	0.001819	0.001769	28.0771	0.140763	0.002132	66.0185	53.2456	-167.773	-0.035391	0.421386	-0.702811	-0.704092	-0.028694	66.0185	-0.702485	-2.115723E+9	1.356206E-11	NaN
204	1.000000	0.432646	7.36704e+06	-48839.1	955.819	-29761.3	0.000000	0.000000	6.432895	0.038617	NaN	0.000000	0.001813	0.001750	28.0772	0.040208	0.002058	19.5393	-179.591	13.4198	0.030950	0.431311	-0.692832	-0.694167	0.038617	19.5393	-0.694315	-1.636341E+9	-2.359954E-11	NaN
204	1.000000	0.442660	7.36704e+06	-48839.1	955.818	-29761.3	0.000000	0.000000	6.442906	-0.036434	NaN	0.000000	0.001787	0.001766	28.077	0.051749	0.001959	26.4093	1.314802	-165.021	-0.009986	0.441329	-0.682819	-0.684149	-0.036434	26.4093	-0.681784	-1.103068E+9	3.302997E-11	NaN
204	1.000000	0.452655	7.36704e+06	-48839.1	955.817	-29761.3	0.000000	0.000000	6.452899	-0.095100	NaN	0.000000	0.001801	0.001765	28.0771	0.048368	0.001964	24.6246	94.5756	11.1553	-0.113649	0.451347	-0.672823	-0.674132	-0.095100	24.6246	-0.669927	-7.592610E+8	1.252533E-10	NaN
204	1.000000	0.462673	7.36704e+06	-48839.1	955.819	-29761.3	0.000000	0.000000	6.462918	-0.074020	NaN	0.000000	0.001806	0.001756	28.0768	0.112371	0.002030	55.3508	23.7212	-167.654	-0.075159	0.461380	-0.662805	-0.664099	-0.074020	55.3508	-0.661802	-5.876984E+8	1.259485E-10	NaN
204	1.000000	0.472682	7.36704e+06	-48839.1	955.818	-29761.3	0.000000	0.000000	6.472927	-0.080818	NaN	0.000000	0.001844	0.001759	28.0766	0.079409	0.001944	40.8472	58.2124	13.002	-0.051439	0.471320	-0.652796	-0.654158	-0.080818	40.8472	-0.651312	-4.221070E+8	1.914641E-10	NaN
204	1.000000	0.482668	7.36704e+06	-48839.1	955.818	-29761.3	0.000000	0.000000	6.482914	-0.046617	NaN	0.000000	0.001808	0.001716	28.0782	0.051091	0.001952	26.1694	-126.065	-165.164	-0.072053	0.481432	-0.642810	-0.644046	-0.046617	26.1694	-0.641474	-3.093920E+8	1.506736E-10	NaN
204	1.000000	0.492751	7.36704e+06	-48839.1	955.82	-29761.3	0.000000	0.000000	6.492996	-0.070398	NaN	0.000000	0.001786	0.001726	28.0784	0.156198	0.002032	76.8864	20.8891	14.0707	-0.005620	0.491330	-0.632727	-0.634148	-0.070398	76.8864	-0.632041	-2.296380E+8	3.065626E-10	NaN
204	1.000000	0.502688	7.36704e+06	-48839.1	955.819	-29761.3	0.000000	0.000000	6.502934	-0.046716	NaN	0.000000	0.001775	0.001711	28.0782	0.158785	0.002140	74.2113	178.3	-165.892	0.054846	0.501422	-0.622791	-0.624056	-0.046716	74.2113	-0.622318	-1.688486E+8	2.766724E-10	NaN
204	1.000000	0.512689	7.36704e+06	-48839.1	955.818	-29761.3	0.000000	0.000000	6.512936	-0.028358	NaN	0.000000	0.001761	0.001735	28.0781	0.030718	0.002028	15.1454	12.6194	15.6532	0.037575	0.511329	-0.612789	-0.614149	-0.028358	15.1454	-0.611385	-1.194442E+8	2.374126E-10	NaN
204	1.000000	0.522729	7.36704e+06	-48839.1	955.818	-29761.3	0.000000	0.000000	6.522973	-0.081836	NaN	0.000000	0.001788	0.001706	28.0783	0.124820	0.002193	56.927	-41.8617	-163.954	-0.053675	0.521396	-0.602749	-0.604083	-0.081836	56.927	-0.601671	-8.779628E+7	9.321128E-10	NaN
204	1.000000	0.532696	7.36704e+06	-48839.1	955.818	-29761.3	0.000000	0.000000	6.532944	0.005026	NaN	0.000000	0.001780	0.001744	28.0782	0.038799	0.002076	18.6872	-91.6054	14.9269	-0.016809	0.531354	-0.592782	-0.594124	0.005026	18.6872	-0.592984	-6.664884E+7	-7.541664E-11	NaN
204	1.000000	0.542701	7.36704e+06	-48839.1	955.818	-29761.3	0.000000	0.000000	6.542948	-0.015622	NaN	0.000000	0.001791	0.001737	28.0781	0.073763	0.002053	35.9309	-29.679	-166.441	0.018336	0.541377	-0.582777	-0.584101	-0.015622	35.9309	-0.582451	-4.770359E+7	3.274734E-10	NaN
204	1.000000	0.552725	7.36704e+06	-48839.1	955.819	-29761.3	0.000000	0.000000	6.552971	-0.058411	NaN	0.000000	0.001681	0.001723	28.0781	0.049900	0.001993	25.0429	162.095	12.9957	-0.079394	0.551392	-0.572753	-0.574086	-0.058411	25.0429	-0.571004	-3.315105E+7	1.761951E-9	NaN
204	1.000000	0.562729	7.36704e+06	-48839.1	955.819	-29761.3	0.000000	0.000000	6.562977	-0.013446	NaN	0.000000	0.001700	0.001746	28.0783	0.084835	0.001969	43.0848	-163.695	-168.202	-0.064681	0.561439	-0.562749	-0.564040	-0.013446	43.0848	-0.562515	-2.530233E+7	5.314176E-10	NaN
204	1.000000	0.572726	7.36704e+06	-48839.1	955.818	-29761.3	0.000000	0.000000	6.572974	0.009093	NaN	0.000000	0.001673	0.001764	28.0782	0.041530	0.002119	19.6027	-7.709074	14.6993	-0.006762	0.571345	-0.552753	-0.554133	0.009093	19.6027	-0.553101	-1.874535E+7	-4.850867E-10	NaN
204	1.000000	0.582734	7.36704e+06	-48839.1	955.818	-29761.3	0.000000	0.000000	6.582980	-0.042140	NaN	0.000000	0.001701	0.001733	28.0782	0.166021	0.001932	85.9353	-138.588	-164.896	-0.085642	0.581381	-0.542744	-0.544097	-0.042140	85.9353	-0.542377	-1.331419E+7	3.165041E-9	NaN
204	1.000000	0.592706	7.36704e+06	-48839.1	955.818	-29761.3	0.000000	0.000000	6.592953	-0.036271	NaN	0.000000	0.001761	0.001751	28.0782	0.021203	0.001950	10.8715	49.434	17.2063	-0.009709	0.591420	-0.532772	-0.534059	-0.036271	10.8715	-0.530270	-9.04316e+06	4.010845E-9	NaN
204	1.000000	0.602749	7.36704e+06	-48839.1	955.819	-29761.3	0.000000	0.000000	6.602994	-0.085264	NaN	0.000000	0.001750	0.001695	28.0782	0.061789	0.001993	30.9983	-148.402	-164.402	-0.099795	0.601467	-0.522729	-0.524011	-0.085264	30.9983	-0.520666	-6.65055e+06	1.282059E-8	NaN
204	1.000000	0.612741	7.36704e+06	-48839.1	955.819	-29761.3	0.000000	0.000000	6.612989	0.019889	NaN	0.000000	0.001740	0.001718	28.0781	0.087414	0.001881	46.4615	-78.8495	11.9026	0.048711	0.611413	-0.512738	-0.514065	0.019889	46.4615	-0.513059	-5.21204e+06	-3.815902E-9	NaN
204	1.000000	0.622763	7.36704e+06	-48839.1	955.818	-29761.3	0.000000	0.000000	6.623012	0.031595	NaN	0.000000	0.001709	0.001735	28.077	0.075859	0.001937	39.165	107.224	-168.153	0.127073	0.621394	-0.502715	-0.504084	0.031595	39.165	-0.503320	-3.8135e+06	-8.285093E-9	NaN
204	1.000000	0.632748	7.36704e+06	-48839.1	955.818	-29761.3	0.000000	0.000000	6.632994	-0.041084	NaN	0.000000	0.001755	0.001695	28.0769	0.067540	0.001969	34.298	17.192	12.6166	-0.056756	0.631366	-0.492731	-0.494112	-0.041084	34.298	-0.491832	-2.63629e+06	1.558388E-8	NaN
204	1.000000	0.642763	7.36704e+06	-48839.1	955.818	-29761.3	0.000000	0.000000	6.643010	-0.018380	NaN	0.000000	0.001711	0.001740	28.0771	0.021862	0.002105	10.388	-96.8277	-169.788	0.096441	0.641481	-0.482715	-0.483998	-0.018380	10.388	-0.481388	-1.88347e+06	9.758717E-9	NaN
204	1.000000	0.652742	7.36704e+06	-48839.1	955.818	-29761.3	0.000000	0.000000	6.652989	-0.013763	NaN	0.000000	0.001661	0.001705	28.0768	0.037591	0.002036	18.4614	107.898	14.4438	0.010769	0.651396	-0.472736	-0.474082	-0.013763	18.4614	-0.472177	-1.39937e+06	9.835087E-9	NaN
204	1.000000	0.662749	7.36704e+06	-48839.1	955.819	-29761.3	0.000000	0.000000	6.662994	-0.070627	NaN	0.000000	0.001673	0.001741	28.0767	0.149312	0.001899	78.6259	149.872	-167.138	-0.062366	0.661432	-0.462729	-0.464046	-0.070627	78.6259	-0.462056	-1.00902e+06	6.999565E-8	NaN
204	1.000000	0.672767	7.36704e+06	-48839.1	955.818	-29761.3	0.000000	0.000000	6.673012	-0.073424	NaN	0.000000	0.001711	0.001686	28.0765	0.065129	0.001979	32.9131	125.114	14.6959	-0.094684	0.671351	-0.452711	-0.454128	-0.073424	32.9131	-0.451038	-706246	1.039632E-7	NaN
204	1.000000	0.682738	7.36704e+06	-48839.1	955.818	-29761.3	0.000000	0.000000	6.682985	-0.037374	NaN	0.000000	0.001719	0.001716	28.0769	0.130916	0.001995	65.6058	-67.1097	-168.199	-0.014327	0.681461	-0.442740	-0.444018	-0.037374	65.6058	-0.442313	-532102	7.023801E-8	NaN
204	1.000000	0.692804	7.36704e+06	-48839.1	955.818	-29761.3	0.000000	0.000000	6.693054	0.041217	NaN	0.000000	0.001673	0.001750	28.0766	0.025196	0.001989	12.67	-69.0984	11.1332	0.016027	0.691409	-0.432674	-0.434070	0.041217	12.67	-0.435114	-421077	-9.788571E-8	NaN
204	1.000000	0.702792	7.36704e+06	-48839.1	955.819	-29761.3	0.000000	0.000000	6.703038	-0.050215	NaN	0.000000	0.001714	0.001742	28.0768	0.048845	0.001985	24.6104	76.6004	-166.985	-0.075441	0.701467	-0.422686	-0.424011	-0.050215	24.6104	-0.421156	-267178	1.879444E-7	NaN
204	1.000000	0.712761	7.36704e+06	-48839.1	955.818	-29761.3	0.000000	0.000000	6.713007	-0.039419	NaN	0.000000	0.001690	0.001704	28.0766	0.040904	0.001892	21.615	-14.4766	10.0497	0.046964	0.711404	-0.412717	-0.414075	-0.039419	21.615	-0.411349	-193904	2.032897E-7	NaN
204	1.000000	0.722779	7.36704e+06	-48839.1	955.818	-29761.3	0.000000	0.000000	6.723027	0.014881	NaN	0.000000	0.001690	0.001697	28.0768	0.065602	0.001975	33.2153	55.8297	-166.416	0.001730	0.721463	-0.402700	-0.404015	0.014881	33.2153	-0.403036	-147661	-1.007800E-7	NaN
204	1.000000	0.732818	7.36704e+06	-48839.1	955.819	-29761.3	0.000000	0.000000	6.733066	-0.002806	NaN	0.000000	0.001675	0.001714	28.0766	0.052863	0.002009	26.3195	-84.9608	11.7293	-0.058389	0.731444	-0.392660	-0.394035	-0.002806	26.3195	-0.392580	-104726	2.679387E-8	NaN
204	1.000000	0.742774	7.36704e+06	-48839.1	955.818	-29761.3	0.000000	0.000000	6.743020	-0.037852	NaN	0.000000	0.001656	0.001698	28.0766	0.059428	0.001959	30.3421	-131.284	-166.202	-0.079998	0.741469	-0.382704	-0.384009	-0.037852	30.3421	-0.381769	-73326.9	5.162046E-7	NaN
204	1.000000	0.752788	7.36704e+06	-48839.1	955.818	-29761.3	0.000000	0.000000	6.753035	-0.034288	NaN	0.000000	0.001675	0.001705	28.0779	0.074930	0.001818	41.216	169.293	14.7892	-0.038718	0.751450	-0.372690	-0.374028	-0.034288	41.216	-0.372066	-53195.2	6.445600E-7	NaN
204	1.000000	0.762806	7.36704e+06	-48839.1	955.818	-29761.3	0.000000	0.000000	6.763053	-0.009317	NaN	0.000000	0.001700	0.001769	28.0778	0.033963	0.002063	16.4606	148.164	-164.709	0.002163	0.761496	-0.362672	-0.363982	-0.009317	16.4606	-0.362248	-38399.5	2.426358E-7	NaN
204	1.000000	0.772789	7.36704e+06	-48839.1	955.818	-29761.3	0.000000	0.000000	6.773033	-0.068565	NaN	0.000000	0.001677	0.001683	28.0777	0.046227	0.001996	23.1631	94.3581	10.5107	-0.064297	0.771482	-0.352690	-0.353996	-0.068565	23.1631	-0.350470	-25931	2.644121E-6	NaN
204	1.000000	0.782789	7.36704e+06	-48839.1	955.818	-29761.3	0.000000	0.000000	6.783035	-0.031259	NaN	0.000000	0.001667	0.001680	28.0778	0.048917	0.002013	24.3057	-178.369	-167.582	-0.116947	0.781492	-0.342690	-0.343987	-0.031259	24.3057	-0.341725	-19350.4	1.615405E-6	NaN
204	1.000000	0.792822	7.36704e+06	-48839.1	955.818	-29761.3	0.000000	0.000000	6.793070	0.002985	NaN	0.000000	0.001667	0.001703	28.0782	0.078634	0.001844	42.6461	-61.6794	12.5041	-0.029838	0.791449	-0.332656	-0.334029	0.002985	42.6461	-0.332709	-14292.1	-2.088243E-7	NaN
204	1.000000	0.802807	7.36704e+06	-48839.1	955.818	-29761.3	0.000000	0.000000	6.803051	-0.075313	NaN	0.000000	0.001667	0.001701	28.0778	0.031427	0.002096	14.9912	-125.647	-165.034	-0.043326	0.801467	-0.322672	-0.324011	-0.075313	14.9912	-0.318904	-8963.94	8.401726E-6	NaN
204	1.000000	0.812869	7.36704e+06	-48839.1	955.818	-29761.3	0.000000	0.000000	6.813116	-0.012543	NaN	0.000000	0.001634	0.001697	28.0777	0.055806	0.002085	26.7643	-150.682	14.4809	0.042709	0.811437	-0.312610	-0.314041	-0.012543	26.7643	-0.312258	-7152.41	1.753653E-6	NaN
204	1.000000	0.822820	7.36704e+06	-48839.1	955.819	-29761.3	0.000000	0.000000	6.823066	-0.029183	NaN	0.000000	0.001726	0.001689	28.0778	0.056405	0.001998	28.2363	-115.036	-166.368	0.021664	0.821551	-0.302659	-0.303927	-0.029183	28.2363	-0.301883	-5019.46	5.813994E-6	NaN
204	1.000000	0.832832	7.36704e+06	-48839.1	955.818	-29761.3	0.000000	0.000000	6.833078	-0.037947	NaN	0.000000	0.001705	0.001727	28.0778	0.153074	0.001954	78.3565	-108.856	13.2185	0.016148	0.831551	-0.292647	-0.293927	-0.037947	78.3565	-0.292283	-3609.82	1.051229E-5	NaN
204	1.000000	0.842859	7.36704e+06	-48839.1	955.818	-29761.3	0.000000	0.000000	6.843107	0.026729	NaN	0.000000	0.001733	0.001716	28.0779	0.123167	0.002025	60.8293	-93.6005	-168.057	0.040349	0.841505	-0.282620	-0.283973	0.026729	60.8293	-0.282949	-2614.67	-1.022284E-5	NaN
204	1.000000	0.852837	7.36704e+06	-48839.1	955.818	-29761.3	0.000000	0.000000	6.853083	-0.049248	NaN	0.000000	0.001685	0.001696	28.0778	0.008467	0.002052	4.126235	-88.9931	16.2102	-0.055739	0.851486	-0.272641	-0.273992	-0.049248	4.126235	-0.263689	-1334.66	3.689945E-5	NaN
204	1.000000	0.862853	7.36704e+06	-48839.1	955.819	-29761.3	0.000000	0.000000	6.863100	-0.012299	NaN	0.000000	0.001674	0.001705	28.078	0.093837	0.001883	49.8461	-96.7075	-162.24	0.041370	0.861542	-0.262626	-0.263936	-0.012299	49.8461	-0.262440	-1277.27	9.629014E-6	NaN
204	1.000000	0.872861	7.36704e+06	-48839.1	955.819	-29761.3	0.000000	0.000000	6.873108	-0.024353	NaN	0.000000	0.001684	0.001722	28.0777	0.029730	0.002074	14.332	-143.693	13.7629	-0.052057	0.871519	-0.252617	-0.253959	-0.024353	14.332	-0.251343	-862.424	2.823756E-5	NaN
204	1.000000	0.882851	7.36704e+06	-48839.1	955.819	-29761.3	0.000000	0.000000	6.883098	-0.001910	NaN	0.000000	0.001658	0.001740	28.078	0.057639	0.002031	28.3782	121.603	-169.87	-0.048553	0.881555	-0.242628	-0.243923	-0.001910	28.3782	-0.242577	-630.602	3.028390E-6	NaN
204	1.000000	0.892870	7.36704e+06	-48839.1	955.818	-29761.3	0.000000	0.000000	6.893118	0.022216	NaN	0.000000	0.001699	0.001723	28.0763	0.042912	0.002042	21.0178	91.578	9.847082	0.039034	0.891460	-0.232609	-0.234019	0.022216	21.0178	-0.233401	-453.027	-4.903818E-5	NaN
204	1.000000	0.902849	7.36704e+06	-48839.1	955.818	-29761.3	0.000000	0.000000	6.903098	0.032060	NaN	0.000000	0.001665	0.001702	28.0767	0.057852	0.001953	29.6223	169.043	-164.511	0.026991	0.901557	-0.222629	-0.223921	0.032060	29.6223	-0.223441	-315.172	-0.000102	NaN
204	1.000000	0.912867	7.36704e+06	-48839.1	955.819	-29761.3	0.000000	0.000000	6.913114	-0.023622	NaN	0.000000	0.001653	0.001705	28.0764	0.057368	0.002059	27.8568	130.961	13.3656	-0.000369	0.911497	-0.212611	-0.213981	-0.023622	27.8568	-0.211975	-206.424	0.000114	NaN
204	1.000000	0.922890	7.36704e+06	-48839.1	955.819	-29761.3	0.000000	0.000000	6.923138	-0.006282	NaN	0.000000	0.001656	0.001677	28.0765	0.024883	0.001981	12.5618	-116.039	-166.137	0.006127	0.921594	-0.202588	-0.203884	-0.006282	12.5618	-0.202213	-143.221	4.386117E-5	NaN
204	1.000000	0.932868	7.36704e+06	-48839.1	955.819	-29761.3	0.000000	0.000000	6.933115	-0.028412	NaN	0.000000	0.001689	0.001731	28.0766	0.119333	0.001877	63.5634	-164.398	16.1127	-0.023381	0.931427	-0.192610	-0.194051	-0.028412	63.5634	-0.192275	-98.1659	0.000289	NaN
204	1.000000	0.942878	7.36704e+06	-48839.1	955.818	-29761.3	0.000000	0.000000	6.943124	-0.033745	NaN	0.000000	0.001689	0.001705	28.0767	0.052772	0.002010	26.2586	-0.102215	-165.542	-0.037760	0.941542	-0.182600	-0.183936	-0.033745	26.2586	-0.181636	-65.0524	0.000519	NaN
204	1.000000	0.952896	7.36704e+06	-48839.1	955.818	-29761.3	0.000000	0.000000	6.953144	-0.006536	NaN	0.000000	0.001662	0.001723	28.0766	0.037304	0.001979	18.8495	43.1705	15.1951	-0.018341	0.951520	-0.172582	-0.173959	-0.006536	18.8495	-0.172322	-45.0641	0.000145	NaN
204	1.000000	0.962884	7.36704e+06	-48839.1	955.817	-29761.3	0.000000	0.000000	6.963129	-0.066133	NaN	0.000000	0.001738	0.001738	28.0767	0.047425	0.002055	23.0783	-8.684327	-167.823	-0.041235	0.961568	-0.162594	-0.163910	-0.066133	23.0783	-0.160445	-27.9186	0.002369	NaN
204	1.000000	0.972910	7.36704e+06	-48839.1	955.817	-29761.3	0.000000	0.000000	6.973157	-0.036232	NaN	0.000000	0.001775	0.001742	28.0767	0.022265	0.001893	11.7604	142.219	17.4801	0.034449	0.971525	-0.152568	-0.153953	-0.036232	11.7604	-0.150257	-18.3104	0.001979	NaN
204	1.000000	0.982895	7.36704e+06	-48839.1	955.817	-29761.3	0.000000	0.000000	6.983140	-0.055751	NaN	0.000000	0.001741	0.001737	28.0769	0.076852	0.001986	38.6894	172.153	-167.754	-0.127212	0.981557	-0.142583	-0.143921	-0.055751	38.6894	-0.141503	-12.622	0.004417	NaN
204	1.000000	0.992906	7.36704e+06	-48839.1	955.817	-29761.3	0.000000	0.000000	6.993153	-0.029222	NaN	0.000000	0.001742	0.001775	28.0768	0.061884	0.001947	31.7888	-62.0344	13.0104	-0.079880	0.991539	-0.132572	-0.133939	-0.029222	31.7888	-0.131883	-8.288157	0.003526	NaN
204	1.000000	1.002917	7.36704e+06	-48839.1	955.817	-29761.3	0.000000	0.000000	7.003164	-0.032750	NaN	0.000000	0.001787	0.001799	28.0768	0.063047	0.002124	29.6826	160.555	-166.835	-0.009311	1.001611	-0.122561	-0.123867	-0.032750	29.6826	-0.121734	-5.235371	0.006256	NaN
204	1.000000	1.012928	7.36704e+06	-48839.1	955.817	-29761.3	0.000000	0.000000	7.013173	-0.074145	NaN	0.000000	0.001720	0.001760	28.0776	0.111126	0.001992	55.7841	83.3635	13.9833	-0.076168	1.011570	-0.112550	-0.113908	-0.074145	55.7841	-0.111553	-3.239739	0.022886	NaN
204	1.000000	1.022927	7.36704e+06	-48839.1	955.817	-29761.3	0.000000	0.000000	7.023174	-0.031305	NaN	0.000000	0.001708	0.001729	28.077	0.063494	0.001980	32.073	99.1903	-165.016	-0.059513	1.021602	-0.102551	-0.103876	-0.031305	32.073	-0.101819	-2.004027	0.015621	NaN
204	1.000000	1.032889	7.36704e+06	-48839.1	955.817	-29761.3	0.000000	0.000000	7.033136	-0.018009	NaN	0.000000	0.001687	0.001745	28.078	0.082942	0.002072	40.0391	0.635331	14.428	0.014389	1.031543	-0.092589	-0.093935	-0.018009	40.0391	-0.092252	-1.219815	0.014764	NaN
204	1.000000	1.042902	7.36704e+06	-48839.1	955.817	-29761.3	0.000000	0.000000	7.043151	0.028053	NaN	0.000000	0.001731	0.001698	28.078	0.110158	0.002064	53.3627	36.6554	-165.03	0.020228	1.041591	-0.082576	-0.083887	0.028053	53.3627	-0.082970	-0.733214	-0.038261	NaN
204	1.000000	1.052928	7.36704e+06	-48839.1	955.817	-29761.3	0.000000	0.000000	7.053178	0.062854	NaN	0.000000	0.001697	0.001698	28.0787	0.123518	0.001995	61.9155	48.9278	13.1789	-0.018086	1.051552	-0.072550	-0.073926	0.062854	61.9155	-0.073312	-0.417429	-0.150575	NaN
204	1.000000	1.062951	7.36704e+06	-48839.1	955.817	-29761.3	0.000000	0.000000	7.063201	0.063705	NaN	0.000000	0.001712	0.001739	28.0779	0.128563	0.002100	61.2236	129.049	-164.846	0.043369	1.061635	-0.062527	-0.063844	0.063705	61.2236	-0.063308	-0.223543	-0.284978	NaN
204	1.000000	1.072913	7.36704e+06	-48839.1	955.816	-29761.3	0.000000	0.000000	7.073160	-0.012510	NaN	0.000000	0.001700	0.001706	28.0782	0.183843	0.001931	95.221	14.8759	12.8524	-0.033169	1.071559	-0.052565	-0.053920	-0.012510	95.221	-0.052467	-0.108262	0.115556	NaN
204	1.000000	1.082969	7.36704e+06	-48839.1	955.817	-29761.3	0.000000	0.000000	7.083217	0.021739	NaN	0.000000	0.001693	0.001694	28.0778	0.106214	0.001973	53.8247	97.9168	-169.503	-0.015208	1.081592	-0.042510	-0.043887	0.021739	53.8247	-0.042813	-0.055093	-0.394581	NaN
204	1.000000	1.092952	7.36704e+06	-48839.1	955.818	-29761.3	0.000000	0.000000	7.093205	0.110459	NaN	0.000000	0.001715	0.001726	28.0784	0.085553	0.002112	40.5017	131.788	12.2102	0.071504	1.091524	-0.032526	-0.033954	0.110459	40.5017	-0.034571	-0.031109	-3.550774	NaN
204	1.000000	1.102932	7.36704e+06	-48839.1	955.817	-29761.3	0.000000	0.000000	7.103180	-0.007726	NaN	0.000000	0.001677	0.001715	28.0779	0.065483	0.002126	30.8056	72.4268	-167.248	-0.014064	1.101670	-0.022546	-0.023809	-0.007726	30.8056	-0.022358	-0.014421	0.535778	NaN
204	1.000000	1.112934	7.36704e+06	-48839.1	955.817	-29761.3	0.000000	0.000000	7.113183	0.021722	NaN	0.000000	0.001639	0.001713	28.0782	0.038853	0.002077	18.7053	30.2091	14.0127	-0.023244	1.111607	-0.012544	-0.013871	0.021722	18.7053	-0.013415	-0.008343	-2.603723	NaN
204	1.000000	1.122926	7.36704e+06	-48839.1	955.817	-29761.3	0.000000	0.000000	7.123206	0.785603	NaN	0.000000	0.001682	0.001728	28.0779	0.924660	0.001986	465.668	16.0234	-168.64	0.468188	1.121622	-0.002552	-0.003856	0.785603	465.668	-0.003818	-0.002660	-295.297	NaN
204	1.000000	1.132911	7.36704e+06	-48839.1	955.818	-29761.3	0.000000	0.000000	7.133499	8.256811	NaN	0.000000	0.001674	0.001708	28.0782	5.500506	0.001751	3140.84	5.186927	11.2519	6.039117	1.131536	0.007433	0.006058	8.256811	3140.84	0.005462	0.004559	1811.29	42501.8
204	2.000000	1.136499	7.36704e+06	-48839.1	955.818	-29761.3	0.000000	0.000000	7.137236	11.9077	NaN	0.000000	0.001690	0.001696	28.078	8.459814	0.001593	5308.98	7.040528	-172.648	12.1619	1.136244	0.011020	0.010765	11.9077	5308.98	0.009338	0.008455	1408.32	52749.8
204	2.000000	1.138957	7.36704e+06	-48839.1	955.818	-29761.3	0.000000	0.000000	7.139631	10.3747	NaN	0.000000	0.001659	0.001719	28.078	11.0122	0.001863	5910.67	10.5289	5.272126	9.940655	1.138580	0.013479	0.013101	10.3747	5910.67	0.012162	0.011685	887.881	49957.4
204	2.000000	1.141430	7.36704e+06	-48839.1	955.818	-29761.3	0.000000	0.000000	7.142219	13.1815	NaN	0.000000	0.001662	0.001719	28.077	13.5418	0.001891	7163.01	7.831271	-174.005	13.2722	1.141142	0.015951	0.015664	13.1815	7163.01	0.014571	0.014718	895.607	53944.3
204	2.000000	1.143946	7.36704e+06	-48839.1	955.819	-29761.3	0.000000	0.000000	7.144940	18.1514	NaN	0.000000	0.001681	0.001692	28.0767	16.185	0.001685	9606.58	6.503275	3.825956	17.093	1.143566	0.018468	0.018088	18.1514	9606.58	0.017051	0.018118	1001.85	65206.3
204	2.000000	1.146387	7.36704e+06	-48839.1	955.818	-29761.3	0.000000	0.000000	7.147475	20.4322	NaN	0.000000	0.001638	0.001730	28.0767	18.4337	0.001763	10458.5	9.852071	178.592	19.048	1.146136	0.020909	0.020658	20.4322	10458.5	0.019443	0.021675	942.653	64902.1
204	2.000000	1.148903	7.36704e+06	-48839.1	955.818	-29761.3	0.000000	0.000000	7.150336	28.827	NaN	0.000000	0.001640	0.001697	28.0765	21.2176	0.001671	12695.6	3.241830	2.630714	27.0639	1.148541	0.023425	0.023063	28.827	12695.6	0.021722	0.025321	1138.48	72893.6
204	2.000000	1.151407	7.36704e+06	-48839.1	955.818	-29761.3	0.000000	0.000000	7.152957	31.6778	NaN	0.000000	0.001663	0.001741	28.077	24.3664	0.001887	12913.2	9.886704	177.985	31.2214	1.151045	0.025928	0.025567	31.6778	12913.2	0.024088	0.029378	1078.28	68832.8
204	2.000000	1.153891	7.36704e+06	-48839.1	955.819	-29761.3	0.000000	0.000000	7.155741	38.954	NaN	0.000000	0.001664	0.001742	28.0766	26.416	0.001835	14392.3	6.744060	-0.314080	37.4068	1.153497	0.028413	0.028019	38.954	14392.3	0.026383	0.033580	1160.03	71756.6
204	2.000000	1.156345	7.36704e+06	-48839.1	955.818	-29761.3	0.000000	0.000000	7.158404	44.0629	NaN	0.000000	0.001634	0.001746	28.0766	28.5068	0.001834	15542	4.179337	-178.633	41.1412	1.155978	0.030866	0.030500	44.0629	15542	0.028740	0.038173	1154.3	72677.8
204	2.000000	1.158849	7.36704e+06	-48839.1	955.818	-29761.3	0.000000	0.000000	7.161188	50.8495	NaN	0.000000	0.001646	0.001716	28.0767	30.9733	0.001776	17440.1	2.385538	1.687032	46.6072	1.158505	0.033371	0.033027	50.8495	17440.1	0.031184	0.043234	1176.15	76631.9
204	2.000000	1.161370	7.36704e+06	-48839.1	955.818	-29761.3	0.000000	0.000000	7.163948	56.6811	NaN	0.000000	0.001729	0.001733	28.0767	33.9251	0.001926	17614.1	6.121178	177.632	55.2804	1.161137	0.035891	0.035659	56.6811	17614.1	0.033478	0.048261	1174.47	73254.4
204	2.000000	1.163855	7.36704e+06	-48839.1	955.818	-29761.3	0.000000	0.000000	7.166720	63.6608	NaN	0.000000	0.001696	0.001705	28.0765	34.892	0.001725	20225.2	3.303209	-0.134103	61.9828	1.163562	0.038377	0.038083	63.6608	20225.2	0.036016	0.054139	1175.88	79416.7
204	2.000000	1.166403	7.36704e+06	-48839.1	955.818	-29761.3	0.000000	0.000000	7.169457	68.2426	NaN	0.000000	0.001768	0.001660	28.0765	36.9841	0.001698	21786	4.872249	177.715	68.761	1.166037	0.040925	0.040559	68.2426	21786	0.038575	0.060399	1129.87	80991
204	2.000000	1.168840	7.36704e+06	-48839.1	955.817	-29761.3	0.000000	0.000000	7.172292	77.9449	NaN	0.000000	0.001732	0.001669	28.0767	40.3324	0.001786	22578.3	4.703124	-3.452848	76.1549	1.168596	0.043361	0.043118	77.9449	22578.3	0.040772	0.066039	1180.28	80271.7
204	2.000000	1.171357	7.36704e+06	-48839.1	955.817	-29761.3	0.000000	0.000000	7.174969	81.8124	NaN	0.000000	0.001740	0.001707	28.0764	43.389	0.001831	23693.6	5.246129	175.85	81.0593	1.171165	0.045879	0.045687	81.8124	23693.6	0.043289	0.072805	1123.72	80227.3
204	2.000000	1.173874	7.36704e+06	-48839.1	955.818	-29761.3	0.000000	0.000000	7.178225	99.7971	NaN	0.000000	0.001667	0.001684	28.0767	44.5244	0.001707	26080.7	6.426104	-4.867824	97.8374	1.173500	0.048396	0.048022	99.7971	26080.7	0.045526	0.079088	1261.85	84730
204	2.000000	1.176280	7.36704e+06	-48839.1	955.818	-29761.3	0.000000	0.000000	7.181032	109.538	NaN	0.000000	0.001706	0.001698	28.0779	46.8678	0.001752	26756.3	3.411343	176.895	106.115	1.176016	0.050802	0.050538	109.538	26756.3	0.047732	0.085531	1280.68	83586.6
204	2.000000	1.178830	7.36704e+06	-48839.1	955.818	-29761.3	0.000000	0.000000	7.183717	112.845	NaN	0.000000	0.001729	0.001713	28.0781	50.9973	0.001875	27205.6	7.990164	-7.419486	109.774	1.178470	0.053351	0.052992	112.845	27205.6	0.050241	0.093158	1211.33	81436.8
204	2.000000	1.181319	7.36704e+06	-48839.1	955.819	-29761.3	0.000000	0.000000	7.186913	130.016	NaN	0.000000	0.001690	0.001698	28.0777	52.1821	0.001816	28731.9	5.951297	174.974	128.516	1.180937	0.055841	0.055459	130.016	28731.9	0.052447	0.100127	1298.51	82958.5
204	2.000000	1.183870	7.36704e+06	-48839.1	955.819	-29761.3	0.000000	0.000000	7.189886	140.29	NaN	0.000000	0.001744	0.001688	28.0776	55.4266	0.001887	29375.7	8.455912	-8.418461	138.159	1.183442	0.058391	0.057964	140.29	29375.7	0.054810	0.107857	1300.71	81721.7
204	2.000000	1.186385	7.36704e+06	-48839.1	955.819	-29761.3	0.000000	0.000000	7.192832	150.782	NaN	0.000000	0.001756	0.001707	28.0778	57.1251	0.001817	31443.6	4.581160	174.736	151.844	1.186017	0.060906	0.060539	150.782	31443.6	0.057310	0.116339	1296.06	84225.6
204	2.000000	1.188888	7.36704e+06	-48839.1	955.819	-29761.3	0.000000	0.000000	7.195833	162.89	NaN	0.000000	0.001716	0.001723	28.0776	59.456	0.001704	34882.2	6.693728	-8.018673	163.22	1.188486	0.063409	0.063008	162.89	34882.2	0.059907	0.125475	1298.18	89970.2
204	2.000000	1.191278	7.36704e+06	-48839.1	955.818	-29761.3	0.000000	0.000000	7.198786	176.578	NaN	0.000000	0.001758	0.001728	28.0778	61.8863	0.001805	34294.9	-1.008367	179.881	172.756	1.190971	0.065799	0.065493	176.578	34294.9	0.061938	0.132848	1329.17	85965.6
204	2.000000	1.193805	7.36704e+06	-48839.1	955.818	-29761.3	0.000000	0.000000	7.201722	186.523	NaN	0.000000	0.001737	0.001702	28.0777	64.5391	0.001751	36865.8	5.439464	-7.236179	182.251	1.193591	0.068326	0.068113	186.523	36865.8	0.064532	0.142558	1308.4	89207.3
204	2.000000	1.196324	7.36704e+06	-48839.1	955.818	-29761.3	0.000000	0.000000	7.204759	199.117	NaN	0.000000	0.001730	0.001683	28.078	66.2128	0.001654	40033.8	2.510758	174.428	197.789	1.196083	0.070846	0.070605	199.117	40033.8	0.067116	0.152552	1305.23	93646.2
204	2.000000	1.198792	7.36704e+06	-48839.1	955.819	-29761.3	0.000000	0.000000	7.208009	218.133	NaN	0.000000	0.001674	0.001747	28.0777	70.9083	0.001725	41103.2	7.362416	-10.6467	214.145	1.198373	0.073314	0.072895	218.133	41103.2	0.069333	0.161387	1351.61	93479.2
204	2.000000	1.201334	7.36704e+06	-48839.1	955.819	-29761.3	0.000000	0.000000	7.211003	229.145	NaN	0.000000	0.001674	0.001687	28.078	72.669	0.001831	39680.1	-0.018349	177.235	228.333	1.201098	0.075856	0.075620	229.145	39680.1	0.071525	0.170345	1345.18	87837.8
204	2.000000	1.203852	7.36705e+06	-48839.1	955.819	-29761.3	0.000000	0.000000	7.214348	249.253	NaN	0.000000	0.001658	0.001648	28.0777	75.5132	0.001759	42917.5	5.737472	-8.746403	246.099	1.203433	0.078373	0.077955	249.253	42917.5	0.074018	0.180814	1378.5	92212.7
204	2.000000	1.206323	7.36705e+06	-48839.1	955.818	-29761.3	0.000000	0.000000	7.217664	269.786	NaN	0.000000	0.001694	0.001688	28.0784	77.6082	0.001788	43394.5	3.723642	173.451	267.449	1.205947	0.080845	0.080469	269.786	43394.5	0.076182	0.190142	1418.87	90922.1
204	2.000000	1.208794	7.36705e+06	-48839.1	955.819	-29761.3	0.000000	0.000000	7.220851	287.235	NaN	0.000000	0.001698	0.001679	28.0773	80.2077	0.001691	47439.3	5.335943	-8.924922	282.937	1.208386	0.083315	0.082908	287.235	47439.3	0.078774	0.201600	1424.77	96530.8
204	2.000000	1.211217	7.36705e+06	-48839.1	955.819	-29761.3	0.000000	0.000000	7.223940	303.411	NaN	0.000000	0.001697	0.001719	28.0772	84.3848	0.001925	43834.6	3.749059	172.844	297.812	1.211003	0.085739	0.085525	303.411	43834.6	0.080547	0.209620	1447.44	87473
204	2.000000	1.213789	7.36705e+06	-48839.1	955.819	-29761.3	0.000000	0.000000	7.226872	312.168	NaN	0.000000	0.001717	0.001700	28.0767	85.1007	0.001782	47758.6	1.571801	-5.394648	308.263	1.213605	0.088311	0.088127	312.168	47758.6	0.083408	0.222867	1400.69	92427.6
204	2.000000	1.216297	7.36705e+06	-48839.1	955.818	-29761.3	0.000000	0.000000	7.230484	339.03	NaN	0.000000	0.001687	0.001689	28.077	87.0107	0.001739	50027.3	7.043960	168.917	338.837	1.215965	0.090818	0.090487	339.03	50027.3	0.085736	0.233924	1449.32	94502.6
204	2.000000	1.218765	7.36705e+06	-48839.1	955.82	-29761.3	0.000000	0.000000	7.233399	349.89	NaN	0.000000	0.001738	0.001684	28.0764	90.1094	0.001814	49682.1	5.668808	-9.668331	345.966	1.218503	0.093287	0.093025	349.89	49682.1	0.088005	0.244945	1428.45	91714.8
204	2.000000	1.221271	7.36705e+06	-48839.1	955.818	-29761.3	0.000000	0.000000	7.236666	368.406	NaN	0.000000	0.001694	0.001730	28.0767	92.106	0.001784	51627.7	3.920311	172.289	366.965	1.220932	0.095792	0.095454	368.406	51627.7	0.090441	0.257037	1433.28	93037.6
204	2.000000	1.223737	7.36705e+06	-48839.1	955.818	-29761.3	0.000000	0.000000	7.239497	377.268	NaN	0.000000	0.001678	0.001720	28.0765	93.3107	0.001738	53690.9	3.294922	-8.095155	370.86	1.223552	0.098259	0.098074	377.268	53690.9	0.092989	0.269980	1397.39	94407.8
204	2.000000	1.226322	7.36705e+06	-48839.1	955.818	-29761.3	0.000000	0.000000	7.242930	397.876	NaN	0.000000	0.001719	0.001716	28.0772	95.8881	0.001928	49729.5	1.979443	174.696	399.071	1.226029	0.100844	0.100551	397.876	49729.5	0.094844	0.279587	1423.09	85926.9
204	2.000000	1.228764	7.36705e+06	-48839.1	955.819	-29761.3	0.000000	0.000000	7.246139	416.559	NaN	0.000000	0.001724	0.001741	28.0763	99.1344	0.001789	55417.6	8.052788	-12.714	412.56	1.228459	0.103286	0.102980	416.559	55417.6	0.097648	0.294410	1414.89	93313.5
204	2.000000	1.231269	7.36705e+06	-48839.1	955.818	-29761.3	0.000000	0.000000	7.249400	434.929	NaN	0.000000	0.001723	0.001728	28.0768	101.206	0.001782	56802	4.717602	171.049	433.267	1.230922	0.105791	0.105444	434.929	56802	0.100048	0.307381	1414.95	93604.7
204	2.000000	1.232677	7.36705e+06	-48839.1	955.818	-29761.3	0.000000	0.000000	7.251272	446.229	NaN	0.000000	0.001692	0.001703	28.0766	102.926	0.001917	53691.5	9.032459	-13.1324	438.068	1.232311	0.107199	0.106833	446.229	53691.5	0.100966	0.312410	1428.34	87764