File: remote_trans/data/nanoindenter/0828-1/data/Data_2025-08-06,11h17m57s/2025-07-22_16-23-58_1_698.txt
2025-07-22, 16:23:58, 1
Index	Phase	Displacement	Time	Pos X	Pos Y	Pos Z	Rot A	Rot B	Piezo Z	Force A	Force B	Gripper	Voltage A	Voltage B	Temperature	Amplitude force	Amplitude pos	Stiffness	Phase shift	Phase excitation	Force A raw	Displacement raw	HMax	HMax raw	Real Force	Real Stiffness	Contact Depth	Area	Hardness	Reduced Mod.
[#]	[#]	[um]	[s]	[um]	[um]	[um]	[m°]	[m°]	[um]	[uN]	[uN]	[V]	[V]	[V]	[°C]	[uN]	[um]	[N/m]	[°]	[°]	[uN]	[um]	[um]	[um]	[uN]	[N/m]	[um]	[um^2]	[MPa]	[MPa]
698	1.000000	0.002230	7.37188e+06	-42189.1	1005.82	-29783.6	0.000000	0.000000	6.002793	0.061621	NaN	0.000000	0.001609	0.001830	28.0821	0.094697	0.000842	112.505	61.8783	-166.728	0.061410	0.000945	-1.087948	-1.089233	0.061621	112.505	-1.088359	-3.497656E+14	-1.761783E-16	NaN
698	1.000000	0.010220	7.37188e+06	-42189.1	1005.82	-29783.6	0.000000	0.000000	6.010783	0.079369	NaN	0.000000	0.001600	0.001845	28.0819	0.023914	0.000816	29.2915	165.399	-159.542	0.052395	0.008897	-1.079959	-1.081281	0.079369	29.2915	-1.081991	-2.872489E+14	-2.763064E-16	NaN
698	1.000000	0.018187	7.37188e+06	-42189.1	1005.82	-29783.6	0.000000	0.000000	6.018749	0.034925	NaN	0.000000	0.001590	0.001845	28.0819	0.072187	0.001694	42.6045	126.947	-166.437	-0.054577	0.016855	-1.071991	-1.073323	0.034925	42.6045	-1.072606	-2.148798E+14	-1.625334E-16	NaN
698	1.000000	0.026208	7.37188e+06	-42189.1	1005.82	-29783.6	0.000000	0.000000	6.026770	0.046066	NaN	0.000000	0.001592	0.001849	28.0817	0.077342	0.001955	39.5631	-156.504	-164.509	0.024575	0.024905	-1.063970	-1.065273	0.046066	39.5631	-1.064843	-1.690054E+14	-2.725692E-16	NaN
698	1.000000	0.034173	7.37188e+06	-42189.1	1005.82	-29783.6	0.000000	0.000000	6.034733	0.000246	NaN	0.000000	0.001611	0.001814	28.0822	0.058469	0.001941	30.1252	-64.0505	-164.267	0.013237	0.032905	-1.056005	-1.057273	0.000246	30.1252	-1.056011	-1.285914E+14	-1.910567E-18	NaN
698	1.000000	0.042164	7.37188e+06	-42189.1	1005.82	-29783.6	0.000000	0.000000	6.042728	0.092408	NaN	0.000000	0.001723	0.001813	28.082	0.046450	0.002009	23.1192	35.047	-166.26	0.088340	0.040891	-1.048014	-1.049287	0.092408	23.1192	-1.051012	-1.101589E+14	-8.388635E-16	NaN
698	1.000000	0.050202	7.37188e+06	-42189.1	1005.82	-29783.6	0.000000	0.000000	6.050763	0.027344	NaN	0.000000	0.001714	0.001826	28.0819	0.088766	0.002081	42.6653	73.6913	-166.984	0.033274	0.048835	-1.039976	-1.041344	0.027344	42.6653	-1.040457	-7.945326E+13	-3.441488E-16	NaN
698	1.000000	0.058164	7.37188e+06	-42189.1	1005.82	-29783.6	0.000000	0.000000	6.058725	0.020895	NaN	0.000000	0.001688	0.001828	28.0821	0.040081	0.002072	19.3454	-125.267	-165.609	0.016568	0.056896	-1.032014	-1.033283	0.020895	19.3454	-1.032824	-6.272887E+13	-3.331008E-16	NaN
698	1.000000	0.066142	7.37188e+06	-42189.1	1005.82	-29783.6	0.000000	0.000000	6.066704	0.067933	NaN	0.000000	0.001673	0.001827	28.0807	0.018329	0.002139	8.569575	160.302	-166.693	0.077364	0.064934	-1.024037	-1.025244	0.067933	8.569575	-1.029982	-5.744340E+13	-1.182609E-15	NaN
698	1.000000	0.074225	7.37188e+06	-42189.1	1005.82	-29783.6	0.000000	0.000000	6.074787	0.045576	NaN	0.000000	0.001683	0.001850	28.0817	0.198290	0.001965	100.905	-0.420885	-164.284	0.067740	0.072903	-1.015953	-1.017276	0.045576	100.905	-1.016292	-3.758893E+13	-1.212486E-15	NaN
698	1.000000	0.082182	7.37188e+06	-42189.1	1005.82	-29783.6	0.000000	0.000000	6.082744	0.038876	NaN	0.000000	0.001672	0.001843	28.0807	0.113243	0.001918	59.0563	-120.768	-165.71	0.071170	0.080923	-1.007996	-1.009256	0.038876	59.0563	-1.008490	-2.951588E+13	-1.317119E-15	NaN
698	1.000000	0.090187	7.37188e+06	-42189.1	1005.82	-29783.6	0.000000	0.000000	6.090750	0.065448	NaN	0.000000	0.001692	0.001805	28.0805	0.087737	0.002126	41.2724	-5.462073	-165.373	0.155357	0.088890	-0.999991	-1.001288	0.065448	41.2724	-1.001180	-2.353219E+13	-2.781192E-15	NaN
698	1.000000	0.098194	7.37188e+06	-42189.1	1005.82	-29783.6	0.000000	0.000000	6.098756	0.053430	NaN	0.000000	0.001655	0.001841	28.0809	0.066053	0.002045	32.2948	-164.218	-164.903	0.056585	0.096868	-0.991985	-0.993310	0.053430	32.2948	-0.993225	-1.838862E+13	-2.905625E-15	NaN
698	1.000000	0.106177	7.37188e+06	-42189.1	1005.82	-29783.6	0.000000	0.000000	6.106736	-0.013444	NaN	0.000000	0.001673	0.001827	28.0805	0.085336	0.001880	45.3928	148.694	-163.665	0.024824	0.104923	-0.984001	-0.985256	-0.013444	45.3928	-0.983779	-1.371897E+13	9.799347E-16	NaN
698	1.000000	0.114209	7.37188e+06	-42189.1	1005.82	-29783.6	0.000000	0.000000	6.114771	0.037416	NaN	0.000000	0.001672	0.001826	28.0809	0.063789	0.001902	33.5301	56.9406	-159.789	-0.011100	0.112881	-0.975969	-0.977297	0.037416	33.5301	-0.976806	-1.105034E+13	-3.385953E-15	NaN
698	1.000000	0.122224	7.37188e+06	-42189.1	1005.82	-29783.6	0.000000	0.000000	6.122783	-0.026132	NaN	0.000000	0.001658	0.001776	28.0805	0.046961	0.001933	24.2962	151.514	-161.897	-0.013761	0.120871	-0.967954	-0.969307	-0.026132	24.2962	-0.967148	-8.188803E+12	3.191187E-15	NaN
698	1.000000	0.130191	7.37188e+06	-42189.1	1005.82	-29783.6	0.000000	0.000000	6.130752	0.026817	NaN	0.000000	0.001652	0.001793	28.0806	0.026245	0.001984	13.2266	110.543	-164.947	-0.008176	0.128889	-0.959987	-0.961289	0.026817	13.2266	-0.961508	-6.873733E+12	-3.901414E-15	NaN
698	1.000000	0.138242	7.37188e+06	-42189.1	1005.82	-29783.6	0.000000	0.000000	6.138801	-0.020065	NaN	0.000000	0.001614	0.001797	28.081	0.074829	0.002068	36.1812	32.1653	-166.86	0.018621	0.136849	-0.951936	-0.953329	-0.020065	36.1812	-0.951520	-5.041143E+12	3.980274E-15	NaN
698	1.000000	0.146235	7.37188e+06	-42189.1	1005.82	-29783.6	0.000000	0.000000	6.146793	-0.052693	NaN	0.000000	0.001657	0.001777	28.0808	0.053593	0.002001	26.7883	153.985	-165.877	-0.053844	0.144873	-0.943943	-0.945305	-0.052693	26.7883	-0.942468	-3.805675E+12	1.384581E-14	NaN
698	1.000000	0.154214	7.37188e+06	-42189.1	1005.82	-29783.6	0.000000	0.000000	6.154777	0.056486	NaN	0.000000	0.001640	0.001818	28.0809	0.131116	0.001982	66.1595	135.401	-167.622	0.068961	0.152917	-0.935964	-0.937262	0.056486	66.1595	-0.936604	-3.171917E+12	-1.780825E-14	NaN
698	1.000000	0.162223	7.37188e+06	-42189.1	1005.82	-29783.6	0.000000	0.000000	6.162787	0.086804	NaN	0.000000	0.001635	0.001830	28.0806	0.149059	0.001907	78.1521	-84.7829	-165.301	0.059027	0.160873	-0.927955	-0.929306	0.086804	78.1521	-0.928788	-2.487948E+12	-3.488962E-14	NaN
698	1.000000	0.170233	7.37188e+06	-42189.1	1005.82	-29783.6	0.000000	0.000000	6.170791	-0.051079	NaN	0.000000	0.001620	0.001824	28.0808	0.031961	0.001960	16.3054	137.544	-167.055	0.069504	0.168905	-0.919945	-0.921274	-0.051079	16.3054	-0.917595	-1.756863E+12	2.907387E-14	NaN
698	1.000000	0.178240	7.37188e+06	-42189.1	1005.82	-29783.6	0.000000	0.000000	6.178800	-0.013641	NaN	0.000000	0.001610	0.001794	28.0809	0.079920	0.002023	39.5059	92.7398	-163.561	0.013642	0.176956	-0.911938	-0.913222	-0.013641	39.5059	-0.911679	-1.461644E+12	9.332521E-15	NaN
698	1.000000	0.186228	7.37188e+06	-42189.1	1005.82	-29783.6	0.000000	0.000000	6.186791	0.080630	NaN	0.000000	0.001627	0.001831	28.0806	0.081731	0.001947	41.9819	86.4005	-166.785	0.029829	0.184930	-0.903950	-0.905248	0.080630	41.9819	-0.905391	-1.201986E+12	-6.708085E-14	NaN
698	1.000000	0.194282	7.37188e+06	-42189.1	1005.82	-29783.6	0.000000	0.000000	6.194844	0.057964	NaN	0.000000	0.001622	0.001763	28.0809	0.050554	0.001933	26.155	-16.553	-166.252	-0.031284	0.192921	-0.895896	-0.897258	0.057964	26.155	-0.897559	-9.420509E+11	-6.152936E-14	NaN
698	1.000000	0.202265	7.37188e+06	-42189.1	1005.82	-29783.6	0.000000	0.000000	6.202823	-0.049771	NaN	0.000000	0.001631	0.001799	28.0819	0.057866	0.001974	29.3088	-175.759	-167.675	0.002609	0.200924	-0.887914	-0.889254	-0.049771	29.3088	-0.886640	-6.706445E+11	7.421385E-14	NaN
698	1.000000	0.210265	7.37188e+06	-42189.1	1005.82	-29783.6	0.000000	0.000000	6.210823	-0.039201	NaN	0.000000	0.001656	0.001797	28.0825	0.013041	0.001957	6.663492	11.4787	-164.026	-0.035008	0.208992	-0.879913	-0.881186	-0.039201	6.663492	-0.875501	-4.740908E+11	8.268590E-14	NaN
698	1.000000	0.218246	7.37188e+06	-42189.1	1005.82	-29783.6	0.000000	0.000000	6.218807	0.031276	NaN	0.000000	0.001624	0.001790	28.082	0.077129	0.002107	36.6054	-152.12	-164.471	-0.020168	0.216968	-0.871932	-0.873210	0.031276	36.6054	-0.872573	-4.327697E+11	-7.226899E-14	NaN
698	1.000000	0.226248	7.37188e+06	-42189.1	1005.82	-29783.6	0.000000	0.000000	6.226808	-0.001095	NaN	0.000000	0.001638	0.001754	28.082	0.048450	0.002042	23.7265	-11.2035	-165.121	0.071056	0.224934	-0.863930	-0.865244	-0.001095	23.7265	-0.863896	-3.302538E+11	3.316719E-15	NaN
698	1.000000	0.234252	7.37188e+06	-42189.1	1005.82	-29783.6	0.000000	0.000000	6.234813	0.026546	NaN	0.000000	0.001624	0.001812	28.082	0.054240	0.001958	27.7009	124.249	-162.575	-0.008181	0.232932	-0.855927	-0.857246	0.026546	27.7009	-0.856645	-2.634582E+11	-1.007604E-13	NaN
698	1.000000	0.242246	7.37188e+06	-42189.1	1005.82	-29783.6	0.000000	0.000000	6.242808	0.057835	NaN	0.000000	0.001675	0.001817	28.0819	0.061852	0.002133	28.9959	-76.6283	-165.711	-0.043110	0.240945	-0.847933	-0.849233	0.057835	28.9959	-0.849429	-2.103779E+11	-2.749099E-13	NaN
698	1.000000	0.250255	7.37188e+06	-42189.1	1005.82	-29783.6	0.000000	0.000000	6.250815	-0.001102	NaN	0.000000	0.001650	0.001803	28.0823	0.106767	0.001984	53.8278	179.037	-167.942	0.004220	0.248918	-0.839923	-0.841260	-0.001102	53.8278	-0.839908	-1.563319E+11	7.048634E-15	NaN
698	1.000000	0.258255	7.37188e+06	-42189.1	1005.82	-29783.6	0.000000	0.000000	6.258816	0.033673	NaN	0.000000	0.001561	0.001790	28.0818	0.096369	0.001935	49.8118	-138.56	-165.66	0.056706	0.256941	-0.831923	-0.833237	0.033673	49.8118	-0.832430	-1.238014E+11	-2.719902E-13	NaN
698	1.000000	0.266310	7.37188e+06	-42189.1	1005.82	-29783.6	0.000000	0.000000	6.266874	0.080969	NaN	0.000000	0.001568	0.001764	28.082	0.061426	0.002072	29.6426	-61.1226	-165.836	0.093435	0.264991	-0.823868	-0.825187	0.080969	29.6426	-0.825917	-1.010259E+11	-8.014661E-13	NaN
698	1.000000	0.274294	7.37188e+06	-42189.1	1005.82	-29783.6	0.000000	0.000000	6.274853	-0.012032	NaN	0.000000	0.001558	0.001724	28.0819	0.058821	0.002115	27.8145	17.1041	-164.825	0.028373	0.272994	-0.815885	-0.817184	-0.012032	27.8145	-0.815560	-7.311339E+10	1.645684E-13	NaN
698	1.000000	0.282259	7.37188e+06	-42189.1	1005.82	-29783.6	0.000000	0.000000	6.282821	0.035905	NaN	0.000000	0.001573	0.001810	28.0818	0.087257	0.001993	43.7844	-139.367	-167.841	0.000370	0.280950	-0.807919	-0.809228	0.035905	43.7844	-0.808534	-5.870533E+10	-6.116137E-13	NaN
698	1.000000	0.290298	7.37188e+06	-42189.1	1005.82	-29783.6	0.000000	0.000000	6.290857	-0.013506	NaN	0.000000	0.001526	0.001767	28.0819	0.023841	0.001956	12.1873	-109.939	-165.969	-0.051504	0.288988	-0.799880	-0.801190	-0.013506	12.1873	-0.799049	-4.364732E+10	3.094390E-13	NaN
698	1.000000	0.298292	7.37188e+06	-42189.1	1005.82	-29783.6	0.000000	0.000000	6.298852	-0.001638	NaN	0.000000	0.001518	0.001786	28.0818	0.063274	0.001917	33.0118	130.014	-166.512	-0.010289	0.297014	-0.791886	-0.793164	-0.001638	33.0118	-0.791849	-3.484894E+10	4.699838E-14	NaN
698	1.000000	0.306269	7.37188e+06	-42189.1	1005.82	-29783.6	0.000000	0.000000	6.306831	0.051432	NaN	0.000000	0.001579	0.001817	28.0821	0.055065	0.001952	28.2162	142.66	-162.731	0.001426	0.304982	-0.783909	-0.785197	0.051432	28.2162	-0.785276	-2.837385E+10	-1.812648E-12	NaN
698	1.000000	0.314287	7.37188e+06	-42189.1	1005.82	-29783.6	0.000000	0.000000	6.314847	0.005581	NaN	0.000000	0.001548	0.001795	28.082	0.059730	0.001878	31.7998	36.1815	-162.012	-0.030419	0.313005	-0.775892	-0.777173	0.005581	31.7998	-0.776023	-2.124159E+10	-2.627168E-13	NaN
698	1.000000	0.322304	7.37188e+06	-42189.1	1005.82	-29783.6	0.000000	0.000000	6.322864	0.020697	NaN	0.000000	0.001565	0.001789	28.0819	0.054980	0.002007	27.3887	64.3204	-162.412	0.050740	0.320975	-0.767875	-0.769203	0.020697	27.3887	-0.768441	-1.675377E+10	-1.235354E-12	NaN
698	1.000000	0.330278	7.37188e+06	-42189.1	1005.82	-29783.6	0.000000	0.000000	6.330839	0.014005	NaN	0.000000	0.001538	0.001809	28.0818	0.039761	0.002023	19.6513	36.6524	-167.098	0.067642	0.328945	-0.759900	-0.761233	0.014005	19.6513	-0.760435	-1.303811E+10	-1.074189E-12	NaN
698	1.000000	0.338287	7.37188e+06	-42189.1	1005.82	-29783.6	0.000000	0.000000	6.338849	0.043986	NaN	0.000000	0.001572	0.001770	28.0805	0.022895	0.002072	11.0483	-93.3641	-164.625	0.027674	0.336994	-0.751891	-0.753184	0.043986	11.0483	-0.754877	-1.095461E+10	-4.015320E-12	NaN
698	1.000000	0.346308	7.37188e+06	-42189.1	1005.82	-29783.6	0.000000	0.000000	6.346869	0.011706	NaN	0.000000	0.001632	0.001786	28.0808	0.105846	0.001938	54.6051	-41.8562	-167.072	0.047908	0.345014	-0.743870	-0.745164	0.011706	54.6051	-0.744031	-7.797454E+9	-1.501244E-12	NaN
698	1.000000	0.354300	7.37188e+06	-42189.1	1005.82	-29783.6	0.000000	0.000000	6.354863	0.062874	NaN	0.000000	0.001579	0.001785	28.0805	0.016512	0.002028	8.140673	131.436	-165.799	0.024623	0.352969	-0.735878	-0.737209	0.062874	8.140673	-0.741671	-7.241181E+9	-8.682788E-12	NaN
698	1.000000	0.362325	7.37188e+06	-42189.1	1005.82	-29783.6	0.000000	0.000000	6.362888	0.067234	NaN	0.000000	0.001559	0.001742	28.081	0.121380	0.001863	65.1671	46.5566	-164.657	0.050488	0.360996	-0.727853	-0.729183	0.067234	65.1671	-0.728627	-4.809369E+9	-1.397985E-11	NaN
698	1.000000	0.370316	7.37188e+06	-42189.1	1005.82	-29783.6	0.000000	0.000000	6.370878	0.069196	NaN	0.000000	0.001567	0.001754	28.0808	0.063849	0.001843	34.6397	-94.2552	-168.421	-0.029430	0.369006	-0.719863	-0.721172	0.069196	34.6397	-0.721361	-3.828523E+9	-1.807387E-11	NaN
698	1.000000	0.378325	7.37188e+06	-42189.1	1005.82	-29783.6	0.000000	0.000000	6.378885	-0.015536	NaN	0.000000	0.001593	0.001759	28.0807	0.061249	0.001907	32.116	-49.4425	-164.967	-0.053189	0.376969	-0.711853	-0.713209	-0.015536	32.116	-0.711490	-2.807897E+9	5.532977E-12	NaN
698	1.000000	0.386341	7.37188e+06	-42189.1	1005.82	-29783.6	0.000000	0.000000	6.386903	0.045308	NaN	0.000000	0.001584	0.001744	28.0809	0.029409	0.002048	14.3567	-38.3067	-164.391	0.064958	0.385075	-0.703837	-0.705103	0.045308	14.3567	-0.706204	-2.378113E+9	-1.905209E-11	NaN
698	1.000000	0.394328	7.37188e+06	-42189.1	1005.82	-29783.6	0.000000	0.000000	6.394891	0.087566	NaN	0.000000	0.001570	0.001765	28.0805	0.078138	0.002116	36.9213	-98.1778	-162.664	0.113088	0.393017	-0.695850	-0.697161	0.087566	36.9213	-0.697629	-1.816150E+9	-4.821533E-11	NaN
698	1.000000	0.402317	7.37188e+06	-42189.1	1005.82	-29783.6	0.000000	0.000000	6.402879	0.057681	NaN	0.000000	0.001558	0.001783	28.0806	0.093249	0.002018	46.1982	173.764	-164.375	0.039720	0.401069	-0.687861	-0.689109	0.057681	46.1982	-0.688798	-1.375591E+9	-4.193151E-11	NaN
698	1.000000	0.410342	7.37188e+06	-42189.1	1005.82	-29783.6	0.000000	0.000000	6.410904	0.035003	NaN	0.000000	0.001563	0.001773	28.0806	0.138930	0.001987	69.9278	109.969	-167.704	0.076514	0.409072	-0.679836	-0.681106	0.035003	69.9278	-0.680211	-1.049776E+9	-3.334286E-11	NaN
698	1.000000	0.418369	7.37188e+06	-42189.1	1005.82	-29783.6	0.000000	0.000000	6.418928	-0.016681	NaN	0.000000	0.001565	0.001765	28.0808	0.041046	0.002135	19.2259	-147.154	-166.474	0.057679	0.417020	-0.671810	-0.673158	-0.016681	19.2259	-0.671159	-7.893165E+8	2.113404E-11	NaN
698	1.000000	0.426325	7.37188e+06	-42189.1	1005.82	-29783.6	0.000000	0.000000	6.426890	0.140585	NaN	0.000000	0.001556	0.001770	28.0809	0.037439	0.002002	18.7	149.633	-165.716	0.158596	0.425029	-0.663854	-0.665149	0.140585	18.7	-0.669492	-7.489254E+8	-1.877159E-10	NaN
698	1.000000	0.434329	7.37188e+06	-42189.1	1005.82	-29783.6	0.000000	0.000000	6.434887	-0.044349	NaN	0.000000	0.001562	0.001776	28.0807	0.116629	0.002030	57.4658	-70.4966	-164.373	-0.059568	0.433039	-0.655849	-0.657140	-0.044349	57.4658	-0.655270	-4.782658E+8	9.272777E-11	NaN
698	1.000000	0.442353	7.37188e+06	-42189.1	1005.82	-29783.6	0.000000	0.000000	6.442915	0.042197	NaN	0.000000	0.001610	0.001755	28.0808	0.054783	0.001969	27.828	-146.98	-163.48	0.091460	0.440982	-0.647825	-0.649197	0.042197	27.828	-0.648962	-3.919305E+8	-1.076640E-10	NaN
698	1.000000	0.450357	7.37188e+06	-42189.1	1005.82	-29783.6	0.000000	0.000000	6.450920	0.074356	NaN	0.000000	0.001574	0.001797	28.0807	0.056572	0.001955	28.941	57.2203	-165.261	-0.018267	0.448990	-0.639821	-0.641188	0.074356	28.941	-0.641748	-3.120870E+8	-2.382543E-10	NaN
698	1.000000	0.458359	7.37188e+06	-42189.1	1005.82	-29783.6	0.000000	0.000000	6.458921	0.029092	NaN	0.000000	0.001601	0.001782	28.0807	0.031480	0.002044	15.4028	153.441	-164.395	-0.041641	0.457037	-0.631819	-0.633141	0.029092	15.4028	-0.633235	-2.384775E+8	-1.219919E-10	NaN
698	1.000000	0.466351	7.37188e+06	-42189.1	1005.82	-29783.6	0.000000	0.000000	6.466913	0.046758	NaN	0.000000	0.001601	0.001773	28.0808	0.066888	0.001985	33.7019	170.022	-164.725	0.047816	0.465048	-0.623827	-0.625131	0.046758	33.7019	-0.624868	-1.830335E+8	-2.554623E-10	NaN
698	1.000000	0.474341	7.37188e+06	-42189.1	1005.82	-29783.6	0.000000	0.000000	6.474903	0.041778	NaN	0.000000	0.001586	0.001801	28.082	0.050107	0.001902	26.3441	158.789	-162.002	0.044685	0.473043	-0.615837	-0.617135	0.041778	26.3441	-0.617027	-1.428105E+8	-2.925436E-10	NaN
698	1.000000	0.482335	7.37188e+06	-42189.1	1005.82	-29783.6	0.000000	0.000000	6.482895	0.022144	NaN	0.000000	0.001606	0.001784	28.0817	0.116663	0.002011	58.0051	57.2935	-163.558	0.036093	0.481097	-0.607844	-0.609081	0.022144	58.0051	-0.608130	-1.077415E+8	-2.055264E-10	NaN
698	1.000000	0.490362	7.37188e+06	-42189.1	1005.82	-29783.6	0.000000	0.000000	6.490922	-0.004076	NaN	0.000000	0.001572	0.001808	28.0819	0.096793	0.002027	47.7462	-105.103	-164.039	0.050712	0.489045	-0.599816	-0.601133	-0.004076	47.7462	-0.599752	-8.261320E+7	4.933579E-11	NaN
698	1.000000	0.498356	7.37188e+06	-42189.1	1005.82	-29783.6	0.000000	0.000000	6.498916	0.001190	NaN	0.000000	0.001575	0.001793	28.0817	0.176944	0.001984	89.2035	-139.176	-168.366	0.013577	0.497081	-0.591822	-0.593097	0.001190	89.2035	-0.591832	-6.425720E+7	-1.852230E-11	NaN
698	1.000000	0.506392	7.37188e+06	-42189.1	1005.82	-29783.6	0.000000	0.000000	6.506954	0.047309	NaN	0.000000	0.001571	0.001762	28.0817	0.043511	0.001853	23.4768	144.681	-166.024	0.115581	0.505020	-0.583786	-0.585158	0.047309	23.4768	-0.585297	-5.221745E+7	-9.059924E-10	NaN
698	1.000000	0.514384	7.37188e+06	-42189.1	1005.82	-29783.6	0.000000	0.000000	6.514945	0.025236	NaN	0.000000	0.001623	0.001786	28.0821	0.066309	0.002015	32.9108	-12.0841	-167.134	0.029723	0.513056	-0.575794	-0.577123	0.025236	32.9108	-0.576369	-3.931948E+7	-6.418241E-10	NaN
698	1.000000	0.522388	7.37188e+06	-42189.1	1005.82	-29783.6	0.000000	0.000000	6.522952	0.096691	NaN	0.000000	0.001612	0.001776	28.0816	0.090949	0.001998	45.5224	53.1359	-165.325	0.144830	0.521091	-0.567790	-0.569087	0.096691	45.5224	-0.569383	-3.148561E+7	-3.070964E-9	NaN
698	1.000000	0.530388	7.37188e+06	-42189.1	1005.82	-29783.6	0.000000	0.000000	6.530949	0.023520	NaN	0.000000	0.001629	0.001794	28.0821	0.076145	0.001910	39.8627	20.5783	-167.609	0.041762	0.529081	-0.559790	-0.561097	0.023520	39.8627	-0.560233	-2.352889E+7	-9.996385E-10	NaN
698	1.000000	0.538385	7.37188e+06	-42189.1	1005.82	-29783.6	0.000000	0.000000	6.538946	0.006375	NaN	0.000000	0.001626	0.001777	28.0819	0.081297	0.001914	42.4739	9.646842	-163.089	0.023599	0.537098	-0.551793	-0.553080	0.006375	42.4739	-0.551906	-1.804456E+7	-3.533048E-10	NaN
698	1.000000	0.546357	7.37188e+06	-42189.1	1005.82	-29783.6	0.000000	0.000000	6.546919	0.050345	NaN	0.000000	0.001627	0.001760	28.0819	0.153761	0.002015	76.3198	-24.4998	-165.262	0.038095	0.545142	-0.543821	-0.545037	0.050345	76.3198	-0.544316	-1.416429E+7	-3.554335E-9	NaN
698	1.000000	0.554401	7.37188e+06	-42189.1	1005.82	-29783.6	0.000000	0.000000	6.554961	0.014791	NaN	0.000000	0.001591	0.001754	28.0818	0.067602	0.002011	33.6159	146.333	-164.924	-0.005557	0.553087	-0.535777	-0.537091	0.014791	33.6159	-0.536107	-1.089828E+7	-1.357151E-9	NaN
698	1.000000	0.562382	7.37188e+06	-42189.1	1005.82	-29783.6	0.000000	0.000000	6.562943	0.000556	NaN	0.000000	0.001579	0.001773	28.0818	0.086014	0.002060	41.762	64.1476	-163.348	0.019274	0.561132	-0.527796	-0.529046	0.000556	41.762	-0.527806	-8.35788e+06	-6.651119E-11	NaN
698	1.000000	0.570420	7.37188e+06	-42189.1	1005.82	-29783.6	0.000000	0.000000	6.570979	-0.017650	NaN	0.000000	0.001558	0.001790	28.0817	0.050624	0.002048	24.7145	168.819	-165.123	-0.064241	0.569088	-0.519759	-0.521090	-0.017650	24.7145	-0.519223	-6.35026e+06	2.779397E-9	NaN
698	1.000000	0.578424	7.37188e+06	-42189.1	1005.82	-29783.6	0.000000	0.000000	6.578983	-0.010886	NaN	0.000000	0.001605	0.001747	28.0819	0.032637	0.001902	17.1634	-128.343	-166.883	0.078334	0.577054	-0.511755	-0.513124	-0.010886	17.1634	-0.511279	-4.92299e+06	2.211222E-9	NaN
698	1.000000	0.586385	7.37188e+06	-42189.1	1005.82	-29783.6	0.000000	0.000000	6.586946	0.013302	NaN	0.000000	0.001603	0.001788	28.082	0.025632	0.001967	13.0282	-92.8928	-166.29	0.062392	0.585088	-0.503793	-0.505090	0.013302	13.0282	-0.504559	-3.96819e+06	-3.352228E-9	NaN
698	1.000000	0.594414	7.37188e+06	-42189.1	1005.82	-29783.6	0.000000	0.000000	6.594976	0.037404	NaN	0.000000	0.001601	0.001784	28.0818	0.053383	0.002007	26.5967	160.404	-167.563	-0.034836	0.593126	-0.495764	-0.497053	0.037404	26.5967	-0.496819	-3.09476e+06	-1.208615E-8	NaN
698	1.000000	0.602420	7.37188e+06	-42189.1	1005.82	-29783.6	0.000000	0.000000	6.602982	0.038826	NaN	0.000000	0.001579	0.001790	28.0819	0.066124	0.001859	35.568	145.918	-169.498	0.039511	0.601137	-0.487758	-0.489041	0.038826	35.568	-0.488577	-2.37411e+06	-1.635392E-8	NaN
698	1.000000	0.610417	7.37188e+06	-42189.1	1005.82	-29783.6	0.000000	0.000000	6.610979	0.027339	NaN	0.000000	0.001572	0.001784	28.0809	0.081615	0.001983	41.1647	-145.61	-163.102	-0.013102	0.609147	-0.479761	-0.481031	0.027339	41.1647	-0.480259	-1.81614e+06	-1.505347E-8	NaN
698	1.000000	0.618429	7.37188e+06	-42189.1	1005.82	-29783.6	0.000000	0.000000	6.618990	0.014921	NaN	0.000000	0.001576	0.001789	28.0808	0.035700	0.002098	17.0186	-90.5759	-165.52	-0.021364	0.617102	-0.471749	-0.473076	0.014921	17.0186	-0.472407	-1.40979e+06	-1.058377E-8	NaN
698	1.000000	0.626397	7.37188e+06	-42189.1	1005.82	-29783.6	0.000000	0.000000	6.626961	0.095629	NaN	0.000000	0.001551	0.001799	28.0808	0.009417	0.001968	4.785458	134.287	-168.45	0.132167	0.625174	-0.463781	-0.465004	0.095629	4.785458	-0.478768	-1.73094e+06	-5.524660E-8	NaN
698	1.000000	0.634456	7.37188e+06	-42189.1	1005.82	-29783.6	0.000000	0.000000	6.635018	0.040699	NaN	0.000000	0.001568	0.001809	28.081	0.066442	0.001883	35.2944	-10.0229	-169.022	0.078164	0.633103	-0.455722	-0.457075	0.040699	35.2944	-0.456587	-845356	-4.814398E-8	NaN
698	1.000000	0.642438	7.37188e+06	-42189.1	1005.82	-29783.6	0.000000	0.000000	6.643000	0.036836	NaN	0.000000	0.001564	0.001744	28.0808	0.083613	0.002001	41.7897	169.81	-167.357	-0.041310	0.641111	-0.447740	-0.449067	0.036836	41.7897	-0.448401	-648368	-5.681350E-8	NaN
698	1.000000	0.650435	7.37188e+06	-42189.1	1005.82	-29783.6	0.000000	0.000000	6.650997	0.070038	NaN	0.000000	0.001603	0.001798	28.0806	0.098679	0.002057	47.9697	-122.119	-165.226	0.055670	0.649105	-0.439744	-0.441074	0.070038	47.9697	-0.440839	-507223	-1.380805E-7	NaN
698	1.000000	0.658449	7.37188e+06	-42189.1	1005.82	-29783.6	0.000000	0.000000	6.659012	0.062756	NaN	0.000000	0.001574	0.001812	28.0806	0.033416	0.002071	16.1355	-115.296	-167.314	0.113914	0.657154	-0.431729	-0.433024	0.062756	16.1355	-0.434646	-414717	-1.513213E-7	NaN
698	1.000000	0.666405	7.37188e+06	-42189.1	1005.82	-29783.6	0.000000	0.000000	6.666964	-0.018687	NaN	0.000000	0.001592	0.001806	28.0804	0.181431	0.001997	90.8451	99.7683	-162.626	0.039476	0.665111	-0.423773	-0.425067	-0.018687	90.8451	-0.423619	-289545	6.453803E-8	NaN
698	1.000000	0.674460	7.37188e+06	-42189.1	1005.82	-29783.6	0.000000	0.000000	6.675020	0.017455	NaN	0.000000	0.001606	0.001793	28.0807	0.041180	0.001981	20.7832	88.279	-165.534	-0.020019	0.673162	-0.415719	-0.417017	0.017455	20.7832	-0.416349	-228351	-7.643962E-8	NaN
698	1.000000	0.682434	7.37188e+06	-42189.1	1005.82	-29783.6	0.000000	0.000000	6.682994	-0.006222	NaN	0.000000	0.001589	0.001759	28.0808	0.047639	0.002125	22.4225	143.853	-166.903	-0.030570	0.681115	-0.407744	-0.409063	-0.006222	22.4225	-0.407536	-171139	3.635783E-8	NaN
698	1.000000	0.690469	7.37188e+06	-42189.1	1005.82	-29783.6	0.000000	0.000000	6.691030	0.017617	NaN	0.000000	0.001580	0.001799	28.0807	0.119587	0.002027	58.9964	-51.1788	-165.308	-0.042355	0.689124	-0.399709	-0.401054	0.017617	58.9964	-0.399933	-133363	-1.320977E-7	NaN
698	1.000000	0.698460	7.37188e+06	-42189.1	1005.82	-29783.6	0.000000	0.000000	6.699022	0.041111	NaN	0.000000	0.001616	0.001762	28.0808	0.047054	0.002037	23.1045	-164.125	-165.443	-0.029571	0.697118	-0.391718	-0.393060	0.041111	23.1045	-0.393053	-106368	-3.864944E-7	NaN
698	1.000000	0.706460	7.37188e+06	-42189.1	1005.82	-29783.6	0.000000	0.000000	6.707020	0.017698	NaN	0.000000	0.001604	0.001803	28.0805	0.042514	0.002037	20.8733	-35.642	-165.342	0.050907	0.705181	-0.383719	-0.384998	0.017698	20.8733	-0.384355	-79861.7	-2.216038E-7	NaN
698	1.000000	0.714487	7.37188e+06	-42189.1	1005.82	-29783.6	0.000000	0.000000	6.715047	0.005514	NaN	0.000000	0.001615	0.001787	28.0807	0.078784	0.001938	40.6505	-92.7375	-166.362	0.051869	0.713143	-0.375692	-0.377035	0.005514	40.6505	-0.375793	-60182.9	-9.162088E-8	NaN
698	1.000000	0.722452	7.37188e+06	-42189.1	1005.82	-29783.6	0.000000	0.000000	6.723015	0.067982	NaN	0.000000	0.001618	0.001801	28.0805	0.061994	0.002159	28.7167	-107.065	-164.018	0.096046	0.721208	-0.367726	-0.368971	0.067982	28.7167	-0.369501	-48859.1	-1.391382E-6	NaN
698	1.000000	0.730471	7.37188e+06	-42189.1	1005.82	-29783.6	0.000000	0.000000	6.731033	0.044124	NaN	0.000000	0.001598	0.001807	28.0809	0.112559	0.002007	56.0846	-172.985	-165.775	0.072364	0.729187	-0.359707	-0.360991	0.044124	56.0846	-0.360297	-35986.7	-1.226121E-6	NaN
698	1.000000	0.738435	7.37188e+06	-42189.1	1005.82	-29783.6	0.000000	0.000000	6.738998	0.060837	NaN	0.000000	0.001633	0.001796	28.0811	0.096264	0.001992	48.3136	-68.6107	-165.353	-0.003447	0.737124	-0.351743	-0.353055	0.060837	48.3136	-0.352688	-27924.7	-2.178625E-6	NaN
698	1.000000	0.746460	7.37188e+06	-42189.1	1005.82	-29783.6	0.000000	0.000000	6.747020	-9.342756E-5	NaN	0.000000	0.001624	0.001829	28.0822	0.059731	0.001990	30.0207	-126.437	-169.884	-0.042698	0.745165	-0.343718	-0.345014	-9.342756E-5	30.0207	-0.343716	-20685.9	4.516480E-9	NaN
698	1.000000	0.754496	7.37188e+06	-42189.1	1005.82	-29783.6	0.000000	0.000000	6.755057	0.013281	NaN	0.000000	0.001587	0.001795	28.0822	0.106700	0.001945	54.8684	18.9537	-166.901	0.003740	0.753180	-0.335682	-0.336998	0.013281	54.8684	-0.335863	-15892.7	-8.356786E-7	NaN
698	1.000000	0.762476	7.37188e+06	-42189.1	1005.82	-29783.6	0.000000	0.000000	6.763040	0.075444	NaN	0.000000	0.001602	0.001796	28.082	0.028815	0.001933	14.9084	-121.109	-163.167	0.055802	0.761179	-0.327702	-0.328999	0.075444	14.9084	-0.331497	-13720.5	-5.498683E-6	NaN
698	1.000000	0.770469	7.37188e+06	-42189.1	1005.82	-29783.6	0.000000	0.000000	6.771030	0.016302	NaN	0.000000	0.001575	0.001800	28.082	0.061407	0.002135	28.7603	-61.769	-164.677	-0.014496	0.769159	-0.319709	-0.321020	0.016302	28.7603	-0.320134	-9345.7	-1.744343E-6	NaN
698	1.000000	0.778485	7.37188e+06	-42189.1	1005.82	-29783.6	0.000000	0.000000	6.779049	0.085850	NaN	0.000000	0.001621	0.001792	28.0819	0.043229	0.002050	21.0849	126.488	-166.072	0.011926	0.777183	-0.311693	-0.312995	0.085850	21.0849	-0.314747	-7784.17	-1.102883E-5	NaN
698	1.000000	0.786476	7.37188e+06	-42189.1	1005.82	-29783.6	0.000000	0.000000	6.787037	0.020847	NaN	0.000000	0.001560	0.001813	28.0818	0.159890	0.001992	80.279	-113.581	-166.783	0.026584	0.785174	-0.303702	-0.305004	0.020847	80.279	-0.303897	-5377.44	-3.876682E-6	NaN
698	1.000000	0.794463	7.37188e+06	-42189.1	1005.82	-29783.6	0.000000	0.000000	6.795022	-0.010859	NaN	0.000000	0.001613	0.001832	28.082	0.038208	0.002148	17.7861	3.658505	-165.289	0.026854	0.793207	-0.295716	-0.296971	-0.010859	17.7861	-0.295258	-3998.87	2.715504E-6	NaN
698	1.000000	0.802472	7.37188e+06	-42189.1	1005.82	-29783.6	0.000000	0.000000	6.803031	-0.018315	NaN	0.000000	0.001632	0.001823	28.0818	0.074442	0.001992	37.3673	99.4481	-165.921	0.011234	0.801117	-0.287706	-0.289061	-0.018315	37.3673	-0.287338	-3043.63	6.017574E-6	NaN
698	1.000000	0.810482	7.37188e+06	-42189.1	1005.82	-29783.6	0.000000	0.000000	6.811044	0.052871	NaN	0.000000	0.001632	0.001834	28.082	0.067551	0.001865	36.2184	-55.5807	-162.82	0.044484	0.809167	-0.279696	-0.281011	0.052871	36.2184	-0.280791	-2426.06	-2.179302E-5	NaN
698	1.000000	0.818496	7.37188e+06	-42189.1	1005.82	-29783.6	0.000000	0.000000	6.819053	-0.083358	NaN	0.000000	0.001591	0.001814	28.0818	0.106844	0.002052	52.0595	6.288741	-164.288	-0.111829	0.817195	-0.271682	-0.272983	-0.083358	52.0595	-0.270481	-1693.78	4.921436E-5	NaN
698	1.000000	0.826528	7.37188e+06	-42189.1	1005.82	-29783.6	0.000000	0.000000	6.827088	-0.018330	NaN	0.000000	0.001625	0.001804	28.082	0.095103	0.001950	48.7674	127.35	-162.537	-0.007040	0.825219	-0.263650	-0.264959	-0.018330	48.7674	-0.263368	-1319.66	1.389004E-5	NaN
698	1.000000	0.834524	7.37188e+06	-42189.1	1005.82	-29783.6	0.000000	0.000000	6.835085	0.017186	NaN	0.000000	0.001584	0.001766	28.0819	0.051750	0.001916	27.0055	153.8	-165.398	0.003995	0.833236	-0.255654	-0.256942	0.017186	27.0055	-0.256132	-1022.18	-1.681317E-5	NaN
698	1.000000	0.842531	7.37188e+06	-42189.1	1005.82	-29783.6	0.000000	0.000000	6.843090	-0.033214	NaN	0.000000	0.001620	0.001807	28.0821	0.031093	0.001921	16.1836	-87.3674	-164.747	0.025114	0.841203	-0.247647	-0.248975	-0.033214	16.1836	-0.246108	-715.587	4.641438E-5	NaN
698	1.000000	0.850535	7.37188e+06	-42189.1	1005.82	-29783.6	0.000000	0.000000	6.851092	-0.075056	NaN	0.000000	0.001616	0.001828	28.0821	0.050992	0.001845	27.6432	107.239	-168.37	0.023673	0.849194	-0.239644	-0.240984	-0.075056	27.6432	-0.237607	-527.39	0.000142	NaN
698	1.000000	0.858544	7.37188e+06	-42189.1	1005.82	-29783.6	0.000000	0.000000	6.859104	-0.001548	NaN	0.000000	0.001652	0.001794	28.0818	0.087950	0.001899	46.3029	27.9888	-165.995	0.061714	0.857215	-0.231634	-0.232963	-0.001548	46.3029	-0.231609	-424.519	3.647505E-6	NaN
698	1.000000	0.866543	7.37188e+06	-42189.1	1005.82	-29783.6	0.000000	0.000000	6.867105	0.053226	NaN	0.000000	0.001645	0.001832	28.0829	0.085066	0.002114	40.2313	160.768	-164.744	-0.035167	0.865220	-0.223635	-0.224958	0.053226	40.2313	-0.224627	-329.167	-0.000162	NaN
698	1.000000	0.874534	7.37188e+06	-42189.1	1005.82	-29783.6	0.000000	0.000000	6.875094	-0.018461	NaN	0.000000	0.001603	0.001806	28.0817	0.070685	0.002089	33.8357	-98.9589	-166.668	0.066268	0.873199	-0.215644	-0.216979	-0.018461	33.8357	-0.215235	-232.964	7.924442E-5	NaN
698	1.000000	0.882522	7.37188e+06	-42189.1	1005.82	-29783.6	0.000000	0.000000	6.883084	0.048151	NaN	0.000000	0.001648	0.001787	28.0807	0.100833	0.002039	49.46	-111.891	-168.281	0.021899	0.881242	-0.207656	-0.208936	0.048151	49.46	-0.208386	-180.575	-0.000267	NaN
698	1.000000	0.890519	7.37188e+06	-42189.1	1005.82	-29783.6	0.000000	0.000000	6.891079	0.004344	NaN	0.000000	0.001591	0.001818	28.0811	0.123485	0.001893	65.2203	128.238	-163.08	-0.011028	0.889225	-0.199659	-0.200953	0.004344	65.2203	-0.199709	-130.291	-3.334270E-5	NaN
698	1.000000	0.898536	7.37188e+06	-42189.1	1005.82	-29783.6	0.000000	0.000000	6.899095	-0.027377	NaN	0.000000	0.001614	0.001830	28.0806	0.088967	0.002109	42.1801	-55.2338	-164.027	0.011527	0.897237	-0.191642	-0.192941	-0.027377	42.1801	-0.191156	-94.0401	0.000291	NaN
698	1.000000	0.906507	7.37188e+06	-42189.1	1005.82	-29783.6	0.000000	0.000000	6.907071	0.078549	NaN	0.000000	0.001654	0.001837	28.0811	0.134044	0.001911	70.1527	102.143	-165.384	0.080276	0.905277	-0.183671	-0.184901	0.078549	70.1527	-0.184511	-72.7583	-0.001080	NaN
698	1.000000	0.914530	7.37188e+06	-42189.1	1005.82	-29783.6	0.000000	0.000000	6.915091	0.007117	NaN	0.000000	0.001617	0.001825	28.0808	0.053473	0.001928	27.7414	-49.5252	-164.518	0.080500	0.913313	-0.175648	-0.176865	0.007117	27.7414	-0.175840	-51.809	-0.000137	NaN
698	1.000000	0.922552	7.37188e+06	-42189.1	1005.82	-29783.6	0.000000	0.000000	6.923114	0.058394	NaN	0.000000	0.001600	0.001775	28.0806	0.033173	0.002069	16.0308	106.532	-166.604	0.049769	0.921231	-0.167627	-0.168947	0.058394	16.0308	-0.170358	-41.6712	-0.001401	NaN
698	1.000000	0.930545	7.37188e+06	-42189.1	1005.82	-29783.6	0.000000	0.000000	6.931108	0.085853	NaN	0.000000	0.001603	0.001809	28.0805	0.026809	0.001995	13.4352	152.787	-166.35	0.079052	0.929263	-0.159634	-0.160915	0.085853	13.4352	-0.164426	-32.8264	-0.002615	NaN
698	1.000000	0.938555	7.37188e+06	-42189.1	1005.82	-29783.6	0.000000	0.000000	6.939116	0.011333	NaN	0.000000	0.001635	0.001811	28.0805	0.077500	0.002042	37.946	-58.0265	-165.088	0.006068	0.937261	-0.151623	-0.152917	0.011333	37.946	-0.151847	-19.5705	-0.000579	NaN
698	1.000000	0.946546	7.37188e+06	-42189.1	1005.82	-29783.6	0.000000	0.000000	6.947106	0.007924	NaN	0.000000	0.001633	0.001810	28.0811	0.045624	0.001988	22.9509	-26.7332	-164.534	0.043911	0.945248	-0.143632	-0.144930	0.007924	22.9509	-0.143891	-13.9836	-0.000567	NaN
698	1.000000	0.954584	7.37188e+06	-42189.1	1005.82	-29783.6	0.000000	0.000000	6.955144	-0.009721	NaN	0.000000	0.001613	0.001807	28.0806	0.118220	0.001986	59.5121	-64.9625	-166.571	0.082668	0.953292	-0.135594	-0.136886	-0.009721	59.5121	-0.135471	-9.711401	0.001001	NaN
698	1.000000	0.962573	7.37188e+06	-42189.1	1005.82	-29783.6	0.000000	0.000000	6.963134	0.042026	NaN	0.000000	0.001592	0.001808	28.0808	0.110555	0.001990	55.5528	-30.7955	-167.162	0.046615	0.961296	-0.127606	-0.128882	0.042026	55.5528	-0.128173	-7.021104	-0.005986	NaN
698	1.000000	0.970586	7.37188e+06	-42189.1	1005.82	-29783.6	0.000000	0.000000	6.971145	-0.008910	NaN	0.000000	0.001599	0.001812	28.0807	0.026725	0.001930	13.8482	4.032115	-165.214	0.065593	0.969236	-0.119593	-0.120943	-0.008910	13.8482	-0.119110	-4.635406	0.001922	NaN
698	1.000000	0.978560	7.37188e+06	-42189.1	1005.82	-29783.6	0.000000	0.000000	6.979123	0.069608	NaN	0.000000	0.001585	0.001781	28.0805	0.090842	0.001964	46.2454	169.445	-167.827	0.019237	0.977276	-0.111618	-0.112902	0.069608	46.2454	-0.112747	-3.431134	-0.020287	NaN
698	1.000000	0.986581	7.37188e+06	-42189.1	1005.82	-29783.6	0.000000	0.000000	6.987140	-0.017291	NaN	0.000000	0.001614	0.001800	28.0808	0.078654	0.002028	38.7895	63.2141	-168.787	-0.010104	0.985301	-0.103597	-0.104877	-0.017291	38.7895	-0.103263	-2.155190	0.008023	NaN
698	1.000000	0.994582	7.37188e+06	-42189.1	1005.82	-29783.6	0.000000	0.000000	6.995142	-0.006130	NaN	0.000000	0.001600	0.001819	28.0806	0.091518	0.002058	44.4676	-163.348	-166.654	0.024183	0.993288	-0.095596	-0.096891	-0.006130	44.4676	-0.095492	-1.447496	0.004235	NaN
698	1.000000	1.002600	7.37188e+06	-42189.1	1005.82	-29783.6	0.000000	0.000000	7.003162	0.027000	NaN	0.000000	0.001606	0.001802	28.0807	0.119498	0.001906	62.6994	-134.279	-163.549	0.002688	1.001243	-0.087578	-0.088935	0.027000	62.6994	-0.087901	-0.964378	-0.027997	NaN
698	1.000000	1.010596	7.37188e+06	-42189.1	1005.82	-29783.6	0.000000	0.000000	7.011159	0.069206	NaN	0.000000	0.001612	0.001788	28.0805	0.044884	0.001880	23.8769	-35.4128	-162.414	0.078502	1.009281	-0.079583	-0.080897	0.069206	23.8769	-0.081756	-0.684462	-0.101110	NaN
698	1.000000	1.018601	7.37188e+06	-42189.1	1005.82	-29783.6	0.000000	0.000000	7.019161	-0.006342	NaN	0.000000	0.001582	0.001794	28.0818	0.075442	0.002045	36.8949	160.495	-164.038	-0.065839	1.017271	-0.071577	-0.072907	-0.006342	36.8949	-0.071448	-0.372811	0.017012	NaN
698	1.000000	1.026615	7.37188e+06	-42189.1	1005.82	-29783.6	0.000000	0.000000	7.027176	0.024824	NaN	0.000000	0.001552	0.001779	28.0819	0.057089	0.001993	28.6427	151.856	-168.94	0.061151	1.025306	-0.063563	-0.064872	0.024824	28.6427	-0.064213	-0.236971	-0.104757	NaN
698	1.000000	1.034622	7.37188e+06	-42189.1	1005.82	-29783.6	0.000000	0.000000	7.035182	0.006701	NaN	0.000000	0.001600	0.001809	28.0817	0.056515	0.002041	27.6933	-84.1768	-166.024	0.033989	1.033283	-0.055557	-0.056895	0.006701	27.6933	-0.055738	-0.135397	-0.049494	NaN
698	1.000000	1.042597	7.37188e+06	-42189.1	1005.82	-29783.6	0.000000	0.000000	7.043158	0.042701	NaN	0.000000	0.001623	0.001807	28.082	0.060317	0.002039	29.5766	-34.6564	-162.55	0.057563	1.041316	-0.047582	-0.048863	0.042701	29.5766	-0.048664	-0.083129	-0.513666	NaN
698	1.000000	1.050614	7.37188e+06	-42189.1	1005.82	-29783.6	0.000000	0.000000	7.051175	0.016494	NaN	0.000000	0.001587	0.001771	28.0818	0.116049	0.001870	62.0691	134.279	-167.029	0.127202	1.049260	-0.039564	-0.040918	0.016494	62.0691	-0.039763	-0.044479	-0.370828	NaN
698	1.000000	1.058576	7.37188e+06	-42189.1	1005.82	-29783.6	0.000000	0.000000	7.059135	-0.048283	NaN	0.000000	0.001602	0.001772	28.0815	0.051972	0.001963	26.4798	-6.934600	-165.382	-0.006937	1.057255	-0.031602	-0.032924	-0.048283	26.4798	-0.030234	-0.023362	2.066739	NaN
698	1.000000	1.066649	7.37188e+06	-42189.1	1005.82	-29783.6	0.000000	0.000000	7.067214	0.113642	NaN	0.000000	0.001599	0.001791	28.0816	0.138658	0.001986	69.8109	36.8202	-164.014	0.062034	1.065264	-0.023529	-0.024914	0.113642	69.8109	-0.024750	-0.016619	-6.838215	NaN
698	1.000000	1.074580	7.37188e+06	-42189.1	1005.82	-29783.6	0.000000	0.000000	7.075144	0.094668	NaN	0.000000	0.001603	0.001770	28.0816	0.024697	0.002060	11.9902	153.205	-164.716	0.059701	1.073252	-0.015598	-0.016926	0.094668	11.9902	-0.021520	-0.013729	-6.895384	NaN
698	1.000000	1.082606	7.37188e+06	-42189.1	1005.82	-29783.6	0.000000	0.000000	7.083168	0.035293	NaN	0.000000	0.001606	0.001800	28.0818	0.117590	0.002091	56.2356	85.0348	-163.313	0.094181	1.081308	-0.007572	-0.008870	0.035293	56.2356	-0.008043	-0.005257	-6.713995	NaN
698	1.000000	1.090606	7.37188e+06	-42189.1	1005.82	-29783.6	0.000000	0.000000	7.091323	3.801814	NaN	0.000000	0.001586	0.001780	28.0817	4.438055	0.001819	2439.98	6.408044	-167.148	2.188350	1.089322	0.000428	-0.000857	3.801814	2439.98	-0.000740	-0.000546	-6969.1	NaN
698	2.000000	1.095258	7.37188e+06	-42189.1	1005.82	-29783.6	0.000000	0.000000	7.096146	7.978427	NaN	0.000000	0.001566	0.001781	28.0818	8.839123	0.001668	5298.45	6.608017	-173.377	7.573444	1.094981	0.005080	0.004803	7.978427	5298.45	0.003951	0.003196	2496.38	85628.6
698	2.000000	1.097293	7.37188e+06	-42189.1	1005.82	-29783.6	0.000000	0.000000	7.098284	10.4962	NaN	0.000000	0.001561	0.001866	28.0824	10.9609	0.001849	5928.63	12.2087	-174.165	11.0623	1.096981	0.007114	0.006802	10.4962	5928.63	0.005787	0.004863	2158.54	77676.9
698	2.000000	1.099219	7.37188e+06	-42189.1	1005.82	-29783.6	0.000000	0.000000	7.100365	14.2568	NaN	0.000000	0.001595	0.001807	28.0842	13.3748	0.001749	7645.97	9.294580	-176.1	13.847	1.098902	0.009040	0.008724	14.2568	7645.97	0.007642	0.006677	2135.3	85491.9
698	2.000000	1.101201	7.37188e+06	-42189.1	1005.82	-29783.6	0.000000	0.000000	7.102535	18.8401	NaN	0.000000	0.001592	0.001817	28.0848	16.1042	0.001784	9027.48	8.303123	-176.811	18.3503	1.100907	0.011023	0.010729	18.8401	9027.48	0.009457	0.008585	2194.63	89018.2
698	2.000000	1.103206	7.37188e+06	-42189.1	1005.82	-29783.6	0.000000	0.000000	7.104717	23.1311	NaN	0.000000	0.001612	0.001816	28.0825	16.6878	0.001686	9897.82	7.145010	-175.899	22.63	1.102840	0.013028	0.012662	23.1311	9897.82	0.011275	0.010634	2175.28	87694.3
698	2.000000	1.105179	7.37188e+06	-42189.1	1005.82	-29783.6	0.000000	0.000000	7.106725	23.9819	NaN	0.000000	0.001628	0.001808	28.0826	19.4823	0.001748	11142.5	10.3296	-179.983	23.4305	1.104796	0.015001	0.014618	23.9819	11142.5	0.013387	0.013194	1817.6	88626.6
698	2.000000	1.107203	7.37188e+06	-42189.1	1005.82	-29783.6	0.000000	0.000000	7.108954	28.9595	NaN	0.000000	0.001574	0.001806	28.0818	21.018	0.001864	11274.8	12.6211	179.076	28.7289	1.106858	0.017025	0.016680	28.9595	11274.8	0.015099	0.015417	1878.38	82962.2
698	2.000000	1.109164	7.37188e+06	-42189.1	1005.82	-29783.6	0.000000	0.000000	7.111099	33.455	NaN	0.000000	0.001550	0.001808	28.0811	22.5911	0.001883	11999	5.872048	-176.116	33.2411	1.108822	0.018986	0.018644	33.455	11999	0.016895	0.017896	1869.42	81948.2
698	2.000000	1.111123	7.37188e+06	-42189.1	1005.82	-29783.6	0.000000	0.000000	7.113306	39.4776	NaN	0.000000	0.001616	0.001776	28.081	24.2141	0.001709	14169.5	3.419777	-177.687	37.5051	1.110953	0.020945	0.020775	39.4776	14169.5	0.018856	0.020776	1900.17	89814.9
698	2.000000	1.113164	7.37188e+06	-42189.1	1005.82	-29783.6	0.000000	0.000000	7.115507	43.3789	NaN	0.000000	0.001603	0.001791	28.0807	25.2379	0.001665	15160.5	4.219470	-178.574	42.3402	1.112825	0.022986	0.022647	43.3789	15160.5	0.020840	0.023879	1816.59	89634.6
698	2.000000	1.115143	7.37188e+06	-42189.1	1005.82	-29783.6	0.000000	0.000000	7.117670	47.8537	NaN	0.000000	0.001646	0.001785	28.0807	27.6589	0.001895	14594.1	6.372262	-177.973	47.197	1.114826	0.024965	0.024648	47.8537	14594.1	0.022506	0.026634	1796.75	81702.7
698	2.000000	1.117172	7.37188e+06	-42189.1	1005.82	-29783.6	0.000000	0.000000	7.119852	51.5774	NaN	0.000000	0.001649	0.001774	28.0805	29.3236	0.001809	16209	2.291267	-176.152	50.9298	1.116854	0.026994	0.026676	51.5774	16209	0.024607	0.030305	1701.94	85069.2
698	2.000000	1.119110	7.37188e+06	-42189.1	1005.82	-29783.6	0.000000	0.000000	7.122146	60.2478	NaN	0.000000	0.001622	0.001770	28.0811	31.0414	0.001728	17966.3	5.900355	179.276	58.5415	1.118825	0.028932	0.028647	60.2478	17966.3	0.026417	0.033643	1790.78	89491.9
698	2.000000	1.121177	7.37188e+06	-42189.1	1005.82	-29783.6	0.000000	0.000000	7.124308	62.5643	NaN	0.000000	0.001592	0.001822	28.0806	33.9478	0.001683	20176.1	7.711787	175.542	62.9933	1.120814	0.030999	0.030636	62.5643	20176.1	0.028673	0.038038	1644.78	94515.2
698	2.000000	1.123182	7.37188e+06	-42189.1	1005.82	-29783.6	0.000000	0.000000	7.126601	69.5524	NaN	0.000000	0.001616	0.001821	28.081	34.9138	0.001803	19369.2	3.988134	-179.119	68.9949	1.122809	0.033004	0.032630	69.5524	19369.2	0.030311	0.041390	1680.42	86983.8
698	2.000000	1.125101	7.37188e+06	-42189.1	1005.82	-29783.6	0.000000	0.000000	7.128845	77.4668	NaN	0.000000	0.001608	0.001752	28.0807	38.4006	0.001862	20620.8	6.046608	177.46	75.1998	1.124758	0.034923	0.034580	77.4668	20620.8	0.032106	0.045221	1713.06	88594.7
698	2.000000	1.127161	7.37188e+06	-42189.1	1005.82	-29783.6	0.000000	0.000000	7.131180	84.1623	NaN	0.000000	0.001600	0.001814	28.0805	40.0347	0.001783	22448.7	6.199178	176.658	83.9866	1.126835	0.036983	0.036657	84.1623	22448.7	0.034171	0.049833	1688.88	91876.9
698	2.000000	1.129097	7.37188e+06	-42189.1	1005.82	-29783.6	0.000000	0.000000	7.133548	94.6738	NaN	0.000000	0.001619	0.001794	28.0818	40.8324	0.001733	23555.5	5.401718	178.526	92.8527	1.128740	0.038919	0.038562	94.6738	23555.5	0.035904	0.053872	1757.38	92722
698	2.000000	1.131152	7.37188e+06	-42189.1	1005.82	-29783.6	0.000000	0.000000	7.135691	96.8263	NaN	0.000000	0.001633	0.001809	28.0807	43.5468	0.001792	24296.3	2.014585	-179.572	98.6701	1.130899	0.040974	0.040720	96.8263	24296.3	0.037985	0.058924	1643.24	91446.5
698	2.000000	1.133152	7.37188e+06	-42189.1	1005.82	-29783.6	0.000000	0.000000	7.138102	106.826	NaN	0.000000	0.001649	0.001812	28.0807	44.519	0.001777	25048.6	4.178211	177.894	108.329	1.132879	0.042974	0.042700	106.826	25048.6	0.039775	0.063448	1683.66	90854.3
698	2.000000	1.135056	7.37188e+06	-42189.1	1005.82	-29783.6	0.000000	0.000000	7.140369	115.629	NaN	0.000000	0.001632	0.001780	28.0808	47.3129	0.001742	27161.4	3.114692	177.727	111.769	1.134710	0.044878	0.044532	115.629	27161.4	0.041685	0.068456	1689.1	94846
698	2.000000	1.137128	7.37188e+06	-42189.1	1005.82	-29783.6	0.000000	0.000000	7.142811	124.666	NaN	0.000000	0.001612	0.001782	28.0806	50.3435	0.001935	26011.8	5.976515	176.603	123.417	1.136726	0.046950	0.046548	124.666	26011.8	0.043355	0.072986	1708.07	87967.8
698	2.000000	1.139123	7.37188e+06	-42189.1	1005.82	-29783.6	0.000000	0.000000	7.145204	134.342	NaN	0.000000	0.001584	0.001817	28.082	51.9103	0.001937	26805	6.827895	174.982	133.785	1.138818	0.048944	0.048640	134.342	26805	0.045185	0.078115	1719.8	87623.9
698	2.000000	1.141090	7.37188e+06	-42189.1	1005.82	-29783.6	0.000000	0.000000	7.147433	140.704	NaN	0.000000	0.001561	0.001779	28.0806	52.6974	0.001808	29139.9	2.705474	177.595	137.684	1.140784	0.050912	0.050606	140.704	29139.9	0.047291	0.084223	1670.61	91737.2
698	2.000000	1.143112	7.37188e+06	-42189.1	1005.82	-29783.6	0.000000	0.000000	7.150066	155.595	NaN	0.000000	0.001611	0.001783	28.0818	53.9328	0.001807	29848.6	4.911192	175.75	155.339	1.142760	0.052933	0.052582	155.595	29848.6	0.049024	0.089419	1740.06	91197
698	2.000000	1.145067	7.37188e+06	-42189.1	1005.82	-29783.6	0.000000	0.000000	7.152215	160.314	NaN	0.000000	0.001604	0.001803	28.082	56.3304	0.001745	32286	7.436998	172.243	156.141	1.144751	0.054888	0.054573	160.314	32286	0.051164	0.096046	1669.13	95180.2
698	2.000000	1.147133	7.37188e+06	-42189.1	1005.82	-29783.6	0.000000	0.000000	7.154840	173.903	NaN	0.000000	0.001585	0.001790	28.0819	58.2598	0.001691	34449.2	6.319190	174.559	174.131	1.146766	0.056955	0.056588	173.903	34449.2	0.053168	0.102458	1697.32	98328.5
698	2.000000	1.149077	7.37188e+06	-42189.1	1005.82	-29783.6	0.000000	0.000000	7.157032	179.924	NaN	0.000000	0.001626	0.001762	28.0829	59.2645	0.001781	33276.2	1.323079	179.038	177.41	1.148722	0.058899	0.058544	179.924	33276.2	0.054844	0.107970	1666.42	92524.1
698	2.000000	1.151129	7.37188e+06	-42189.1	1005.82	-29783.6	0.000000	0.000000	7.159542	191.088	NaN	0.000000	0.001637	0.001749	28.0819	62.9534	0.001906	33023.5	4.124021	176.013	190.668	1.150745	0.060951	0.060567	191.088	33023.5	0.056611	0.113937	1677.14	89385.1
698	2.000000	1.153037	7.37188e+06	-42189.1	1005.82	-29783.6	0.000000	0.000000	7.161974	203.822	NaN	0.000000	0.001630	0.001781	28.082	63.0747	0.001758	35884.8	4.489230	174.674	199.518	1.152746	0.062859	0.062568	203.822	35884.8	0.058599	0.120833	1686.81	94317.5
698	2.000000	1.155083	7.37188e+06	-42189.1	1005.82	-29783.6	0.000000	0.000000	7.164454	214.388	NaN	0.000000	0.001609	0.001805	28.0819	66.3282	0.001751	37877.7	4.282166	174.972	214.119	1.154664	0.064905	0.064486	214.388	37877.7	0.060660	0.128185	1672.49	96658.3
698	2.000000	1.157100	7.37188e+06	-42189.1	1005.82	-29783.6	0.000000	0.000000	7.166965	226.404	NaN	0.000000	0.001629	0.001770	28.0817	68.6002	0.001804	38034.2	4.375776	174.547	224.154	1.156750	0.066922	0.066571	226.404	38034.2	0.062458	0.134769	1679.94	94657.2
698	2.000000	1.159023	7.37188e+06	-42189.1	1005.82	-29783.6	0.000000	0.000000	7.169295	236.312	NaN	0.000000	0.001614	0.001803	28.082	69.8538	0.001735	40267.5	4.509799	174.43	233.474	1.158644	0.068845	0.068465	236.312	40267.5	0.064444	0.142223	1661.56	97553.6
698	2.000000	1.161033	7.37188e+06	-42189.1	1005.82	-29783.6	0.000000	0.000000	7.171801	248.368	NaN	0.000000	0.001620	0.001800	28.0819	72.6323	0.001754	41417.6	6.098472	171.946	243.537	1.160686	0.070855	0.070507	248.368	41417.6	0.066357	0.149586	1660.37	97839.3
698	2.000000	1.163061	7.37188e+06	-42189.1	1005.82	-29783.6	0.000000	0.000000	7.174365	261.406	NaN	0.000000	0.001579	0.001798	28.0822	72.8473	0.001806	40334.5	4.178646	174.976	258.945	1.162737	0.072883	0.072559	261.406	40334.5	0.068023	0.156137	1674.21	93260.4
698	2.000000	1.165088	7.37188e+06	-42189.1	1005.82	-29783.6	0.000000	0.000000	7.176891	273.575	NaN	0.000000	0.001613	0.001809	28.0819	75.0979	0.001691	44397.5	2.464245	174.692	272.736	1.164740	0.074909	0.074562	273.575	44397.5	0.070288	0.165261	1655.41	99780.8
698	2.000000	1.167141	7.37188e+06	-42189.1	1005.82	-29783.6	0.000000	0.000000	7.179618	289.964	NaN	0.000000	0.001569	0.001792	28.082	78.736	0.001859	42352.2	6.509965	172.106	291.268	1.166714	0.076963	0.076536	289.964	42352.2	0.071828	0.171603	1689.74	93408.6
698	2.000000	1.169053	7.37188e+06	-42189.1	1005.82	-29783.6	0.000000	0.000000	7.182099	303.807	NaN	0.000000	0.001598	0.001784	28.0819	80.2612	0.001862	43115.9	5.549080	172.644	302.495	1.168809	0.078875	0.078631	303.807	43115.9	0.073590	0.178997	1697.28	93108.2
698	2.000000	1.170982	7.37188e+06	-42189.1	1005.82	-29783.6	0.000000	0.000000	7.184566	316.888	NaN	0.000000	0.001542	0.001795	28.0818	81.5762	0.001712	47637.9	4.158502	172.64	313.071	1.170765	0.080804	0.080587	316.888	47637.9	0.075815	0.188543	1680.72	100235
698	2.000000	1.173018	7.37188e+06	-42189.1	1005.82	-29783.6	0.000000	0.000000	7.187215	331.803	NaN	0.000000	0.001599	0.001753	28.0821	82.3803	0.001799	45797.5	1.022474	176.395	328.85	1.172769	0.082840	0.082591	331.803	45797.5	0.077406	0.195514	1697.08	94629.4
698	2.000000	1.175043	7.37188e+06	-42189.1	1005.82	-29783.6	0.000000	0.000000	7.189585	340.212	NaN	0.000000	0.001561	0.001762	28.082	85.8447	0.001844	46541.6	6.346218	170.769	339.531	1.174739	0.084865	0.084561	340.212	46541.6	0.079382	0.204334	1664.98	94068.5
698	2.000000	1.177054	7.37188e+06	-42189.1	1005.82	-29783.6	0.000000	0.000000	7.192338	358.241	NaN	0.000000	0.001575	0.001756	28.0809	87.6051	0.001947	45000.7	7.921901	171.106	355.107	1.176550	0.086876	0.086372	358.241	45000.7	0.080905	0.211257	1695.76	89451.4
698	2.000000	1.179011	7.37188e+06	-42189.1	1005.82	-29783.6	0.000000	0.000000	7.195006	375.552	NaN	0.000000	0.001562	0.001804	28.0807	87.7881	0.001774	49472.9	5.103705	171.879	373.09	1.178713	0.088833	0.088535	375.552	49472.9	0.083139	0.221606	1694.68	96017.3
698	2.000000	1.181002	7.37188e+06	-42189.1	1005.82	-29783.6	0.000000	0.000000	7.197180	380.014	NaN	0.000000	0.001562	0.001801	28.0806	89.8979	0.001759	51097.1	1.719677	174.77	374.841	1.180854	0.090823	0.090676	380.014	51097.1	0.085246	0.231574	1641	97011.6
698	2.000000	1.183012	7.37188e+06	-42189.1	1005.82	-29783.6	0.000000	0.000000	7.200050	400.932	NaN	0.000000	0.001532	0.001792	28.0808	91.5988	0.001853	49421.9	7.330209	169.72	398.713	1.182653	0.092833	0.092475	400.932	49421.9	0.086749	0.238816	1678.83	92397.8
698	2.000000	1.185007	7.37188e+06	-42189.1	1005.82	-29783.6	0.000000	0.000000	7.202651	415.678	NaN	0.000000	0.001531	0.001801	28.0808	93.5667	0.001823	51337.6	2.776964	173.937	412.053	1.184674	0.094829	0.094496	415.678	51337.6	0.088756	0.248644	1671.78	94063.3
698	2.000000	1.187059	7.37188e+06	-42189.1	1005.82	-29783.6	0.000000	0.000000	7.205526	435.699	NaN	0.000000	0.001561	0.001807	28.0807	95.7474	0.001741	55001.1	8.746311	168.547	434.229	1.186663	0.096881	0.096484	435.699	55001.1	0.090940	0.259549	1678.68	98635.8
698	2.000000	1.189023	7.37188e+06	-42189.1	1005.82	-29783.6	0.000000	0.000000	7.208069	449.805	NaN	0.000000	0.001578	0.001785	28.0808	96.9948	0.001782	54418	7.328614	169.525	447.682	1.188733	0.098844	0.098554	449.805	54418	0.092645	0.268217	1677.02	96000.4
698	2.000000	1.191016	7.37188e+06	-42189.1	1005.82	-29783.6	0.000000	0.000000	7.210426	458.621	NaN	0.000000	0.001614	0.001802	28.0807	98.3245	0.001732	56759.2	3.528064	172.667	454.901	1.190831	0.100838	0.100653	458.621	56759.2	0.094778	0.279245	1642.36	98133.4
698	2.000000	1.192550	7.37188e+06	-42189.1	1005.82	-29783.6	0.000000	0.000000	7.212717	477.054	NaN	0.000000	0.001614	0.001777	28.0808	99.0447	0.001762	56199.8	3.525709	-7.120645	475.06	1.192186	0.102372	0.102007	477.054	56199.8	0.096006	0.285686	1669.86	96064.7