File: remote_trans/data/nanoindenter/0828-1/data/Data_2025-08-06,11h17m57s/2025-07-22_16-23-58_1_329.txt
2025-07-22, 16:23:58, 1
Index	Phase	Displacement	Time	Pos X	Pos Y	Pos Z	Rot A	Rot B	Piezo Z	Force A	Force B	Gripper	Voltage A	Voltage B	Temperature	Amplitude force	Amplitude pos	Stiffness	Phase shift	Phase excitation	Force A raw	Displacement raw	HMax	HMax raw	Real Force	Real Stiffness	Contact Depth	Area	Hardness	Reduced Mod.
[#]	[#]	[um]	[s]	[um]	[um]	[um]	[m°]	[m°]	[um]	[uN]	[uN]	[V]	[V]	[V]	[°C]	[uN]	[um]	[N/m]	[°]	[°]	[uN]	[um]	[um]	[um]	[uN]	[N/m]	[um]	[um^2]	[MPa]	[MPa]
329	1.000000	0.002655	7.36828e+06	-55089.1	955.817	-29742.5	0.000000	0.000000	6.002814	-0.007055	NaN	0.000000	0.001799	0.001704	28.0789	0.062114	0.001004	61.8375	123.031	-166.502	0.037094	0.001390	-1.178371	-1.179637	-0.007055	61.8375	-1.178285	-5.622112E+15	1.254883E-18	NaN
329	1.000000	0.012718	7.36828e+06	-55089.1	955.818	-29742.5	0.000000	0.000000	6.012878	0.040423	NaN	0.000000	0.001774	0.001707	28.0791	0.052948	0.001270	41.6951	162.442	15.0581	0.000498	0.011220	-1.168308	-1.169806	0.040423	41.6951	-1.169035	-4.226262E+15	-9.564817E-18	NaN
329	1.000000	0.022619	7.36828e+06	-55089.1	955.818	-29742.5	0.000000	0.000000	6.022777	-0.002150	NaN	0.000000	0.001753	0.001667	28.0777	0.060724	0.001737	34.9632	-78.1047	-167.207	-0.059858	0.021248	-1.158407	-1.159778	-0.002150	34.9632	-1.158361	-3.040217E+15	7.071733E-19	NaN
329	1.000000	0.032596	7.36828e+06	-55089.1	955.817	-29742.5	0.000000	0.000000	6.032753	-0.030625	NaN	0.000000	0.001763	0.001699	28.0777	0.056807	0.001969	28.8537	-147.742	13.5248	-0.017969	0.031236	-1.148430	-1.149790	-0.030625	28.8537	-1.147634	-2.183251E+15	1.402720E-17	NaN
329	1.000000	0.042603	7.36828e+06	-55089.1	955.819	-29742.5	0.000000	0.000000	6.042766	0.086897	NaN	0.000000	0.001699	0.001702	28.0776	0.089038	0.001899	46.8991	175.567	-164.413	0.077305	0.041282	-1.138423	-1.139744	0.086897	46.8991	-1.139812	-1.714832E+15	-5.067361E-17	NaN
329	1.000000	0.052609	7.36828e+06	-55089.1	955.819	-29742.5	0.000000	0.000000	6.052764	-0.076368	NaN	0.000000	0.001715	0.001693	28.0794	0.103719	0.001966	52.751	156.465	16.3274	-0.100141	0.051242	-1.128417	-1.129784	-0.076368	52.751	-1.127331	-1.166346E+15	6.547667E-17	NaN
329	1.000000	0.062577	7.36828e+06	-55089.1	955.818	-29742.5	0.000000	0.000000	6.062737	0.045514	NaN	0.000000	0.001693	0.001749	28.0796	0.147446	0.002057	71.6684	70.8069	-165.921	-0.036934	0.061305	-1.118449	-1.119721	0.045514	71.6684	-1.118926	-8.996159E+14	-5.059274E-17	NaN
329	1.000000	0.072607	7.36828e+06	-55089.1	955.818	-29742.5	0.000000	0.000000	6.072764	-0.053219	NaN	0.000000	0.001702	0.001758	28.0781	0.057893	0.002066	28.0167	-149.332	15.8204	-0.089803	0.071246	-1.108419	-1.109781	-0.053219	28.0167	-1.106994	-6.222255E+14	8.553008E-17	NaN
329	1.000000	0.082599	7.36828e+06	-55089.1	955.819	-29742.5	0.000000	0.000000	6.082758	-0.008284	NaN	0.000000	0.001704	0.001805	28.0777	0.132267	0.002044	64.719	-108.976	-168.036	0.082997	0.081340	-1.098427	-1.099686	-0.008284	64.719	-1.098331	-4.760573E+14	1.740094E-17	NaN
329	1.000000	0.092589	7.36828e+06	-55089.1	955.818	-29742.5	0.000000	0.000000	6.092746	-0.037728	NaN	0.000000	0.001756	0.001753	28.0778	0.074966	0.001961	38.233	-170.303	17.7313	-0.094821	0.091205	-1.088437	-1.089822	-0.037728	38.233	-1.087697	-3.426758E+14	1.100970E-16	NaN
329	1.000000	0.102617	7.36828e+06	-55089.1	955.817	-29742.5	0.000000	0.000000	6.102776	0.012098	NaN	0.000000	0.001746	0.001707	28.0778	0.023401	0.001993	11.7406	-104.422	-168.583	-0.005683	0.101272	-1.078409	-1.079754	0.012098	11.7406	-1.079182	-2.633470E+14	-4.593871E-17	NaN
329	1.000000	0.112625	7.36828e+06	-55089.1	955.818	-29742.5	0.000000	0.000000	6.112780	-0.066560	NaN	0.000000	0.001726	0.001716	28.0776	0.049624	0.001902	26.0956	45.5388	14.0854	-0.071294	0.111255	-1.068402	-1.069771	-0.066560	26.0956	-1.066489	-1.778330E+14	3.742829E-16	NaN
329	1.000000	0.122605	7.36828e+06	-55089.1	955.818	-29742.5	0.000000	0.000000	6.122764	-0.007763	NaN	0.000000	0.001744	0.001714	28.0777	0.052483	0.002129	24.6463	164.314	-165.593	-0.040632	0.121328	-1.058421	-1.059698	-0.007763	24.6463	-1.058185	-1.375382E+14	5.644543E-17	NaN
329	1.000000	0.132608	7.36828e+06	-55089.1	955.818	-29742.5	0.000000	0.000000	6.132765	-0.038373	NaN	0.000000	0.001721	0.001703	28.0776	0.046873	0.002186	21.4461	-169.853	10.2071	-0.085103	0.131264	-1.048418	-1.049762	-0.038373	21.4461	-1.047076	-9.752260E+13	3.934731E-16	NaN
329	1.000000	0.142642	7.36828e+06	-55089.1	955.818	-29742.5	0.000000	0.000000	6.142800	-0.003653	NaN	0.000000	0.001758	0.001669	28.0777	0.131298	0.001980	66.2971	44.3042	-162.472	-0.023447	0.141327	-1.038384	-1.039699	-0.003653	66.2971	-1.038343	-7.441952E+13	4.908950E-17	NaN
329	1.000000	0.152612	7.36828e+06	-55089.1	955.818	-29742.5	0.000000	0.000000	6.152770	-0.018979	NaN	0.000000	0.001760	0.001679	28.0777	0.066439	0.001827	36.36	172.138	13.5915	-0.040317	0.151261	-1.028414	-1.029765	-0.018979	36.36	-1.028022	-5.406052E+13	3.510695E-16	NaN
329	1.000000	0.162620	7.36828e+06	-55089.1	955.819	-29742.5	0.000000	0.000000	6.162779	0.008383	NaN	0.000000	0.001746	0.001679	28.0792	0.025903	0.002063	12.5539	99.0464	-167.52	-0.023045	0.161357	-1.018406	-1.019669	0.008383	12.5539	-1.018907	-4.076112E+13	-2.056623E-16	NaN
329	1.000000	0.172634	7.36828e+06	-55089.1	955.817	-29742.5	0.000000	0.000000	6.172795	0.064237	NaN	0.000000	0.001735	0.001737	28.0787	0.065581	0.001893	34.646	-96.4445	13.241	-0.024155	0.171252	-1.008392	-1.009774	0.064237	34.646	-1.009783	-3.072280E+13	-2.090870E-15	NaN
329	1.000000	0.182664	7.36828e+06	-55089.1	955.818	-29742.5	0.000000	0.000000	6.182822	-0.004859	NaN	0.000000	0.001756	0.001710	28.0788	0.028812	0.001928	14.9416	-155.475	-168.993	-0.028527	0.181368	-0.998362	-0.999658	-0.004859	14.9416	-0.998119	-2.140115E+13	2.270228E-16	NaN
329	1.000000	0.192584	7.36828e+06	-55089.1	955.818	-29742.5	0.000000	0.000000	6.192742	0.003207	NaN	0.000000	0.001739	0.001672	28.0786	0.044043	0.001870	23.5557	125.67	9.097472	0.000819	0.191305	-0.988442	-0.989721	0.003207	23.5557	-0.988545	-1.590410E+13	-2.016393E-16	NaN
329	1.000000	0.202641	7.36828e+06	-55089.1	955.819	-29742.5	0.000000	0.000000	6.202799	-0.009565	NaN	0.000000	0.001752	0.001721	28.0791	0.118922	0.001971	60.3325	-156.027	-169.503	0.011671	0.201337	-0.978385	-0.979689	-0.009565	60.3325	-0.978266	-1.156249E+13	8.272468E-16	NaN
329	1.000000	0.212649	7.36828e+06	-55089.1	955.819	-29742.5	0.000000	0.000000	6.212807	-0.027113	NaN	0.000000	0.001741	0.001729	28.0785	0.046363	0.002075	22.3386	-151.194	13.1802	0.015352	0.211262	-0.968377	-0.969764	-0.027113	22.3386	-0.967466	-8.270221E+12	3.278432E-15	NaN
329	1.000000	0.222673	7.36828e+06	-55089.1	955.818	-29742.5	0.000000	0.000000	6.222833	0.024507	NaN	0.000000	0.001784	0.001693	28.0786	0.047760	0.001941	24.6039	89.416	-170.871	-0.019742	0.221410	-0.958353	-0.959616	0.024507	24.6039	-0.959100	-6.378703E+12	-3.842060E-15	NaN
329	1.000000	0.232667	7.36828e+06	-55089.1	955.818	-29742.5	0.000000	0.000000	6.232826	-0.008686	NaN	0.000000	0.001741	0.001697	28.0785	0.060380	0.002105	28.6788	-19.9771	11.5978	-0.067570	0.231334	-0.948359	-0.949692	-0.008686	28.6788	-0.948132	-4.537625E+12	1.914309E-15	NaN
329	1.000000	0.242662	7.36828e+06	-55089.1	955.818	-29742.5	0.000000	0.000000	6.242820	-0.015648	NaN	0.000000	0.001759	0.001650	28.0787	0.026221	0.001897	13.8223	-125.116	-171.22	0.073850	0.241317	-0.938364	-0.939709	-0.015648	13.8223	-0.937515	-3.262936E+12	4.795735E-15	NaN
329	1.000000	0.252696	7.36828e+06	-55089.1	955.817	-29742.5	0.000000	0.000000	6.252852	-0.050484	NaN	0.000000	0.001732	0.001675	28.0786	0.065478	0.001924	34.0274	24.2271	11.2927	-0.038077	0.251314	-0.928330	-0.929712	-0.050484	34.0274	-0.927218	-2.369419E+12	2.130652E-14	NaN
329	1.000000	0.262688	7.36828e+06	-55089.1	955.819	-29742.5	0.000000	0.000000	6.262845	-0.041119	NaN	0.000000	0.001745	0.001694	28.0788	0.080429	0.001770	45.4461	132.133	-166.11	-0.079222	0.261374	-0.918338	-0.919652	-0.041119	45.4461	-0.917660	-1.760381E+12	2.335788E-14	NaN
329	1.000000	0.272699	7.36828e+06	-55089.1	955.818	-29742.5	0.000000	0.000000	6.272852	-0.142116	NaN	0.000000	0.001775	0.001678	28.0789	0.050342	0.002005	25.1096	171.864	13.4447	-0.071998	0.271336	-0.908327	-0.909690	-0.142116	25.1096	-0.904082	-1.154051E+12	1.231456E-13	NaN
329	1.000000	0.282691	7.36828e+06	-55089.1	955.819	-29742.5	0.000000	0.000000	6.282849	-0.014845	NaN	0.000000	0.001750	0.001678	28.0786	0.019501	0.001987	9.812826	6.093485	-167.915	-0.017871	0.281319	-0.898335	-0.899708	-0.014845	9.812826	-0.897200	-9.316094E+11	1.593503E-14	NaN
329	1.000000	0.292687	7.36828e+06	-55089.1	955.817	-29742.5	0.000000	0.000000	6.292846	0.008956	NaN	0.000000	0.001754	0.001681	28.0781	0.032740	0.001881	17.4081	68.2701	13.2896	-0.048322	0.291276	-0.888340	-0.889750	0.008956	17.4081	-0.888725	-7.156252E+11	-1.251485E-14	NaN
329	1.000000	0.302712	7.36828e+06	-55089.1	955.818	-29742.5	0.000000	0.000000	6.302867	-0.107483	NaN	0.000000	0.001754	0.001672	28.0774	0.068220	0.001950	34.9876	36.4201	-165.804	-0.121014	0.301389	-0.878314	-0.879638	-0.107483	34.9876	-0.876010	-4.816604E+11	2.231514E-13	NaN
329	1.000000	0.312699	7.36828e+06	-55089.1	955.818	-29742.5	0.000000	0.000000	6.312857	-0.012478	NaN	0.000000	0.001723	0.001711	28.0778	0.031430	0.002156	14.5812	-31.4721	14.7037	-0.116363	0.311312	-0.868328	-0.869714	-0.012478	14.5812	-0.867686	-3.716484E+11	3.357450E-14	NaN
329	1.000000	0.322712	7.36828e+06	-55089.1	955.819	-29742.5	0.000000	0.000000	6.322868	-0.048120	NaN	0.000000	0.001742	0.001699	28.0774	0.113675	0.001956	58.103	-62.0047	-167.313	-0.080271	0.321388	-0.858314	-0.859638	-0.048120	58.103	-0.857693	-2.722056E+11	1.767779E-13	NaN
329	1.000000	0.332711	7.36828e+06	-55089.1	955.818	-29742.5	0.000000	0.000000	6.332867	-0.071398	NaN	0.000000	0.001737	0.001718	28.0775	0.082870	0.002048	40.456	-117.665	18.3932	-0.069799	0.331360	-0.848315	-0.849667	-0.071398	40.456	-0.846991	-1.949817E+11	3.661798E-13	NaN
329	1.000000	0.342716	7.36828e+06	-55089.1	955.817	-29742.5	0.000000	0.000000	6.342873	-0.037582	NaN	0.000000	0.001797	0.001711	28.0773	0.121264	0.001906	63.6335	-108.121	-167.46	-0.073680	0.341438	-0.838310	-0.839588	-0.037582	63.6335	-0.837867	-1.466882E+11	2.562031E-13	NaN
329	1.000000	0.352707	7.36828e+06	-55089.1	955.817	-29742.5	0.000000	0.000000	6.352862	-0.078414	NaN	0.000000	0.001660	0.001682	28.0772	0.050271	0.002043	24.602	-165.312	15.2068	-0.040060	0.351381	-0.828319	-0.829645	-0.078414	24.602	-0.825929	-1.010646E+11	7.758845E-13	NaN
329	1.000000	0.362725	7.36828e+06	-55089.1	955.818	-29742.5	0.000000	0.000000	6.362880	-0.086755	NaN	0.000000	0.001649	0.001719	28.0775	0.086939	0.001861	46.7172	20.0823	-167.102	-0.054467	0.361419	-0.818301	-0.819607	-0.086755	46.7172	-0.816908	-7.625739E+10	1.137659E-12	NaN
329	1.000000	0.372723	7.36828e+06	-55089.1	955.817	-29742.5	0.000000	0.000000	6.372881	-0.014456	NaN	0.000000	0.001693	0.001733	28.0772	0.107828	0.002096	51.4481	-144.304	14.2545	0.000413	0.371365	-0.808303	-0.809661	-0.014456	51.4481	-0.808093	-5.790163E+10	2.496642E-13	NaN
329	1.000000	0.382727	7.36828e+06	-55089.1	955.818	-29742.5	0.000000	0.000000	6.382884	-0.023693	NaN	0.000000	0.001642	0.001710	28.0774	0.037655	0.001977	19.0468	-40.4073	-168.022	-0.093803	0.381461	-0.798300	-0.799565	-0.023693	19.0468	-0.797367	-4.141090E+10	5.721353E-13	NaN
329	1.000000	0.392763	7.36828e+06	-55089.1	955.818	-29742.5	0.000000	0.000000	6.392922	0.012203	NaN	0.000000	0.001669	0.001692	28.0772	0.051658	0.001985	26.0192	42.2936	9.723455	-0.013331	0.391405	-0.788263	-0.789621	0.012203	26.0192	-0.788615	-3.149736E+10	-3.874148E-13	NaN
329	1.000000	0.402742	7.36828e+06	-55089.1	955.819	-29742.5	0.000000	0.000000	6.402901	-0.000530	NaN	0.000000	0.001686	0.001697	28.0772	0.083076	0.001949	42.6304	117.057	-167.227	-0.064988	0.401418	-0.778284	-0.779608	-0.000530	42.6304	-0.778275	-2.279226E+10	2.324037E-14	NaN
329	1.000000	0.412753	7.36828e+06	-55089.1	955.818	-29742.5	0.000000	0.000000	6.412912	0.013326	NaN	0.000000	0.001680	0.001712	28.0773	0.074087	0.001887	39.2518	76.7469	15.356	0.050231	0.411415	-0.768273	-0.769611	0.013326	39.2518	-0.768528	-1.679915E+10	-7.932837E-13	NaN
329	1.000000	0.422748	7.36828e+06	-55089.1	955.818	-29742.5	0.000000	0.000000	6.422905	-0.049825	NaN	0.000000	0.001661	0.001688	28.0774	0.121950	0.002107	57.8751	58.5742	-167.255	-0.124594	0.421448	-0.758278	-0.759578	-0.049825	57.8751	-0.757632	-1.194236E+10	4.172139E-12	NaN
329	1.000000	0.432777	7.36828e+06	-55089.1	955.818	-29742.5	0.000000	0.000000	6.432934	-0.045071	NaN	0.000000	0.001677	0.001710	28.0784	0.059901	0.002007	29.8508	-0.461982	13.2716	-0.041525	0.431389	-0.748249	-0.749637	-0.045071	29.8508	-0.747116	-8.589420E+9	5.247273E-12	NaN
329	1.000000	0.442738	7.36828e+06	-55089.1	955.818	-29742.5	0.000000	0.000000	6.442897	0.014331	NaN	0.000000	0.001693	0.001673	28.0784	0.172042	0.001911	90.0045	-117.289	-166.289	-0.001339	0.441428	-0.738288	-0.739599	0.014331	90.0045	-0.738408	-6.536825E+9	-2.192414E-12	NaN
329	1.000000	0.452778	7.36828e+06	-55089.1	955.818	-29742.5	0.000000	0.000000	6.452935	-0.046069	NaN	0.000000	0.001713	0.001740	28.0786	0.051656	0.002062	25.0482	53.5879	14.2967	-0.059130	0.451430	-0.728248	-0.729596	-0.046069	25.0482	-0.726868	-4.551177E+9	1.012239E-11	NaN
329	1.000000	0.462754	7.36828e+06	-55089.1	955.817	-29742.5	0.000000	0.000000	6.462914	0.050347	NaN	0.000000	0.001751	0.001717	28.0787	0.076310	0.001901	40.1344	-44.2422	-167.767	0.101497	0.461469	-0.718273	-0.719558	0.050347	40.1344	-0.719213	-3.578866E+9	-1.406790E-11	NaN
329	1.000000	0.472783	7.36828e+06	-55089.1	955.818	-29742.5	0.000000	0.000000	6.472942	0.017247	NaN	0.000000	0.001736	0.001709	28.0787	0.074090	0.001978	37.4664	34.5716	12.398	-0.056026	0.471425	-0.708243	-0.709602	0.017247	37.4664	-0.708589	-2.563230E+9	-6.728812E-12	NaN
329	1.000000	0.482790	7.36828e+06	-55089.1	955.818	-29742.5	0.000000	0.000000	6.482947	-0.025340	NaN	0.000000	0.001713	0.001690	28.0784	0.102199	0.001938	52.7323	-17.2941	-167.938	-0.030124	0.481456	-0.698236	-0.699571	-0.025340	52.7323	-0.697876	-1.830306E+9	1.384465E-11	NaN
329	1.000000	0.492755	7.36828e+06	-55089.1	955.818	-29742.5	0.000000	0.000000	6.492913	-0.013212	NaN	0.000000	0.001744	0.001685	28.0787	0.044659	0.001984	22.5043	137.76	14.866	-0.025702	0.491451	-0.688271	-0.689575	-0.013212	22.5043	-0.687831	-1.334345E+9	9.901492E-12	NaN
329	1.000000	0.502796	7.36828e+06	-55089.1	955.819	-29742.5	0.000000	0.000000	6.502953	-0.029973	NaN	0.000000	0.001703	0.001652	28.0786	0.085141	0.001958	43.4936	-39.1574	-164.026	-0.104162	0.501465	-0.678230	-0.679561	-0.029973	43.4936	-0.677713	-9.703504E+8	3.088905E-11	NaN
329	1.000000	0.512796	7.36828e+06	-55089.1	955.817	-29742.5	0.000000	0.000000	6.512953	-0.037317	NaN	0.000000	0.001732	0.001719	28.0787	0.085190	0.002065	41.2593	60.8998	15.524	0.022497	0.511451	-0.668231	-0.669575	-0.037317	41.2593	-0.667552	-7.045075E+8	5.296865E-11	NaN
329	1.000000	0.522786	7.36828e+06	-55089.1	955.818	-29742.5	0.000000	0.000000	6.522945	0.016407	NaN	0.000000	0.001738	0.001709	28.0786	0.093326	0.001890	49.3906	12.1079	-166.419	-0.013805	0.521468	-0.658241	-0.659559	0.016407	49.3906	-0.658490	-5.293967E+8	-3.099249E-11	NaN
329	1.000000	0.532795	7.36828e+06	-55089.1	955.818	-29742.5	0.000000	0.000000	6.532954	0.013509	NaN	0.000000	0.001747	0.001700	28.0802	0.080508	0.002091	38.5038	22.8651	13.9045	-0.000660	0.531474	-0.648231	-0.649552	0.013509	38.5038	-0.648494	-3.861831E+8	-3.498199E-11	NaN
329	1.000000	0.542791	7.36828e+06	-55089.1	955.818	-29742.5	0.000000	0.000000	6.542946	-0.088747	NaN	0.000000	0.001715	0.001717	28.0787	0.061607	0.002075	29.691	-62.507	-168.466	-0.045962	0.541521	-0.638235	-0.639506	-0.088747	29.691	-0.635994	-2.602017E+8	3.410717E-10	NaN
329	1.000000	0.552804	7.36828e+06	-55089.1	955.818	-29742.5	0.000000	0.000000	6.552959	-0.095174	NaN	0.000000	0.001702	0.001706	28.0786	0.110181	0.002061	53.465	54.5694	14.248	-0.087793	0.551425	-0.628222	-0.629601	-0.095174	53.465	-0.626887	-1.951036E+8	4.878136E-10	NaN
329	1.000000	0.562813	7.36828e+06	-55089.1	955.818	-29742.5	0.000000	0.000000	6.562970	-0.033236	NaN	0.000000	0.001756	0.001712	28.0789	0.188425	0.001982	95.0673	178.644	-165.223	-0.147460	0.561541	-0.618213	-0.619486	-0.033236	95.0673	-0.617951	-1.470504E+8	2.260203E-10	NaN
329	1.000000	0.572804	7.36828e+06	-55089.1	955.818	-29742.5	0.000000	0.000000	6.572961	-0.022738	NaN	0.000000	0.001745	0.001688	28.0777	0.047296	0.001985	23.8325	7.339313	12.2656	-0.067782	0.571450	-0.608222	-0.609576	-0.022738	23.8325	-0.607507	-1.056352E+8	2.152536E-10	NaN
329	1.000000	0.582838	7.36828e+06	-55089.1	955.819	-29742.5	0.000000	0.000000	6.582998	0.041859	NaN	0.000000	0.001729	0.001669	28.0775	0.057331	0.001982	28.9257	-43.6882	-165.547	0.015767	0.581522	-0.598188	-0.599504	0.041859	28.9257	-0.599273	-8.136786E+7	-5.144423E-10	NaN
329	1.000000	0.592806	7.36828e+06	-55089.1	955.817	-29742.5	0.000000	0.000000	6.592965	0.008255	NaN	0.000000	0.001727	0.001718	28.0775	0.096273	0.001884	51.1091	31.3835	10.8635	0.025794	0.591444	-0.588220	-0.589582	0.008255	51.1091	-0.588342	-5.751745E+7	-1.435274E-10	NaN
329	1.000000	0.602821	7.36829e+06	-55089.1	955.818	-29742.5	0.000000	0.000000	6.602979	-0.018420	NaN	0.000000	0.001748	0.001723	28.0776	0.113374	0.001924	58.9401	-135.593	-166.872	-0.000101	0.601463	-0.578205	-0.579563	-0.018420	58.9401	-0.577971	-4.137314E+7	4.452076E-10	NaN
329	1.000000	0.612808	7.36829e+06	-55089.1	955.819	-29742.5	0.000000	0.000000	6.612966	-0.007393	NaN	0.000000	0.001751	0.001736	28.0775	0.060884	0.001948	31.2595	152.115	10.8878	-0.007153	0.611506	-0.568218	-0.569520	-0.007393	31.2595	-0.568041	-3.016881E+7	2.450547E-10	NaN
329	1.000000	0.622848	7.36829e+06	-55089.1	955.818	-29742.5	0.000000	0.000000	6.623007	0.001601	NaN	0.000000	0.001714	0.001729	28.0776	0.060054	0.002041	29.4305	-41.9062	-164.031	0.059730	0.621539	-0.558178	-0.559487	0.001601	29.4305	-0.558219	-2.206653E+7	-7.253230E-11	NaN
329	1.000000	0.632836	7.36829e+06	-55089.1	955.817	-29742.5	0.000000	0.000000	6.632993	-0.021256	NaN	0.000000	0.001737	0.001681	28.0774	0.059803	0.001899	31.4875	56.0054	11.1992	0.032392	0.631499	-0.548190	-0.549527	-0.021256	31.4875	-0.547684	-1.577158E+7	1.347766E-9	NaN
329	1.000000	0.642827	7.36829e+06	-55089.1	955.818	-29742.5	0.000000	0.000000	6.642985	-0.015630	NaN	0.000000	0.001693	0.001695	28.0778	0.173518	0.002115	82.0257	77.1071	-163.148	-0.042335	0.641543	-0.538199	-0.539483	-0.015630	82.0257	-0.538056	-1.159823E+7	1.347594E-9	NaN
329	1.000000	0.652858	7.36829e+06	-55089.1	955.818	-29742.5	0.000000	0.000000	6.653015	-0.039168	NaN	0.000000	0.001701	0.001709	28.0774	0.087343	0.002074	42.1128	-92.1647	16.3362	-0.082013	0.651415	-0.528168	-0.529611	-0.039168	42.1128	-0.527471	-8.26876e+06	4.736860E-9	NaN
329	1.000000	0.662839	7.36829e+06	-55089.1	955.818	-29742.5	0.000000	0.000000	6.662996	-0.026977	NaN	0.000000	0.001686	0.001717	28.0776	0.012814	0.001973	6.495222	-120.151	-163.129	-0.006775	0.661565	-0.518187	-0.519461	-0.026977	6.495222	-0.515072	-5.55956e+06	4.852293E-9	NaN
329	1.000000	0.672871	7.36829e+06	-55089.1	955.817	-29742.5	0.000000	0.000000	6.673025	-0.120356	NaN	0.000000	0.001712	0.001725	28.0775	0.068162	0.001828	37.2792	-65.2311	15.0158	-0.117852	0.671488	-0.508155	-0.509538	-0.120356	37.2792	-0.505734	-4.12069e+06	2.920776E-8	NaN
329	1.000000	0.682855	7.36829e+06	-55089.1	955.818	-29742.5	0.000000	0.000000	6.683009	-0.095755	NaN	0.000000	0.001655	0.001716	28.0781	0.127963	0.002089	61.244	170.098	-169.2	-0.093885	0.681566	-0.498172	-0.499460	-0.095755	61.244	-0.496999	-3.11272e+06	3.076241E-8	NaN
329	1.000000	0.692897	7.36829e+06	-55089.1	955.819	-29742.5	0.000000	0.000000	6.693052	-0.084296	NaN	0.000000	0.001665	0.001683	28.0775	0.049282	0.002065	23.8711	81.7036	13.772	0.001443	0.691576	-0.488129	-0.489450	-0.084296	23.8711	-0.485481	-2.14891e+06	3.922716E-8	NaN
329	1.000000	0.702887	7.36829e+06	-55089.1	955.818	-29742.5	0.000000	0.000000	6.703045	-0.019654	NaN	0.000000	0.001669	0.001725	28.0786	0.050004	0.001997	25.0373	38.0817	-167.537	-0.017017	0.701583	-0.478139	-0.479444	-0.019654	25.0373	-0.477551	-1.66429e+06	1.180919E-8	NaN
329	1.000000	0.712891	7.36829e+06	-55089.1	955.818	-29742.5	0.000000	0.000000	6.713048	-0.041591	NaN	0.000000	0.001673	0.001709	28.0788	0.154195	0.001975	78.0822	-22.6101	12.9256	-0.067428	0.711538	-0.468135	-0.469488	-0.041591	78.0822	-0.467735	-1.21238e+06	3.430498E-8	NaN
329	1.000000	0.722880	7.36829e+06	-55089.1	955.818	-29742.5	0.000000	0.000000	6.723034	-0.119341	NaN	0.000000	0.001709	0.001715	28.079	0.108319	0.001935	55.9914	84.3437	-166.708	-0.073833	0.721581	-0.458146	-0.459445	-0.119341	55.9914	-0.456547	-844268	1.413541E-7	NaN
329	1.000000	0.732889	7.36829e+06	-55089.1	955.818	-29742.5	0.000000	0.000000	6.733046	-0.047365	NaN	0.000000	0.001671	0.001690	28.0787	0.072337	0.001946	37.1653	-58.091	10.7161	-0.076925	0.731541	-0.448137	-0.449485	-0.047365	37.1653	-0.447181	-623214	7.600172E-8	NaN
329	1.000000	0.742859	7.36829e+06	-55089.1	955.819	-29742.5	0.000000	0.000000	6.743017	-0.020901	NaN	0.000000	0.001672	0.001704	28.0794	0.077832	0.001884	41.301	-83.0909	-168.52	0.012038	0.741592	-0.438167	-0.439434	-0.020901	41.301	-0.437787	-459334	4.550271E-8	NaN
329	1.000000	0.752898	7.36829e+06	-55089.1	955.817	-29742.5	0.000000	0.000000	6.753055	-0.027785	NaN	0.000000	0.001682	0.001691	28.079	0.067783	0.001927	35.1843	48.5862	14.0341	-0.013842	0.751528	-0.428129	-0.429498	-0.027785	35.1843	-0.427536	-329002	8.445176E-8	NaN
329	1.000000	0.762867	7.36829e+06	-55089.1	955.819	-29742.5	0.000000	0.000000	6.763023	-0.051974	NaN	0.000000	0.001670	0.001700	28.0789	0.043666	0.002027	21.5373	158.33	-164.556	-0.013250	0.761609	-0.418159	-0.419417	-0.051974	21.5373	-0.416349	-228356	2.275995E-7	NaN
329	1.000000	0.772899	7.36829e+06	-55089.1	955.818	-29742.5	0.000000	0.000000	6.773056	-0.036478	NaN	0.000000	0.001677	0.001719	28.0787	0.071552	0.002162	33.1016	-76.3345	15.0449	-0.010763	0.771523	-0.408127	-0.409503	-0.036478	33.1016	-0.407300	-169822	2.148035E-7	NaN
329	1.000000	0.782922	7.36829e+06	-55089.1	955.819	-29742.5	0.000000	0.000000	6.783080	-0.004704	NaN	0.000000	0.001702	0.001683	28.0786	0.087904	0.001997	44.0226	-63.9654	-168.131	0.044111	0.781591	-0.398104	-0.399435	-0.004704	44.0226	-0.398024	-125259	3.755510E-8	NaN
329	1.000000	0.792901	7.36829e+06	-55089.1	955.818	-29742.5	0.000000	0.000000	6.793059	-0.033603	NaN	0.000000	0.001670	0.001679	28.0789	0.036154	0.002020	17.8993	83.1418	11.6153	-0.091050	0.791480	-0.388125	-0.389546	-0.033603	17.8993	-0.386717	-86333	3.892296E-7	NaN
329	1.000000	0.802894	7.36829e+06	-55089.1	955.818	-29742.5	0.000000	0.000000	6.803047	-0.142673	NaN	0.000000	0.001686	0.001664	28.0788	0.065311	0.002026	32.2304	-67.673	-166.903	-0.051827	0.801570	-0.378132	-0.379456	-0.142673	32.2304	-0.374812	-58260.2	2.448891E-6	NaN
329	1.000000	0.812893	7.36829e+06	-55089.1	955.818	-29742.5	0.000000	0.000000	6.813052	-0.010871	NaN	0.000000	0.001699	0.001735	28.0788	0.079573	0.001903	41.8238	170.181	16.6772	-0.128652	0.811562	-0.368133	-0.369464	-0.010871	41.8238	-0.367938	-46389.4	2.343414E-7	NaN
329	1.000000	0.822905	7.36829e+06	-55089.1	955.818	-29742.5	0.000000	0.000000	6.823062	-0.055742	NaN	0.000000	0.001705	0.001730	28.0788	0.054584	0.002021	27.0076	2.308634	-161.771	-0.060026	0.821629	-0.358121	-0.359397	-0.055742	27.0076	-0.356573	-31788.6	1.753515E-6	NaN
329	1.000000	0.832903	7.36829e+06	-55089.1	955.818	-29742.5	0.000000	0.000000	6.833059	-0.053551	NaN	0.000000	0.001670	0.001724	28.0788	0.066600	0.001953	34.0998	26.6984	15.4182	-0.082447	0.831511	-0.348123	-0.349515	-0.053551	34.0998	-0.346945	-23048.3	2.323429E-6	NaN
329	1.000000	0.842919	7.36829e+06	-55089.1	955.818	-29742.5	0.000000	0.000000	6.843077	0.003986	NaN	0.000000	0.001662	0.001658	28.0776	0.031681	0.002043	15.5092	-135.091	-166.907	-0.013943	0.841601	-0.338107	-0.339425	0.003986	15.5092	-0.338300	-17249.1	-2.310891E-7	NaN
329	1.000000	0.852873	7.36829e+06	-55089.1	955.818	-29742.5	0.000000	0.000000	6.853032	-0.001202	NaN	0.000000	0.001702	0.001688	28.0775	0.045554	0.001891	24.096	-76.0843	12.7703	0.018746	0.851528	-0.328153	-0.329498	-0.001202	24.096	-0.328116	-12241.7	9.818384E-8	NaN
329	1.000000	0.862946	7.36829e+06	-55089.1	955.818	-29742.5	0.000000	0.000000	6.863104	-0.020365	NaN	0.000000	0.001723	0.001684	28.0775	0.067471	0.001898	35.5507	176.574	-163.85	-0.017184	0.861658	-0.318080	-0.319369	-0.020365	35.5507	-0.317651	-8590.91	2.370550E-6	NaN
329	1.000000	0.872948	7.36829e+06	-55089.1	955.817	-29742.5	0.000000	0.000000	6.873105	-0.017875	NaN	0.000000	0.001695	0.001688	28.0776	0.095230	0.001785	53.3573	141.453	12.3975	-0.065047	0.871533	-0.308079	-0.309493	-0.017875	53.3573	-0.307827	-6150.11	2.906372E-6	NaN
329	1.000000	0.882953	7.36829e+06	-55089.1	955.819	-29742.5	0.000000	0.000000	6.883110	-0.032918	NaN	0.000000	0.001689	0.001696	28.0775	0.117590	0.002107	55.8168	87.1249	-166.293	0.070746	0.881676	-0.298073	-0.299351	-0.032918	55.8168	-0.297631	-4338.55	7.587424E-6	NaN
329	1.000000	0.892950	7.36829e+06	-55089.1	955.818	-29742.5	0.000000	0.000000	6.893109	0.012716	NaN	0.000000	0.001697	0.001671	28.0775	0.080474	0.002065	38.9751	-124.174	12.8417	0.059303	0.891563	-0.288076	-0.289463	0.012716	38.9751	-0.288321	-3148.73	-4.038492E-6	NaN
329	1.000000	0.902942	7.36829e+06	-55089.1	955.819	-29742.5	0.000000	0.000000	6.903098	-0.046239	NaN	0.000000	0.001741	0.001697	28.0778	0.076585	0.001971	38.8613	38.2369	-163.853	-0.049591	0.901620	-0.278085	-0.279406	-0.046239	38.8613	-0.277192	-2140.76	2.159922E-5	NaN
329	1.000000	0.912953	7.36829e+06	-55089.1	955.817	-29742.5	0.000000	0.000000	6.913108	-0.066885	NaN	0.000000	0.001718	0.001664	28.0775	0.046587	0.001956	23.8133	-108.075	17.1742	-0.091840	0.911586	-0.268074	-0.269440	-0.066885	23.8133	-0.265967	-1445.92	4.625751E-5	NaN
329	1.000000	0.922967	7.36829e+06	-55089.1	955.818	-29742.5	0.000000	0.000000	6.923130	0.098774	NaN	0.000000	0.001716	0.001691	28.0775	0.078780	0.001991	39.5633	-133.607	-166.117	0.062040	0.921673	-0.258059	-0.259353	0.098774	39.5633	-0.259931	-1169.14	-8.448462E-5	NaN
329	1.000000	0.932961	7.36829e+06	-55089.1	955.819	-29742.5	0.000000	0.000000	6.933118	-0.034557	NaN	0.000000	0.001681	0.001711	28.0776	0.095707	0.002000	47.862	3.702608	13.2269	-0.028781	0.931636	-0.248065	-0.249391	-0.034557	47.862	-0.247524	-752.702	4.591049E-5	NaN
329	1.000000	0.942967	7.36829e+06	-55089.1	955.817	-29742.5	0.000000	0.000000	6.943124	-0.053573	NaN	0.000000	0.001766	0.001690	28.0777	0.092237	0.002018	45.7111	-90.0878	-164.606	0.038667	0.941680	-0.238059	-0.239346	-0.053573	45.7111	-0.237180	-519.326	0.000103	NaN
329	1.000000	0.952953	7.36829e+06	-55089.1	955.818	-29742.5	0.000000	0.000000	6.953111	-0.011659	NaN	0.000000	0.001742	0.001710	28.0776	0.048742	0.002058	23.689	94.9258	14.1174	-0.008539	0.951616	-0.228073	-0.229410	-0.011659	23.689	-0.227704	-368.307	3.165665E-5	NaN
329	1.000000	0.962949	7.36829e+06	-55089.1	955.818	-29742.5	0.000000	0.000000	6.963106	-0.041291	NaN	0.000000	0.001738	0.001694	28.0778	0.040257	0.001827	22.0317	-106.859	-162.954	-0.011047	0.961665	-0.218077	-0.219362	-0.041291	22.0317	-0.216672	-245.681	0.000168	NaN
329	1.000000	0.972973	7.36829e+06	-55089.1	955.817	-29742.5	0.000000	0.000000	6.973132	0.009633	NaN	0.000000	0.001747	0.001669	28.078	0.038256	0.002063	18.544	164.799	16.7187	-0.036225	0.971619	-0.208053	-0.209408	0.009633	18.544	-0.208443	-180.957	-5.323169E-5	NaN
329	1.000000	0.982998	7.36829e+06	-55089.1	955.818	-29742.5	0.000000	0.000000	6.983156	-0.019938	NaN	0.000000	0.001643	0.001640	28.0787	0.029758	0.001997	14.8997	169.46	-165.075	-0.065527	0.981701	-0.198028	-0.199325	-0.019938	14.8997	-0.197024	-117.674	0.000169	NaN
329	1.000000	0.992996	7.36829e+06	-55089.1	955.817	-29742.5	0.000000	0.000000	6.993153	-0.039886	NaN	0.000000	0.001695	0.001680	28.0791	0.079700	0.001959	40.6926	127.079	15.2215	0.018140	0.991612	-0.188030	-0.189415	-0.039886	40.6926	-0.187295	-81.0472	0.000492	NaN
329	1.000000	1.002989	7.36829e+06	-55089.1	955.818	-29742.5	0.000000	0.000000	7.003146	-0.049912	NaN	0.000000	0.001679	0.001703	28.0789	0.041983	0.001967	21.3387	-150.281	-165.174	-0.005420	1.001710	-0.178037	-0.179316	-0.049912	21.3387	-0.176283	-52.7218	0.000947	NaN
329	1.000000	1.012974	7.36829e+06	-55089.1	955.817	-29742.5	0.000000	0.000000	7.013129	-0.086068	NaN	0.000000	0.001677	0.001679	28.0792	0.047437	0.002048	23.1644	19.1522	17.7506	-0.050815	1.011610	-0.168053	-0.169417	-0.086068	23.1644	-0.165266	-33.9605	0.002534	NaN
329	1.000000	1.022978	7.36829e+06	-55089.1	955.817	-29742.5	0.000000	0.000000	7.023137	0.014087	NaN	0.000000	0.001691	0.001719	28.0788	0.106819	0.002017	52.9488	96.0039	-166.081	0.006630	1.021679	-0.158048	-0.159347	0.014087	52.9488	-0.158247	-25.5139	-0.000552	NaN
329	1.000000	1.032999	7.36829e+06	-55089.1	955.818	-29742.5	0.000000	0.000000	7.033157	-0.008762	NaN	0.000000	0.001685	0.001706	28.0789	0.038521	0.002114	18.221	69.4531	14.8403	-0.046653	1.031663	-0.148027	-0.149363	-0.008762	18.221	-0.147667	-16.4177	0.000534	NaN
329	1.000000	1.043004	7.36829e+06	-55089.1	955.818	-29742.5	0.000000	0.000000	7.043162	-0.003749	NaN	0.000000	0.001688	0.001721	28.0789	0.033659	0.001923	17.5061	-64.3324	-162.931	0.015699	1.041697	-0.138022	-0.139329	-0.003749	17.5061	-0.137862	-10.7811	0.000348	NaN
329	1.000000	1.053015	7.36829e+06	-55089.1	955.818	-29742.5	0.000000	0.000000	7.053171	-0.071831	NaN	0.000000	0.001699	0.001704	28.0789	0.084390	0.001888	44.7062	120.101	15.1102	-0.036391	1.051663	-0.128011	-0.129363	-0.071831	44.7062	-0.126806	-6.600954	0.010882	NaN
329	1.000000	1.062993	7.36829e+06	-55089.1	955.818	-29742.5	0.000000	0.000000	7.063149	-0.079985	NaN	0.000000	0.001689	0.001689	28.0787	0.016882	0.001990	8.482139	144.997	-163.725	-0.104431	1.061726	-0.118033	-0.119300	-0.079985	8.482139	-0.110961	-3.148342	0.025405	NaN
329	1.000000	1.073005	7.36829e+06	-55089.1	955.818	-29742.5	0.000000	0.000000	7.073162	-0.040132	NaN	0.000000	0.001672	0.001676	28.0789	0.043812	0.001938	22.6091	-67.0639	14.6112	-0.002665	1.071673	-0.108021	-0.109353	-0.040132	22.6091	-0.106690	-2.555752	0.015703	NaN
329	1.000000	1.083016	7.36829e+06	-55089.1	955.819	-29742.5	0.000000	0.000000	7.083172	-0.075964	NaN	0.000000	0.001703	0.001673	28.0787	0.108480	0.002030	53.4273	39.2658	-165.099	-0.077317	1.081715	-0.098010	-0.099311	-0.075964	53.4273	-0.096944	-1.561202	0.048657	NaN
329	1.000000	1.093049	7.36829e+06	-55089.1	955.818	-29742.5	0.000000	0.000000	7.093210	0.052405	NaN	0.000000	0.001649	0.001675	28.0788	0.020932	0.001999	10.469	-17.8177	15.5011	0.036295	1.091639	-0.087977	-0.089387	0.052405	10.469	-0.091732	-1.186419	-0.044171	NaN
329	1.000000	1.103036	7.36829e+06	-55089.1	955.817	-29742.5	0.000000	0.000000	7.103195	0.007710	NaN	0.000000	0.001649	0.001732	28.0788	0.078707	0.002021	38.9391	-149.109	-161.192	0.007080	1.101690	-0.077990	-0.079336	0.007710	38.9391	-0.078138	-0.555701	-0.013874	NaN
329	1.000000	1.113038	7.36829e+06	-55089.1	955.819	-29742.5	0.000000	0.000000	7.113195	-0.035291	NaN	0.000000	0.001695	0.001675	28.0778	0.147038	0.001963	74.8918	-81.3577	13.6972	-0.029769	1.111676	-0.067988	-0.069350	-0.035291	74.8918	-0.067635	-0.294441	0.119857	NaN
329	1.000000	1.123048	7.36829e+06	-55089.1	955.818	-29742.5	0.000000	0.000000	7.123206	0.004191	NaN	0.000000	0.001712	0.001663	28.0776	0.068786	0.002069	33.2441	-69.1956	-168.618	-0.056756	1.121759	-0.057979	-0.059267	0.004191	33.2441	-0.058073	-0.158447	-0.026450	NaN
329	1.000000	1.133080	7.36829e+06	-55089.1	955.82	-29742.5	0.000000	0.000000	7.133237	-0.039668	NaN	0.000000	0.001688	0.001677	28.0778	0.104472	0.001933	54.0558	73.2752	13.1887	-0.025033	1.131654	-0.047946	-0.049372	-0.039668	54.0558	-0.047396	-0.076061	0.521525	NaN
329	1.000000	1.143016	7.36829e+06	-55089.1	955.819	-29742.5	0.000000	0.000000	7.143174	-0.002504	NaN	0.000000	0.001718	0.001671	28.0775	0.132252	0.002047	64.618	-121.688	-162.949	0.044009	1.141725	-0.038011	-0.039302	-0.002504	64.618	-0.037982	-0.039293	0.063730	NaN
329	1.000000	1.153044	7.36829e+06	-55089.1	955.818	-29742.5	0.000000	0.000000	7.153200	-0.061378	NaN	0.000000	0.001701	0.001695	28.0778	0.101603	0.002009	50.5642	-47.1189	12.5644	-0.012276	1.151676	-0.027982	-0.029350	-0.061378	50.5642	-0.027072	-0.019139	3.206898	NaN
329	1.000000	1.163054	7.36829e+06	-55089.1	955.819	-29742.5	0.000000	0.000000	7.163214	0.032942	NaN	0.000000	0.001714	0.001689	28.078	0.174222	0.002098	83.0391	155.686	-166.087	-0.013297	1.161737	-0.017973	-0.019289	0.032942	83.0391	-0.018270	-0.011344	-2.904034	NaN
329	1.000000	1.173035	7.36829e+06	-55089.1	955.82	-29742.5	0.000000	0.000000	7.173192	-0.050395	NaN	0.000000	0.001721	0.001703	28.0778	0.068618	0.001886	36.3736	163.139	17.9317	0.073747	1.171718	-0.007991	-0.009308	-0.050395	36.3736	-0.006952	-0.004612	10.9277	NaN
329	1.000000	1.183028	7.36829e+06	-55089.1	955.819	-29742.5	0.000000	0.000000	7.183225	0.912860	NaN	0.000000	0.001716	0.001670	28.0776	1.385073	0.001751	790.869	6.570755	-169.685	0.155179	1.181761	0.002002	0.000734	0.912860	790.869	0.001137	0.000868	1051.08	24518.5
329	2.000000	1.191198	7.36829e+06	-55089.1	955.819	-29742.5	0.000000	0.000000	7.191691	8.135889	NaN	0.000000	0.001707	0.001715	28.0778	8.775394	0.001723	5091.83	9.467576	6.597321	7.186131	1.190839	0.010172	0.009812	8.135889	5091.83	0.008973	0.008063	1009.07	51808.9
329	2.000000	1.193685	7.36829e+06	-55089.1	955.819	-29742.5	0.000000	0.000000	7.194327	11.772	NaN	0.000000	0.001708	0.001696	28.078	11.6699	0.001665	7009.47	3.346190	-170.299	11.1063	1.193373	0.012658	0.012346	11.772	7009.47	0.011399	0.010778	1092.22	61686.5
329	2.000000	1.196202	7.36829e+06	-55089.1	955.819	-29742.5	0.000000	0.000000	7.196991	15.3266	NaN	0.000000	0.001695	0.001683	28.0778	13.7945	0.001706	8086.49	5.059541	8.160200	14.5948	1.195848	0.015176	0.014822	15.3266	8086.49	0.013754	0.013660	1122.04	63214.1
329	2.000000	1.198611	7.36829e+06	-55089.1	955.82	-29742.5	0.000000	0.000000	7.199545	18.8549	NaN	0.000000	0.001667	0.001674	28.0776	16.3317	0.001781	9171.97	2.903705	-171.567	17.7823	1.198384	0.017585	0.017358	18.8549	9171.97	0.016043	0.016702	1128.91	64841.6
329	2.000000	1.201079	7.36829e+06	-55089.1	955.819	-29742.5	0.000000	0.000000	7.202218	23.8446	NaN	0.000000	0.001649	0.001685	28.0776	18.9218	0.001864	10150.7	4.250409	6.815440	22.0547	1.200821	0.020052	0.019795	23.8446	10150.7	0.018291	0.019927	1196.59	65697.1
329	2.000000	1.203692	7.36829e+06	-55089.1	955.818	-29742.5	0.000000	0.000000	7.205083	29.9533	NaN	0.000000	0.001651	0.001712	28.0777	21.6606	0.001796	12058.9	6.762347	-177.641	30.4718	1.203326	0.022666	0.022300	29.9533	12058.9	0.020803	0.023819	1257.52	71386.3
329	2.000000	1.206201	7.36829e+06	-55089.1	955.819	-29742.5	0.000000	0.000000	7.207797	34.9458	NaN	0.000000	0.001700	0.001655	28.0786	23.8267	0.001739	13702.5	5.024745	2.310642	35.107	1.205888	0.025175	0.024862	34.9458	13702.5	0.023262	0.027930	1251.2	74909.6
329	2.000000	1.208632	7.36829e+06	-55089.1	955.819	-29742.5	0.000000	0.000000	7.210511	41.8261	NaN	0.000000	0.001713	0.001684	28.0789	25.9941	0.001725	15066.2	1.292883	-174.973	41.7868	1.208295	0.027606	0.027268	41.8261	15066.2	0.025524	0.031975	1308.07	76978.6
329	2.000000	1.211066	7.36829e+06	-55089.1	955.819	-29742.5	0.000000	0.000000	7.213307	50.6334	NaN	0.000000	0.001690	0.001641	28.0787	28.8897	0.001722	16780.5	4.560784	0.871046	46.6485	1.210668	0.030040	0.029641	50.6334	16780.5	0.027777	0.036261	1396.34	80511.2
329	2.000000	1.213608	7.36829e+06	-55089.1	955.82	-29742.5	0.000000	0.000000	7.216019	54.7643	NaN	0.000000	0.001692	0.001686	28.0789	32.5125	0.001979	16425.4	6.592204	179.578	54.9717	1.213306	0.032582	0.032280	54.7643	16425.4	0.030081	0.040912	1338.58	74192.9
329	2.000000	1.216120	7.36829e+06	-55089.1	955.82	-29742.5	0.000000	0.000000	7.218814	61.6416	NaN	0.000000	0.001688	0.001713	28.0787	34.0933	0.001898	17958.6	5.459462	0.264681	60.5817	1.215787	0.035094	0.034761	61.6416	17958.6	0.032520	0.046128	1336.32	76394.9
329	2.000000	1.218563	7.36829e+06	-55089.1	955.819	-29742.5	0.000000	0.000000	7.221705	72.5289	NaN	0.000000	0.001719	0.001727	28.0787	35.758	0.001734	20619.8	4.818175	179.526	72.377	1.218334	0.037536	0.037307	72.5289	20619.8	0.034898	0.051509	1408.07	83007
329	2.000000	1.221069	7.36829e+06	-55089.1	955.819	-29742.5	0.000000	0.000000	7.224667	83.6072	NaN	0.000000	0.001685	0.001671	28.0789	38.6526	0.001907	20268.6	5.502413	-0.001614	81.9443	1.220623	0.040043	0.039596	83.6072	20268.6	0.036949	0.056381	1482.89	77988.2
329	2.000000	1.223542	7.36829e+06	-55089.1	955.822	-29742.5	0.000000	0.000000	7.227469	91.6074	NaN	0.000000	0.001692	0.001685	28.0787	40.5605	0.001758	23068.2	3.120398	179.875	89.0573	1.223282	0.042516	0.042256	91.6074	23068.2	0.039537	0.062838	1457.83	84076.6
329	2.000000	1.226094	7.36829e+06	-55089.1	955.82	-29742.5	0.000000	0.000000	7.230631	106.447	NaN	0.000000	0.001696	0.001692	28.0793	42.3057	0.001547	27352.4	4.490196	-2.935572	104.365	1.225715	0.045067	0.044688	106.447	27352.4	0.042149	0.069699	1527.24	94657.6
329	2.000000	1.228610	7.36829e+06	-55089.1	955.82	-29742.5	0.000000	0.000000	7.233560	116.481	NaN	0.000000	0.001673	0.001674	28.0785	44.4512	0.001702	26111.5	3.744120	178.6	117.361	1.228180	0.047584	0.047154	116.481	26111.5	0.044238	0.075439	1544.03	86857.3
329	2.000000	1.231138	7.36829e+06	-55089.1	955.82	-29742.5	0.000000	0.000000	7.236269	120.88	NaN	0.000000	0.001668	0.001669	28.0789	49.4751	0.001760	28104.8	7.810300	-5.274294	123.376	1.230698	0.050112	0.049671	120.88	28104.8	0.046886	0.083031	1455.85	89111.6
329	2.000000	1.233502	7.36829e+06	-55089.1	955.821	-29742.5	0.000000	0.000000	7.239276	136.509	NaN	0.000000	0.001714	0.001677	28.0789	50.7765	0.001823	27859.1	0.422861	-178.479	133.748	1.233176	0.052475	0.052150	136.509	27859.1	0.048800	0.088741	1538.28	85443.3
329	2.000000	1.236060	7.36829e+06	-55089.1	955.82	-29742.5	0.000000	0.000000	7.242196	145.31	NaN	0.000000	0.001707	0.001684	28.0786	53.7906	0.001848	29103.5	6.354721	-4.957230	142.91	1.235741	0.055034	0.054715	145.31	29103.5	0.051289	0.096439	1506.77	85623.5
329	2.000000	1.238599	7.36829e+06	-55089.1	955.819	-29742.5	0.000000	0.000000	7.245267	158.256	NaN	0.000000	0.001708	0.001662	28.0786	55.1479	0.001687	32685.6	2.798499	178.028	159.021	1.238178	0.057572	0.057152	158.256	32685.6	0.053941	0.104983	1507.45	92166
329	2.000000	1.241065	7.36829e+06	-55089.1	955.82	-29742.5	0.000000	0.000000	7.248287	171.705	NaN	0.000000	0.001718	0.001719	28.0774	58.2376	0.001827	31872.8	3.105592	-2.569746	170.168	1.240700	0.060039	0.059674	171.705	31872.8	0.055998	0.111851	1535.12	87070.7
329	2.000000	1.243561	7.36829e+06	-55089.1	955.82	-29742.5	0.000000	0.000000	7.251372	186.033	NaN	0.000000	0.001715	0.001672	28.0774	60.8776	0.001789	34037	5.229137	175.051	184.003	1.243199	0.062535	0.062173	186.033	34037	0.058435	0.120257	1546.96	89674.4
329	2.000000	1.246058	7.36829e+06	-55089.1	955.821	-29742.5	0.000000	0.000000	7.254346	197.617	NaN	0.000000	0.001665	0.001667	28.0772	62.1592	0.001778	34957.6	1.902978	-1.409764	195.038	1.245720	0.065031	0.064694	197.617	34957.6	0.060792	0.128663	1535.93	89040.7
329	2.000000	1.248575	7.36829e+06	-55089.1	955.819	-29742.5	0.000000	0.000000	7.257339	209.187	NaN	0.000000	0.001676	0.001639	28.0775	64.7933	0.001835	35305	5.529954	174.489	209.62	1.248298	0.067549	0.067272	209.187	35305	0.063105	0.137179	1524.92	87089.4
329	2.000000	1.251014	7.36829e+06	-55089.1	955.819	-29742.5	0.000000	0.000000	7.260537	227.643	NaN	0.000000	0.001699	0.001681	28.0774	67.4885	0.001876	35977.6	3.389830	-3.719555	223.641	1.250675	0.069988	0.069649	227.643	35977.6	0.065242	0.145275	1566.97	86240.1
329	2.000000	1.253569	7.36829e+06	-55089.1	955.82	-29742.5	0.000000	0.000000	7.263763	243.964	NaN	0.000000	0.001688	0.001689	28.0775	69.6991	0.001746	39919.1	2.669089	176.392	244.011	1.253243	0.072542	0.072217	243.964	39919.1	0.067959	0.155884	1565.04	92374.9
329	2.000000	1.256047	7.36829e+06	-55089.1	955.82	-29742.5	0.000000	0.000000	7.267076	264.255	NaN	0.000000	0.001692	0.001680	28.0773	71.9334	0.001807	39810.2	7.016088	-7.075580	261.399	1.255590	0.075021	0.074564	264.255	39810.2	0.070043	0.164261	1608.75	89743.1
329	2.000000	1.258623	7.36829e+06	-55089.1	955.821	-29742.5	0.000000	0.000000	7.269991	272.491	NaN	0.000000	0.001703	0.001685	28.0776	74.0164	0.001793	41277.1	3.631664	175.227	279.153	1.258317	0.077597	0.077290	272.491	41277.1	0.072646	0.175016	1556.95	90145.3
329	2.000000	1.260997	7.36829e+06	-55089.1	955.82	-29742.5	0.000000	0.000000	7.273368	296.891	NaN	0.000000	0.001663	0.001684	28.0775	75.68	0.001683	44977.9	7.077915	-8.660092	293.756	1.260602	0.079970	0.079576	296.891	44977.9	0.075020	0.185105	1603.91	95513.1
329	2.000000	1.263475	7.36829e+06	-55089.1	955.821	-29742.5	0.000000	0.000000	7.276388	310.034	NaN	0.000000	0.001706	0.001714	28.0774	79.1174	0.001823	43410.7	3.352940	174.989	306.286	1.263316	0.082449	0.082290	310.034	43410.7	0.077093	0.194131	1597.04	90016.7
329	2.000000	1.265965	7.36829e+06	-55089.1	955.821	-29742.5	0.000000	0.000000	7.279523	325.73	NaN	0.000000	0.001662	0.001694	28.0772	79.9816	0.001734	46114.3	2.533951	-4.681048	320.622	1.265827	0.084938	0.084801	325.73	46114.3	0.079641	0.205501	1585.05	92939.8
329	2.000000	1.268656	7.36829e+06	-55089.1	955.82	-29742.5	0.000000	0.000000	7.283109	347.507	NaN	0.000000	0.001689	0.001635	28.0775	83.3914	0.001872	44538.2	8.200216	170.77	352.341	1.268172	0.087629	0.087145	347.507	44538.2	0.081777	0.215269	1614.29	87703
329	2.000000	1.270997	7.36829e+06	-55089.1	955.822	-29742.5	0.000000	0.000000	7.286335	369.019	NaN	0.000000	0.001720	0.001697	28.0773	85.0438	0.001742	48823.6	3.605566	-6.151371	364.369	1.270661	0.089971	0.089634	369.019	48823.6	0.084302	0.227083	1625.04	93607.5
329	2.000000	1.273472	7.36829e+06	-55089.1	955.821	-29742.5	0.000000	0.000000	7.289686	390.276	NaN	0.000000	0.001677	0.001681	28.0786	89.3076	0.001816	49178.6	5.718279	171.4	385.593	1.273185	0.092446	0.092159	390.276	49178.6	0.086494	0.237582	1642.7	92181.3
329	2.000000	1.275894	7.36829e+06	-55089.1	955.821	-29742.5	0.000000	0.000000	7.292953	410.832	NaN	0.000000	0.001677	0.001653	28.0785	90.7782	0.001798	50487.9	8.662791	-10.8533	401.304	1.275566	0.094868	0.094540	410.832	50487.9	0.088765	0.248688	1652	92498.2
329	2.000000	1.278487	7.36829e+06	-55089.1	955.82	-29742.5	0.000000	0.000000	7.296450	432.813	NaN	0.000000	0.001688	0.001687	28.0787	92.9393	0.001803	51533.6	10.6245	168.143	430.76	1.277974	0.097461	0.096948	432.813	51533.6	0.091162	0.260672	1660.37	92218.1
329	2.000000	1.280961	7.36829e+06	-55089.1	955.821	-29742.5	0.000000	0.000000	7.299704	451.774	NaN	0.000000	0.001711	0.001660	28.0786	95.51	0.001813	52690.4	7.839730	-10.345	448.217	1.280614	0.099935	0.099588	451.774	52690.4	0.093504	0.272633	1657.08	92196.6
329	2.000000	1.283625	7.36829e+06	-55089.1	955.821	-29742.5	0.000000	0.000000	7.303088	469.297	NaN	0.000000	0.001717	0.001668	28.0788	97.2853	0.001706	57022.3	6.456013	170.557	477.883	1.283185	0.102598	0.102159	469.297	57022.3	0.096426	0.287906	1630.03	97094
329	2.000000	1.286021	7.36829e+06	-55089.1	955.821	-29742.5	0.000000	0.000000	7.306581	495.943	NaN	0.000000	0.001673	0.001648	28.0785	98.8554	0.001745	56638.7	7.358237	-10.5302	493.971	1.285622	0.104995	0.104595	495.943	56638.7	0.098428	0.298595	1660.92	94698.9
329	2.000000	1.288462	7.36829e+06	-55089.1	955.821	-29742.5	0.000000	0.000000	7.310127	522.801	NaN	0.000000	0.001690	0.001682	28.0787	100.319	0.001717	58426.4	5.853789	170.731	519.357	1.288105	0.107436	0.107079	522.801	58426.4	0.100725	0.311087	1680.56	95706.5
329	2.000000	1.289025	7.36829e+06	-55089.1	955.822	-29742.5	0.000000	0.000000	7.310785	525.112	NaN	0.000000	0.001680	0.001688	28.0786	99.6967	0.001772	56277.6	1.273594	-4.412795	523.355	1.288650	0.107999	0.107624	525.112	56277.6	0.101001	0.312601	1679.81	91963