File: remote_trans/data/nanoindenter/0828-1/data/Data_2025-08-06,11h17m57s/2025-07-22_16-23-58_1_195.txt
2025-07-22, 16:23:58, 1
Index	Phase	Displacement	Time	Pos X	Pos Y	Pos Z	Rot A	Rot B	Piezo Z	Force A	Force B	Gripper	Voltage A	Voltage B	Temperature	Amplitude force	Amplitude pos	Stiffness	Phase shift	Phase excitation	Force A raw	Displacement raw	HMax	HMax raw	Real Force	Real Stiffness	Contact Depth	Area	Hardness	Reduced Mod.
[#]	[#]	[um]	[s]	[um]	[um]	[um]	[m°]	[m°]	[um]	[uN]	[uN]	[V]	[V]	[V]	[°C]	[uN]	[um]	[N/m]	[°]	[°]	[uN]	[um]	[um]	[um]	[uN]	[N/m]	[um]	[um^2]	[MPa]	[MPa]
195	1.000000	0.002722	7.36695e+06	-48389.1	955.818	-29763	0.000000	0.000000	6.002824	-0.021471	NaN	0.000000	0.001613	0.001724	28.079	0.055409	0.001003	55.2464	27.3399	-167.14	0.000143	0.001496	-1.068508	-1.069735	-0.021471	55.2464	-1.068217	-1.875978E+14	1.144526E-16	NaN
195	1.000000	0.010677	7.36695e+06	-48389.1	955.818	-29763	0.000000	0.000000	6.010783	0.081158	NaN	0.000000	0.001623	0.001769	28.0789	0.031446	0.000963	32.6561	159.21	-155.512	0.029848	0.009339	-1.060553	-1.061892	0.081158	32.6561	-1.062417	-1.567833E+14	-5.176447E-16	NaN
195	1.000000	0.018695	7.36695e+06	-48389.1	955.819	-29763	0.000000	0.000000	6.018800	0.054079	NaN	0.000000	0.001667	0.001715	28.0798	0.010848	0.001726	6.285786	87.2974	-164.653	0.049303	0.017330	-1.052535	-1.053900	0.054079	6.285786	-1.058988	-1.409990E+14	-3.835388E-16	NaN
195	1.000000	0.026675	7.36695e+06	-48389.1	955.818	-29763	0.000000	0.000000	6.026780	0.054442	NaN	0.000000	0.001663	0.001725	28.0802	0.059240	0.001838	32.2352	154.591	-161.377	0.088566	0.025310	-1.044555	-1.045920	0.054442	32.2352	-1.045822	-9.380831E+13	-5.803499E-16	NaN
195	1.000000	0.034661	7.36695e+06	-48389.1	955.818	-29763	0.000000	0.000000	6.034766	0.053897	NaN	0.000000	0.001682	0.001699	28.0798	0.076080	0.001971	38.6059	-93.3723	-168.119	0.055130	0.033352	-1.036570	-1.037878	0.053897	38.6059	-1.037617	-7.276440E+13	-7.406989E-16	NaN
195	1.000000	0.042646	7.36695e+06	-48389.1	955.819	-29763	0.000000	0.000000	6.042750	0.027655	NaN	0.000000	0.001523	0.001710	28.08	0.083627	0.001952	42.8312	-93.2857	-166.732	0.053288	0.041303	-1.028584	-1.029928	0.027655	42.8312	-1.029068	-5.584041E+13	-4.952550E-16	NaN
195	1.000000	0.050681	7.36695e+06	-48389.1	955.819	-29763	0.000000	0.000000	6.050784	0.008293	NaN	0.000000	0.001550	0.001648	28.08	0.091603	0.002002	45.7482	-148.37	-170.92	-0.027463	0.049315	-1.020549	-1.021916	0.008293	45.7482	-1.020685	-4.306942E+13	-1.925398E-16	NaN
195	1.000000	0.058638	7.36695e+06	-48389.1	955.818	-29763	0.000000	0.000000	6.058741	0.016671	NaN	0.000000	0.001554	0.001645	28.0802	0.067566	0.001977	34.1681	-141.489	-166.083	0.106545	0.057348	-1.012592	-1.013882	0.016671	34.1681	-1.012958	-3.389983E+13	-4.917821E-16	NaN
195	1.000000	0.066637	7.36695e+06	-48389.1	955.819	-29763	0.000000	0.000000	6.066742	0.049627	NaN	0.000000	0.001560	0.001658	28.0803	0.022758	0.002005	11.3519	-163.068	-163.734	0.030357	0.065353	-1.004594	-1.005877	0.049627	11.3519	-1.007872	-2.895638E+13	-1.713867E-15	NaN
195	1.000000	0.074676	7.36695e+06	-48389.1	955.819	-29763	0.000000	0.000000	6.074781	0.059060	NaN	0.000000	0.001608	0.001695	28.0799	0.020642	0.002009	10.2768	45.4397	-166.825	0.077066	0.073378	-0.996554	-0.997853	0.059060	10.2768	-1.000865	-2.330280E+13	-2.534453E-15	NaN
195	1.000000	0.082653	7.36695e+06	-48389.1	955.818	-29763	0.000000	0.000000	6.082758	0.042033	NaN	0.000000	0.001587	0.001699	28.0801	0.063422	0.001956	32.4264	20.1554	-166.627	0.007447	0.081303	-0.988577	-0.989927	0.042033	32.4264	-0.989549	-1.640738E+13	-2.561815E-15	NaN
195	1.000000	0.090673	7.36695e+06	-48389.1	955.818	-29763	0.000000	0.000000	6.090778	0.048766	NaN	0.000000	0.001592	0.001699	28.0809	0.027590	0.001994	13.8342	163.368	-164.984	0.087203	0.089363	-0.980557	-0.981867	0.048766	13.8342	-0.983201	-1.347511E+13	-3.618943E-15	NaN
195	1.000000	0.098665	7.36695e+06	-48389.1	955.819	-29763	0.000000	0.000000	6.098769	0.016567	NaN	0.000000	0.001618	0.001677	28.0799	0.036198	0.001859	19.4681	0.208370	-166.999	0.062003	0.097350	-0.972565	-0.973880	0.016567	19.4681	-0.973203	-9.881665E+12	-1.676494E-15	NaN
195	1.000000	0.106677	7.36695e+06	-48389.1	955.818	-29763	0.000000	0.000000	6.106781	0.038776	NaN	0.000000	0.001559	0.001676	28.0799	0.123797	0.001988	62.2572	-161.828	-166.099	0.029393	0.105370	-0.964553	-0.965861	0.038776	62.2572	-0.965020	-7.665632E+12	-5.058425E-15	NaN
195	1.000000	0.114665	7.36695e+06	-48389.1	955.818	-29763	0.000000	0.000000	6.114770	0.058123	NaN	0.000000	0.001562	0.001648	28.0798	0.030704	0.001990	15.4307	-107.438	-162.743	-0.093051	0.113352	-0.956566	-0.957879	0.058123	15.4307	-0.959391	-6.436558E+12	-9.030124E-15	NaN
195	1.000000	0.122652	7.36695e+06	-48389.1	955.819	-29763	0.000000	0.000000	6.122754	-0.004427	NaN	0.000000	0.001577	0.001643	28.0802	0.096171	0.002009	47.8598	81.7069	-164.001	0.007422	0.121342	-0.948579	-0.949888	-0.004427	47.8598	-0.948509	-4.591141E+12	9.642109E-16	NaN
195	1.000000	0.130691	7.36695e+06	-48389.1	955.818	-29763	0.000000	0.000000	6.130795	0.016158	NaN	0.000000	0.001561	0.001632	28.0803	0.091201	0.001922	47.4425	110.283	-164.433	0.001167	0.129391	-0.940539	-0.941840	0.016158	47.4425	-0.940795	-3.612916E+12	-4.472295E-15	NaN
195	1.000000	0.138724	7.36695e+06	-48389.1	955.818	-29763	0.000000	0.000000	6.138826	-0.021272	NaN	0.000000	0.001584	0.001694	28.08	0.055849	0.002163	25.826	6.398290	-160.285	-0.014380	0.137387	-0.932506	-0.933843	-0.021272	25.826	-0.931888	-2.739568E+12	7.764745E-15	NaN
195	1.000000	0.146675	7.36695e+06	-48389.1	955.818	-29763	0.000000	0.000000	6.146779	0.030917	NaN	0.000000	0.001569	0.001663	28.0801	0.067116	0.002185	30.7174	-87.8772	-165.386	-0.033103	0.145368	-0.924555	-0.925862	0.030917	30.7174	-0.925310	-2.233013E+12	-1.384545E-14	NaN
195	1.000000	0.154659	7.36695e+06	-48389.1	955.818	-29763	0.000000	0.000000	6.154763	0.033942	NaN	0.000000	0.001597	0.001719	28.0789	0.134022	0.001953	68.6089	-44.4693	-163.828	0.009808	0.153362	-0.916571	-0.917868	0.033942	68.6089	-0.916942	-1.721544E+12	-1.971624E-14	NaN
195	1.000000	0.162696	7.36695e+06	-48389.1	955.818	-29763	0.000000	0.000000	6.162800	0.034155	NaN	0.000000	0.001603	0.001721	28.079	0.195387	0.002136	91.4777	125.141	-164.017	-0.002350	0.161352	-0.908535	-0.909879	0.034155	91.4777	-0.908815	-1.337059E+12	-2.554491E-14	NaN
195	1.000000	0.170689	7.36695e+06	-48389.1	955.82	-29763	0.000000	0.000000	6.170795	0.076848	NaN	0.000000	0.001583	0.001682	28.0789	0.033387	0.001979	16.875	143.182	-167.617	0.036687	0.169405	-0.900541	-0.901826	0.076848	16.875	-0.903957	-1.149552E+12	-6.685008E-14	NaN
195	1.000000	0.178700	7.36695e+06	-48389.1	955.818	-29763	0.000000	0.000000	6.178802	-0.014787	NaN	0.000000	0.001563	0.001687	28.0789	0.018711	0.001971	9.491974	114.188	-164.352	-0.022494	0.177393	-0.892531	-0.893838	-0.014787	9.491974	-0.891362	-7.768393E+11	1.903498E-14	NaN
195	1.000000	0.186700	7.36695e+06	-48389.1	955.817	-29763	0.000000	0.000000	6.186801	-0.031871	NaN	0.000000	0.001574	0.001694	28.0787	0.105710	0.001865	56.6677	-10.0776	-163.608	-0.072888	0.185382	-0.884530	-0.885848	-0.031871	56.6677	-0.884109	-6.198204E+11	5.141919E-14	NaN
195	1.000000	0.194693	7.36695e+06	-48389.1	955.818	-29763	0.000000	0.000000	6.194795	-0.007554	NaN	0.000000	0.001571	0.001721	28.0789	0.052775	0.001964	26.8727	110.013	-163.566	0.050274	0.193382	-0.876538	-0.877848	-0.007554	26.8727	-0.876327	-4.864417E+11	1.552927E-14	NaN
195	1.000000	0.202743	7.36695e+06	-48389.1	955.818	-29763	0.000000	0.000000	6.202848	0.054062	NaN	0.000000	0.001580	0.001722	28.0791	0.055939	0.002092	26.7446	-100.128	-164.639	0.031839	0.201405	-0.868487	-0.869825	0.054062	26.7446	-0.870003	-3.994709E+11	-1.353340E-13	NaN
195	1.000000	0.210706	7.36695e+06	-48389.1	955.819	-29763	0.000000	0.000000	6.210811	0.052785	NaN	0.000000	0.001559	0.001699	28.079	0.087189	0.001885	46.2518	110.479	-166.672	0.054633	0.209403	-0.860524	-0.861827	0.052785	46.2518	-0.861380	-3.053500E+11	-1.728676E-13	NaN
195	1.000000	0.218706	7.36695e+06	-48389.1	955.818	-29763	0.000000	0.000000	6.218807	-0.035909	NaN	0.000000	0.001585	0.001707	28.0792	0.051553	0.002012	25.6205	19.0236	-166.354	-0.034721	0.217445	-0.852525	-0.853785	-0.035909	25.6205	-0.851473	-2.242271E+11	1.601447E-13	NaN
195	1.000000	0.226752	7.36695e+06	-48389.1	955.819	-29763	0.000000	0.000000	6.226856	0.025600	NaN	0.000000	0.001555	0.001680	28.0788	0.081067	0.001993	40.6675	-80.6844	-165.455	-0.014814	0.225455	-0.844478	-0.845775	0.025600	40.6675	-0.844950	-1.829584E+11	-1.399235E-13	NaN
195	1.000000	0.234715	7.36695e+06	-48389.1	955.818	-29763	0.000000	0.000000	6.234817	-0.012800	NaN	0.000000	0.001548	0.001664	28.0791	0.131553	0.001963	67.0312	129.417	-166.655	0.015034	0.233387	-0.836516	-0.837843	-0.012800	67.0312	-0.836373	-1.400054E+11	9.142180E-14	NaN
195	1.000000	0.242749	7.36695e+06	-48389.1	955.818	-29763	0.000000	0.000000	6.242856	0.107442	NaN	0.000000	0.001551	0.001658	28.0788	0.039914	0.002020	19.7609	50.7415	-161.835	0.099977	0.241436	-0.828482	-0.829794	0.107442	19.7609	-0.832559	-1.243006E+11	-8.643715E-13	NaN
195	1.000000	0.250744	7.36695e+06	-48389.1	955.818	-29763	0.000000	0.000000	6.250848	0.028267	NaN	0.000000	0.001568	0.001657	28.0787	0.060727	0.001926	31.5308	83.8631	-163.735	0.003895	0.249358	-0.820486	-0.821872	0.028267	31.5308	-0.821158	-8.708012E+10	-3.246071E-13	NaN
195	1.000000	0.258735	7.36695e+06	-48389.1	955.818	-29763	0.000000	0.000000	6.258839	0.033844	NaN	0.000000	0.001545	0.001677	28.0789	0.159917	0.002008	79.6594	-54.3507	-167.374	0.093955	0.257393	-0.812495	-0.813837	0.033844	79.6594	-0.812814	-6.710327E+10	-5.043610E-13	NaN
195	1.000000	0.266743	7.36695e+06	-48389.1	955.819	-29763	0.000000	0.000000	6.266847	0.013204	NaN	0.000000	0.001511	0.001727	28.0787	0.101481	0.002046	49.6055	127.864	-165.568	0.059676	0.265459	-0.804487	-0.805771	0.013204	49.6055	-0.804687	-5.205627E+10	-2.536409E-13	NaN
195	1.000000	0.274712	7.36695e+06	-48389.1	955.818	-29763	0.000000	0.000000	6.274816	0.025819	NaN	0.000000	0.001518	0.001694	28.0793	0.005902	0.002043	2.889165	-48.7945	-163.417	0.020524	0.273470	-0.796518	-0.797760	0.025819	2.889165	-0.803221	-4.972506E+10	-5.192299E-13	NaN
195	1.000000	0.282737	7.36695e+06	-48389.1	955.818	-29763	0.000000	0.000000	6.282843	0.084730	NaN	0.000000	0.001543	0.001693	28.0791	0.044874	0.001991	22.5367	-166.757	-164.47	0.012681	0.281409	-0.788493	-0.789821	0.084730	22.5367	-0.791313	-3.426996E+10	-2.472431E-12	NaN
195	1.000000	0.290739	7.36695e+06	-48389.1	955.819	-29763	0.000000	0.000000	6.290841	-0.006214	NaN	0.000000	0.001552	0.001719	28.08	0.127957	0.001946	65.7492	77.9912	-164.702	0.127232	0.289432	-0.780491	-0.781798	-0.006214	65.7492	-0.780421	-2.437512E+10	2.549186E-13	NaN
195	1.000000	0.298770	7.36695e+06	-48389.1	955.818	-29763	0.000000	0.000000	6.298871	-0.057292	NaN	0.000000	0.001561	0.001711	28.0806	0.117930	0.002040	57.8116	156.9	-164.301	-0.055155	0.297443	-0.772460	-0.773787	-0.057292	57.8116	-0.771717	-1.856298E+10	3.086355E-12	NaN
195	1.000000	0.306738	7.36695e+06	-48389.1	955.819	-29763	0.000000	0.000000	6.306841	0.011427	NaN	0.000000	0.001562	0.001707	28.0804	0.113072	0.001963	57.6125	82.5773	-167.472	0.057432	0.305454	-0.764493	-0.765776	0.011427	57.6125	-0.764641	-1.487433E+10	-7.682131E-13	NaN
195	1.000000	0.314774	7.36695e+06	-48389.1	955.818	-29763	0.000000	0.000000	6.314877	0.011172	NaN	0.000000	0.001588	0.001702	28.0806	0.067515	0.001883	35.8579	-143.399	-163.124	-0.010572	0.313427	-0.756457	-0.757803	0.011172	35.8579	-0.756690	-1.159508E+10	-9.635358E-13	NaN
195	1.000000	0.322741	7.36695e+06	-48389.1	955.818	-29763	0.000000	0.000000	6.322846	0.040567	NaN	0.000000	0.001571	0.001711	28.0802	0.058900	0.002073	28.4171	157.754	-163.035	0.058223	0.321406	-0.748489	-0.749824	0.040567	28.4171	-0.749560	-9.273188E+9	-4.374700E-12	NaN
195	1.000000	0.330769	7.36695e+06	-48389.1	955.818	-29763	0.000000	0.000000	6.330876	0.117004	NaN	0.000000	0.001554	0.001715	28.0802	0.056902	0.001957	29.0757	-101.1	-164.187	0.052286	0.329409	-0.740462	-0.741822	0.117004	29.0757	-0.743480	-7.663879E+9	-1.526692E-11	NaN
195	1.000000	0.338772	7.36695e+06	-48389.1	955.818	-29763	0.000000	0.000000	6.338876	0.019697	NaN	0.000000	0.001529	0.001718	28.0802	0.091656	0.001905	48.1251	70.1577	-165.415	0.047499	0.337479	-0.732458	-0.733751	0.019697	48.1251	-0.732765	-5.476327E+9	-3.596681E-12	NaN
195	1.000000	0.346764	7.36695e+06	-48389.1	955.818	-29763	0.000000	0.000000	6.346870	0.081752	NaN	0.000000	0.001563	0.001717	28.08	0.017752	0.001914	9.273089	60.9399	-161.481	0.022460	0.345458	-0.724466	-0.725772	0.081752	9.273089	-0.731078	-5.194032E+9	-1.573955E-11	NaN
195	1.000000	0.354794	7.36695e+06	-48389.1	955.818	-29763	0.000000	0.000000	6.354900	0.067308	NaN	0.000000	0.001544	0.001733	28.0802	0.035943	0.002093	17.1735	-105.508	-163.732	0.070460	0.353487	-0.716436	-0.717744	0.067308	17.1735	-0.719376	-3.597166E+9	-1.871141E-11	NaN
195	1.000000	0.362777	7.36695e+06	-48389.1	955.819	-29763	0.000000	0.000000	6.362878	-0.058469	NaN	0.000000	0.001554	0.001697	28.08	0.056236	0.002091	26.8957	120.156	-164.089	-0.021212	0.361461	-0.708453	-0.709770	-0.058469	26.8957	-0.706823	-2.424836E+9	2.411275E-11	NaN
195	1.000000	0.370811	7.36695e+06	-48389.1	955.819	-29763	0.000000	0.000000	6.370915	0.014609	NaN	0.000000	0.001533	0.001738	28.0805	0.040877	0.002063	19.8164	42.1867	-163.639	-0.038074	0.369482	-0.700419	-0.701749	0.014609	19.8164	-0.700972	-2.017447E+9	-7.241464E-12	NaN
195	1.000000	0.378786	7.36695e+06	-48389.1	955.818	-29763	0.000000	0.000000	6.378892	0.074360	NaN	0.000000	0.001527	0.001743	28.08	0.054522	0.002005	27.1895	-154.664	-164.92	0.068530	0.377465	-0.692444	-0.693766	0.074360	27.1895	-0.694495	-1.645672E+9	-4.518519E-11	NaN
195	1.000000	0.386790	7.36695e+06	-48389.1	955.818	-29763	0.000000	0.000000	6.386893	-0.005441	NaN	0.000000	0.001570	0.001707	28.0801	0.000565	0.001900	0.297589	107.58	-164.576	-0.037694	0.385479	-0.684440	-0.685752	-0.005441	0.297589	-0.670726	-7.786304E+8	6.988312E-12	NaN
195	1.000000	0.394774	7.36695e+06	-48389.1	955.818	-29763	0.000000	0.000000	6.394876	-0.019521	NaN	0.000000	0.001566	0.001692	28.0802	0.083816	0.001991	42.1014	92.2264	-163.534	-0.011563	0.393459	-0.676456	-0.677771	-0.019521	42.1014	-0.676109	-9.225262E+8	2.116013E-11	NaN
195	1.000000	0.402803	7.36695e+06	-48389.1	955.818	-29763	0.000000	0.000000	6.402906	0.007139	NaN	0.000000	0.001573	0.001703	28.08	0.034645	0.001988	17.4263	-144.994	-165.731	-0.043819	0.401437	-0.668428	-0.669793	0.007139	17.4263	-0.668735	-7.312619E+8	-9.763222E-12	NaN
195	1.000000	0.410800	7.36695e+06	-48389.1	955.818	-29763	0.000000	0.000000	6.410903	0.004169	NaN	0.000000	0.001560	0.001705	28.0805	0.017006	0.001925	8.836186	149.925	-167.338	-0.005294	0.409477	-0.660430	-0.661753	0.004169	8.836186	-0.660784	-5.691258E+8	-7.325985E-12	NaN
195	1.000000	0.418792	7.36695e+06	-48389.1	955.82	-29763	0.000000	0.000000	6.418895	0.000165	NaN	0.000000	0.001583	0.001743	28.0804	0.023819	0.001935	12.3123	-27.8294	-166.131	0.018296	0.417534	-0.652438	-0.653696	0.000165	12.3123	-0.652448	-4.375143E+8	-3.773775E-13	NaN
195	1.000000	0.426783	7.36695e+06	-48389.1	955.819	-29763	0.000000	0.000000	6.426885	-0.022201	NaN	0.000000	0.001585	0.001727	28.0796	0.030887	0.001918	16.1066	-155.689	-165.517	-0.016043	0.425536	-0.644447	-0.645694	-0.022201	16.1066	-0.643413	-3.289384E+8	6.749207E-11	NaN
195	1.000000	0.434821	7.36695e+06	-48389.1	955.817	-29763	0.000000	0.000000	6.434921	-0.072569	NaN	0.000000	0.001578	0.001703	28.0791	0.089281	0.002015	44.3048	-61.4534	-165.271	-0.061402	0.433496	-0.636409	-0.637735	-0.072569	44.3048	-0.635181	-2.536005E+8	2.861545E-10	NaN
195	1.000000	0.442850	7.36695e+06	-48389.1	955.819	-29763	0.000000	0.000000	6.442956	0.092515	NaN	0.000000	0.001584	0.001708	28.0791	0.050898	0.002024	25.1411	148.08	-164.661	0.097931	0.441535	-0.628381	-0.629695	0.092515	25.1411	-0.631140	-2.231950E+8	-4.145045E-10	NaN
195	1.000000	0.450820	7.36695e+06	-48389.1	955.818	-29763	0.000000	0.000000	6.450924	0.026716	NaN	0.000000	0.001573	0.001667	28.0792	0.028010	0.002183	12.8316	-136.918	-166.209	0.036743	0.449536	-0.620410	-0.621694	0.026716	12.8316	-0.621971	-1.670044E+8	-1.599737E-10	NaN
195	1.000000	0.458825	7.36695e+06	-48389.1	955.819	-29763	0.000000	0.000000	6.458928	-0.001701	NaN	0.000000	0.001557	0.001690	28.0791	0.133632	0.002098	63.6812	-157.85	-165.079	0.020847	0.457556	-0.612405	-0.613674	-0.001701	63.6812	-0.612385	-1.232887E+8	1.379592E-11	NaN
195	1.000000	0.466822	7.36695e+06	-48389.1	955.819	-29763	0.000000	0.000000	6.466926	0.030205	NaN	0.000000	0.001555	0.001729	28.079	0.075160	0.002066	36.3852	-86.3585	-165.792	0.074661	0.465527	-0.604408	-0.605703	0.030205	36.3852	-0.605031	-9.766212E+7	-3.092781E-10	NaN
195	1.000000	0.474818	7.36695e+06	-48389.1	955.818	-29763	0.000000	0.000000	6.474923	0.043420	NaN	0.000000	0.001557	0.001684	28.0788	0.025534	0.002093	12.197	130.868	-163.878	0.059466	0.473560	-0.596412	-0.597670	0.043420	12.197	-0.599082	-8.087571E+7	-5.368676E-10	NaN
195	1.000000	0.482816	7.36695e+06	-48389.1	955.818	-29763	0.000000	0.000000	6.482920	0.013141	NaN	0.000000	0.001577	0.001694	28.0788	0.034390	0.001952	17.6186	-48.3268	-163.455	-0.024238	0.481525	-0.588414	-0.589706	0.013141	17.6186	-0.588973	-5.868317E+7	-2.239313E-10	NaN
195	1.000000	0.490829	7.36695e+06	-48389.1	955.818	-29763	0.000000	0.000000	6.490930	-0.024779	NaN	0.000000	0.001540	0.001705	28.0788	0.084350	0.001809	46.6291	73.1052	-163.413	-0.011699	0.489506	-0.580402	-0.581725	-0.024779	46.6291	-0.580003	-4.413345E+7	5.614514E-10	NaN
195	1.000000	0.498819	7.36695e+06	-48389.1	955.819	-29763	0.000000	0.000000	6.498925	0.086473	NaN	0.000000	0.001564	0.001690	28.0788	0.040792	0.002061	19.7881	77.4351	-162.392	0.070169	0.497527	-0.572412	-0.573703	0.086473	19.7881	-0.575689	-3.847833E+7	-2.247319E-9	NaN
195	1.000000	0.506803	7.36695e+06	-48389.1	955.818	-29763	0.000000	0.000000	6.506907	0.023188	NaN	0.000000	0.001574	0.001685	28.0791	0.018982	0.002107	9.009737	154.664	-165.119	0.038616	0.505491	-0.564427	-0.565739	0.023188	9.009737	-0.566357	-2.859474E+7	-8.109061E-10	NaN
195	1.000000	0.514819	7.36695e+06	-48389.1	955.819	-29763	0.000000	0.000000	6.514919	-0.065806	NaN	0.000000	0.001578	0.001678	28.0787	0.093028	0.001999	46.5477	-79.4664	-167.049	-0.076254	0.513582	-0.556411	-0.557648	-0.065806	46.5477	-0.555351	-2.013926E+7	3.267550E-9	NaN
195	1.000000	0.522843	7.36695e+06	-48389.1	955.819	-29763	0.000000	0.000000	6.522945	-0.018223	NaN	0.000000	0.001535	0.001698	28.0789	0.056646	0.002005	28.2469	42.1084	-163.495	0.035490	0.521553	-0.548388	-0.549677	-0.018223	28.2469	-0.547904	-1.588240E+7	1.147357E-9	NaN
195	1.000000	0.530861	7.36695e+06	-48389.1	955.82	-29763	0.000000	0.000000	6.530964	-0.005648	NaN	0.000000	0.001525	0.001713	28.0788	0.057901	0.002048	28.2753	-166.594	-163.687	-0.000637	0.529522	-0.540369	-0.541709	-0.005648	28.2753	-0.540219	-1.242799E+7	4.544619E-10	NaN
195	1.000000	0.538855	7.36695e+06	-48389.1	955.819	-29763	0.000000	0.000000	6.538960	0.052834	NaN	0.000000	0.001544	0.001730	28.0786	0.067997	0.002071	32.8261	148.913	-163.842	0.104961	0.537554	-0.532375	-0.533677	0.052834	32.8261	-0.533582	-1.005341E+7	-5.255308E-9	NaN
195	1.000000	0.546855	7.36695e+06	-48389.1	955.818	-29763	0.000000	0.000000	6.546959	0.010542	NaN	0.000000	0.001526	0.001713	28.0788	0.071456	0.002011	35.539	70.346	-161.195	0.034334	0.545550	-0.524375	-0.525681	0.010542	35.539	-0.524597	-7.54249e+06	-1.397638E-9	NaN
195	1.000000	0.554841	7.36695e+06	-48389.1	955.818	-29763	0.000000	0.000000	6.554945	0.036054	NaN	0.000000	0.001566	0.001690	28.0786	0.064725	0.001956	33.09	-8.602297	-161.473	-0.043930	0.553557	-0.516389	-0.517673	0.036054	33.09	-0.517206	-5.95299e+06	-6.056459E-9	NaN
195	1.000000	0.562888	7.36695e+06	-48389.1	955.818	-29763	0.000000	0.000000	6.562992	0.027465	NaN	0.000000	0.001582	0.001701	28.0793	0.134218	0.002138	62.7829	-58.7039	-165.764	0.022692	0.561569	-0.508342	-0.509661	0.027465	62.7829	-0.508670	-4.52782e+06	-6.065929E-9	NaN
195	1.000000	0.570862	7.36695e+06	-48389.1	955.818	-29763	0.000000	0.000000	6.570966	0.033490	NaN	0.000000	0.001562	0.001707	28.0799	0.044265	0.002079	21.2878	-176.59	-165.719	0.132094	0.569554	-0.500369	-0.501676	0.033490	21.2878	-0.501549	-3.60264e+06	-9.295911E-9	NaN
195	1.000000	0.578862	7.36695e+06	-48389.1	955.818	-29763	0.000000	0.000000	6.578964	-0.020114	NaN	0.000000	0.001565	0.001691	28.08	0.039621	0.001997	19.8431	-8.293600	-164.508	-0.028431	0.577548	-0.492368	-0.493682	-0.020114	19.8431	-0.491608	-2.61733e+06	7.685123E-9	NaN
195	1.000000	0.586881	7.36695e+06	-48389.1	955.819	-29763	0.000000	0.000000	6.586985	0.013176	NaN	0.000000	0.001548	0.001689	28.0801	0.029440	0.002071	14.2127	-51.2366	-166.685	0.030844	0.585551	-0.484349	-0.485680	0.013176	14.2127	-0.485044	-2.11889e+06	-6.218202E-9	NaN
195	1.000000	0.594890	7.36695e+06	-48389.1	955.818	-29763	0.000000	0.000000	6.594992	-0.024274	NaN	0.000000	0.001551	0.001721	28.08	0.048825	0.001997	24.447	53.2641	-164.975	-0.007048	0.593533	-0.476340	-0.477697	-0.024274	24.447	-0.475595	-1.56257e+06	1.553477E-8	NaN
195	1.000000	0.602877	7.36695e+06	-48389.1	955.818	-29763	0.000000	0.000000	6.602980	0.011286	NaN	0.000000	0.001579	0.001698	28.0807	0.060214	0.002056	29.2871	-158.289	-160.653	0.073534	0.601532	-0.468353	-0.469699	0.011286	29.2871	-0.468642	-1.24842e+06	-9.039824E-9	NaN
195	1.000000	0.610867	7.36695e+06	-48389.1	955.819	-29763	0.000000	0.000000	6.610971	0.027962	NaN	0.000000	0.001600	0.001706	28.0801	0.026263	0.001968	13.3479	11.8673	-166.171	-0.024884	0.609583	-0.460363	-0.461647	0.027962	13.3479	-0.461934	-1.00507e+06	-2.782093E-8	NaN
195	1.000000	0.618890	7.36695e+06	-48389.1	955.819	-29763	0.000000	0.000000	6.618993	0.021159	NaN	0.000000	0.001581	0.001699	28.0803	0.057036	0.001900	30.0211	91.5769	-165.897	-0.014569	0.617581	-0.452341	-0.453650	0.021159	30.0211	-0.452869	-749438	-2.823279E-8	NaN
195	1.000000	0.626902	7.36695e+06	-48389.1	955.818	-29763	0.000000	0.000000	6.627004	-0.019575	NaN	0.000000	0.001593	0.001714	28.0805	0.124434	0.001946	63.9474	-77.8479	-165.097	-0.016360	0.625559	-0.444328	-0.445671	-0.019575	63.9474	-0.444098	-563872	3.471500E-8	NaN
195	1.000000	0.634901	7.36695e+06	-48389.1	955.819	-29763	0.000000	0.000000	6.635005	0.009181	NaN	0.000000	0.001551	0.001680	28.0803	0.077674	0.001954	39.7493	-146.971	-164.349	0.066333	0.633586	-0.436329	-0.437644	0.009181	39.7493	-0.436502	-440530	-2.084140E-8	NaN
195	1.000000	0.642893	7.36695e+06	-48389.1	955.817	-29763	0.000000	0.000000	6.642995	-0.010795	NaN	0.000000	0.001557	0.001729	28.0807	0.013055	0.002029	6.435450	-134.285	-167.029	-0.050414	0.641606	-0.428337	-0.429624	-0.010795	6.435450	-0.427079	-324135	3.330503E-8	NaN
195	1.000000	0.650896	7.36695e+06	-48389.1	955.819	-29763	0.000000	0.000000	6.650998	-0.006757	NaN	0.000000	0.001547	0.001711	28.0803	0.061192	0.001992	30.725	-178.247	-167.29	-0.000702	0.649589	-0.420335	-0.421641	-0.006757	30.725	-0.420170	-258715	2.611868E-8	NaN
195	1.000000	0.658922	7.36695e+06	-48389.1	955.818	-29763	0.000000	0.000000	6.659024	-0.010741	NaN	0.000000	0.001547	0.001694	28.0804	0.108612	0.001997	54.398	152.568	-164.308	0.036091	0.657615	-0.412309	-0.413616	-0.010741	54.398	-0.412161	-199122	5.394090E-8	NaN
195	1.000000	0.666902	7.36695e+06	-48389.1	955.819	-29763	0.000000	0.000000	6.667005	0.015870	NaN	0.000000	0.001567	0.001728	28.0803	0.155788	0.002075	75.0637	113.72	-166.025	-0.026621	0.665579	-0.404328	-0.405651	0.015870	75.0637	-0.404487	-154861	-1.024805E-7	NaN
195	1.000000	0.674931	7.36695e+06	-48389.1	955.818	-29763	0.000000	0.000000	6.675036	0.054531	NaN	0.000000	0.001581	0.001740	28.0802	0.060665	0.001969	30.8032	33.1482	-162.814	0.038268	0.673610	-0.396299	-0.397621	0.054531	30.8032	-0.397627	-123635	-4.410646E-7	NaN
195	1.000000	0.682936	7.36695e+06	-48389.1	955.818	-29763	0.000000	0.000000	6.683039	0.006727	NaN	0.000000	0.001573	0.001720	28.0804	0.110549	0.002092	52.854	141.202	-162.289	0.040165	0.681590	-0.388294	-0.389641	0.006727	52.854	-0.388390	-91227.5	-7.373616E-8	NaN
195	1.000000	0.690904	7.36695e+06	-48389.1	955.818	-29763	0.000000	0.000000	6.691008	0.024405	NaN	0.000000	0.001561	0.001751	28.0804	0.079238	0.001955	40.5403	72.7702	-169.261	0.019814	0.689631	-0.380326	-0.381599	0.024405	40.5403	-0.380777	-70965.2	-3.439014E-7	NaN
195	1.000000	0.698904	7.36695e+06	-48389.1	955.817	-29763	0.000000	0.000000	6.699010	0.072821	NaN	0.000000	0.001583	0.001708	28.0806	0.092564	0.001998	46.3191	171.099	-164.775	0.100165	0.697605	-0.372326	-0.373626	0.072821	46.3191	-0.373505	-55793	-1.305196E-6	NaN
195	1.000000	0.706914	7.36695e+06	-48389.1	955.819	-29763	0.000000	0.000000	6.707015	-0.042582	NaN	0.000000	0.001545	0.001740	28.0792	0.075492	0.002117	35.655	-122.725	-162.673	-0.009064	0.705655	-0.364317	-0.365575	-0.042582	35.655	-0.363421	-39926.9	1.066489E-6	NaN
195	1.000000	0.714940	7.36695e+06	-48389.1	955.819	-29763	0.000000	0.000000	6.715042	-0.020372	NaN	0.000000	0.001576	0.001672	28.0791	0.060985	0.002102	29.0157	-89.5287	-163.134	0.062278	0.713612	-0.356290	-0.357619	-0.020372	29.0157	-0.355764	-30942.8	6.583743E-7	NaN
195	1.000000	0.722924	7.36695e+06	-48389.1	955.82	-29763	0.000000	0.000000	6.723028	0.046206	NaN	0.000000	0.001560	0.001662	28.0795	0.049428	0.001846	26.7705	-104.026	-164.95	0.069751	0.721628	-0.348307	-0.349602	0.046206	26.7705	-0.349601	-25189.2	-1.834338E-6	NaN
195	1.000000	0.730948	7.36695e+06	-48389.1	955.818	-29763	0.000000	0.000000	6.731050	-0.020507	NaN	0.000000	0.001569	0.001704	28.0791	0.047927	0.001796	26.6813	-106.561	-163.967	-0.044269	0.729606	-0.340282	-0.341625	-0.020507	26.6813	-0.339705	-18082.6	1.134070E-6	NaN
195	1.000000	0.738923	7.36695e+06	-48389.1	955.818	-29763	0.000000	0.000000	6.739027	0.043403	NaN	0.000000	0.001557	0.001692	28.0794	0.060375	0.001888	31.9831	45.0404	-163.316	-0.034224	0.737623	-0.332308	-0.333608	0.043403	31.9831	-0.333325	-14591.9	-2.974473E-6	NaN
195	1.000000	0.746948	7.36695e+06	-48389.1	955.818	-29763	0.000000	0.000000	6.747052	0.028537	NaN	0.000000	0.001568	0.001718	28.0791	0.059638	0.002049	29.1059	-176.388	-163.939	0.048424	0.745644	-0.324282	-0.325587	0.028537	29.1059	-0.325017	-11025.3	-2.588352E-6	NaN
195	1.000000	0.754941	7.36695e+06	-48389.1	955.818	-29763	0.000000	0.000000	6.755045	0.041725	NaN	0.000000	0.001551	0.001685	28.0791	0.044863	0.002011	22.3047	21.6697	-164.404	0.003079	0.753628	-0.316289	-0.317602	0.041725	22.3047	-0.317692	-8603.08	-4.849993E-6	NaN
195	1.000000	0.762913	7.36695e+06	-48389.1	955.818	-29763	0.000000	0.000000	6.763018	0.048918	NaN	0.000000	0.001538	0.001672	28.079	0.102078	0.002038	50.0968	0.402281	-165.129	0.071028	0.761629	-0.308317	-0.309602	0.048918	50.0968	-0.309049	-6411.83	-7.629394E-6	NaN
195	1.000000	0.770962	7.36695e+06	-48389.1	955.819	-29763	0.000000	0.000000	6.771066	0.022268	NaN	0.000000	0.001553	0.001714	28.079	0.020437	0.001994	10.2512	-28.438	-160.882	0.050304	0.769671	-0.300268	-0.301559	0.022268	10.2512	-0.301897	-5021.87	-4.434180E-6	NaN
195	1.000000	0.778930	7.36695e+06	-48389.1	955.817	-29763	0.000000	0.000000	6.779032	-0.022607	NaN	0.000000	0.001527	0.001695	28.0792	0.066839	0.001902	35.1378	69.5254	-164.3	-0.112817	0.777617	-0.292301	-0.293613	-0.022607	35.1378	-0.291818	-3552.42	6.363865E-6	NaN
195	1.000000	0.786970	7.36695e+06	-48389.1	955.819	-29763	0.000000	0.000000	6.787073	0.011479	NaN	0.000000	0.001550	0.001682	28.079	0.071062	0.002049	34.6882	-174.583	-163.36	0.004502	0.785615	-0.284260	-0.285616	0.011479	34.6882	-0.284508	-2759.77	-4.159338E-6	NaN
195	1.000000	0.794957	7.36695e+06	-48389.1	955.819	-29763	0.000000	0.000000	6.795060	0.021691	NaN	0.000000	0.001512	0.001679	28.0793	0.104793	0.001939	54.0353	8.660869	-164.331	0.017759	0.793658	-0.276274	-0.277573	0.021691	54.0353	-0.276575	-2095.23	-1.035278E-5	NaN
195	1.000000	0.802967	7.36695e+06	-48389.1	955.818	-29763	0.000000	0.000000	6.803070	0.005987	NaN	0.000000	0.001553	0.001657	28.0788	0.038002	0.002069	18.3699	138.375	-168.474	0.069084	0.801672	-0.268263	-0.269559	0.005987	18.3699	-0.268508	-1580.68	-3.787618E-6	NaN
195	1.000000	0.810968	7.36695e+06	-48389.1	955.818	-29763	0.000000	0.000000	6.811073	0.058270	NaN	0.000000	0.001612	0.001704	28.0791	0.071657	0.001927	37.1896	-166.38	-162.661	-0.012907	0.809637	-0.260262	-0.261593	0.058270	37.1896	-0.261437	-1232.92	-4.726234E-5	NaN
195	1.000000	0.818968	7.36695e+06	-48389.1	955.817	-29763	0.000000	0.000000	6.819072	0.034641	NaN	0.000000	0.001578	0.001699	28.0789	0.100674	0.001767	56.9858	151.275	-164.106	0.031170	0.817702	-0.252263	-0.253528	0.034641	56.9858	-0.252718	-905.641	-3.825017E-5	NaN
195	1.000000	0.826988	7.36695e+06	-48389.1	955.819	-29763	0.000000	0.000000	6.827093	0.061139	NaN	0.000000	0.001543	0.001652	28.0791	0.026276	0.002003	13.1153	-74.2498	-165.96	0.088485	0.825672	-0.244242	-0.245558	0.061139	13.1153	-0.247739	-758.496	-8.060576E-5	NaN
195	1.000000	0.834983	7.36695e+06	-48389.1	955.818	-29763	0.000000	0.000000	6.835087	0.018330	NaN	0.000000	0.001558	0.001703	28.0795	0.043689	0.002104	20.7629	179.444	-166.561	-0.034263	0.833688	-0.236247	-0.237542	0.018330	20.7629	-0.236909	-514.278	-3.564170E-5	NaN
195	1.000000	0.842984	7.36695e+06	-48389.1	955.818	-29763	0.000000	0.000000	6.843087	0.002071	NaN	0.000000	0.001552	0.001694	28.0805	0.112986	0.001987	56.8763	-115.034	-163.883	0.024541	0.841690	-0.228246	-0.229540	0.002071	56.8763	-0.228273	-376.03	-5.508417E-6	NaN
195	1.000000	0.850984	7.36695e+06	-48389.1	955.818	-29763	0.000000	0.000000	6.851085	-0.039332	NaN	0.000000	0.001586	0.001702	28.0808	0.041831	0.002050	20.4066	24.2777	-164.44	0.033015	0.849703	-0.220246	-0.221528	-0.039332	20.4066	-0.218801	-265.765	0.000148	NaN
195	1.000000	0.858982	7.36695e+06	-48389.1	955.818	-29763	0.000000	0.000000	6.859086	0.038968	NaN	0.000000	0.001598	0.001706	28.0806	0.068366	0.002042	33.4869	-162.498	-163.923	-0.001671	0.857643	-0.212248	-0.213587	0.038968	33.4869	-0.213121	-215.404	-0.000181	NaN
195	1.000000	0.867021	7.36695e+06	-48389.1	955.818	-29763	0.000000	0.000000	6.867122	-0.046638	NaN	0.000000	0.001593	0.001668	28.0805	0.067761	0.002022	33.5169	102.236	-166.857	-0.012971	0.865643	-0.204209	-0.205587	-0.046638	33.5169	-0.203165	-148.454	0.000314	NaN
195	1.000000	0.874994	7.36695e+06	-48389.1	955.817	-29763	0.000000	0.000000	6.875098	0.025895	NaN	0.000000	0.001564	0.001699	28.0806	0.030759	0.001930	15.9399	25.5026	-164.75	-0.064675	0.873645	-0.196236	-0.197585	0.025895	15.9399	-0.197455	-119.614	-0.000216	NaN
195	1.000000	0.882988	7.36695e+06	-48389.1	955.818	-29763	0.000000	0.000000	6.883095	0.080846	NaN	0.000000	0.001569	0.001707	28.0803	0.094626	0.001989	47.5689	-121.07	-162.689	0.040105	0.881681	-0.188242	-0.189550	0.080846	47.5689	-0.189517	-88.2975	-0.000916	NaN
195	1.000000	0.890992	7.36695e+06	-48389.1	955.82	-29763	0.000000	0.000000	6.891096	0.022236	NaN	0.000000	0.001590	0.001659	28.0817	0.055180	0.001915	28.8077	-20.9659	-165.938	0.052521	0.889685	-0.180238	-0.181545	0.022236	28.8077	-0.180817	-63.0025	-0.000353	NaN
195	1.000000	0.899011	7.36695e+06	-48389.1	955.818	-29763	0.000000	0.000000	6.899112	-0.036014	NaN	0.000000	0.001557	0.001672	28.0802	0.049061	0.001965	24.9706	76.4027	-164.215	0.042593	0.897695	-0.172220	-0.173535	-0.036014	24.9706	-0.171138	-42.9884	0.000838	NaN
195	1.000000	0.907017	7.36695e+06	-48389.1	955.819	-29763	0.000000	0.000000	6.907122	0.055031	NaN	0.000000	0.001595	0.001678	28.0805	0.071020	0.001949	36.4473	31.5304	-164.571	0.035333	0.905714	-0.164213	-0.165517	0.055031	36.4473	-0.165346	-34.0704	-0.001615	NaN
195	1.000000	0.915009	7.36695e+06	-48389.1	955.819	-29763	0.000000	0.000000	6.915111	-0.033564	NaN	0.000000	0.001592	0.001657	28.0805	0.036479	0.001839	19.8361	-124.81	-165.761	0.065975	0.913667	-0.156221	-0.157564	-0.033564	19.8361	-0.154952	-22.2699	0.001507	NaN
195	1.000000	0.923027	7.36695e+06	-48389.1	955.818	-29763	0.000000	0.000000	6.923129	-0.018697	NaN	0.000000	0.001597	0.001693	28.0804	0.015510	0.001880	8.248225	-88.2916	-165.217	0.008961	0.921667	-0.148203	-0.149563	-0.018697	8.248225	-0.146503	-15.6285	0.001196	NaN
195	1.000000	0.930996	7.36695e+06	-48389.1	955.818	-29763	0.000000	0.000000	6.931097	-0.056676	NaN	0.000000	0.001585	0.001689	28.0805	0.017614	0.002040	8.633580	170.907	-164.624	0.002572	0.929740	-0.140234	-0.141490	-0.056676	8.633580	-0.135311	-9.643101	0.005877	NaN
195	1.000000	0.939019	7.36695e+06	-48389.1	955.818	-29763	0.000000	0.000000	6.939123	0.025870	NaN	0.000000	0.001608	0.001676	28.0804	0.056826	0.002215	25.6539	-60.7007	-166.624	0.062085	0.937709	-0.132211	-0.133521	0.025870	25.6539	-0.132967	-8.696579	-0.002975	NaN
195	1.000000	0.947016	7.36695e+06	-48389.1	955.819	-29763	0.000000	0.000000	6.947121	0.060182	NaN	0.000000	0.001610	0.001716	28.0805	0.044471	0.002043	21.7621	-143.473	-164.19	0.064426	0.945694	-0.124214	-0.125536	0.060182	21.7621	-0.126288	-6.447988	-0.009334	NaN
195	1.000000	0.955023	7.36695e+06	-48389.1	955.819	-29763	0.000000	0.000000	6.955125	-0.033082	NaN	0.000000	0.001566	0.001689	28.0804	0.005404	0.001960	2.757699	140.46	-165.282	0.033995	0.953703	-0.116207	-0.117527	-0.033082	2.757699	-0.107210	-2.622142	0.012616	NaN
195	1.000000	0.963038	7.36695e+06	-48389.1	955.819	-29763	0.000000	0.000000	6.963140	-0.022391	NaN	0.000000	0.001602	0.001686	28.0803	0.134931	0.002029	66.5174	-24.948	-162.612	0.011993	0.961691	-0.108192	-0.109539	-0.022391	66.5174	-0.107939	-2.717777	0.008239	NaN
195	1.000000	0.971037	7.36695e+06	-48389.1	955.818	-29763	0.000000	0.000000	6.971142	0.044377	NaN	0.000000	0.001604	0.001693	28.0806	0.121163	0.001937	62.5558	154.135	-166.349	-0.043509	0.969744	-0.100193	-0.101487	0.044377	62.5558	-0.100725	-1.895931	-0.023406	NaN
195	1.000000	0.979026	7.36696e+06	-48389.1	955.82	-29763	0.000000	0.000000	6.979128	-0.015509	NaN	0.000000	0.001588	0.001701	28.079	0.082394	0.002081	39.6008	105.493	-164.281	0.017653	0.977726	-0.092204	-0.093504	-0.015509	39.6008	-0.091910	-1.197800	0.012948	NaN
195	1.000000	0.987056	7.36696e+06	-48389.1	955.819	-29763	0.000000	0.000000	6.987156	-0.070357	NaN	0.000000	0.001620	0.001713	28.0795	0.083278	0.002120	39.2782	-109.273	-165.785	0.032698	0.985747	-0.084174	-0.085483	-0.070357	39.2782	-0.082831	-0.727465	0.096716	NaN
195	1.000000	0.995035	7.36696e+06	-48389.1	955.82	-29763	0.000000	0.000000	6.995139	0.013409	NaN	0.000000	0.001580	0.001741	28.0787	0.060634	0.001960	30.9422	-107.521	-164.479	0.079369	0.993772	-0.076195	-0.077458	0.013409	30.9422	-0.076520	-0.505405	-0.026530	NaN
195	1.000000	1.003043	7.36696e+06	-48389.1	955.82	-29763	0.000000	0.000000	7.003147	0.033965	NaN	0.000000	0.001627	0.001768	28.0788	0.027865	0.002073	13.4403	-89.5538	-162.83	-0.042941	1.001752	-0.068187	-0.069478	0.033965	13.4403	-0.070082	-0.342846	-0.099067	NaN
195	1.000000	1.011040	7.36696e+06	-48389.1	955.819	-29763	0.000000	0.000000	7.011141	-0.049628	NaN	0.000000	0.001632	0.001763	28.0793	0.029512	0.002050	14.3971	160.273	-162.541	-0.030737	1.009735	-0.060190	-0.061495	-0.049628	14.3971	-0.057605	-0.153555	0.323195	NaN
195	1.000000	1.019033	7.36696e+06	-48389.1	955.82	-29763	0.000000	0.000000	7.019137	0.025280	NaN	0.000000	0.001643	0.001738	28.0787	0.068104	0.002020	33.715	64.2849	-163.167	0.003407	1.017723	-0.052198	-0.053507	0.025280	33.715	-0.052760	-0.110470	-0.228836	NaN
195	1.000000	1.027057	7.36696e+06	-48389.1	955.819	-29763	0.000000	0.000000	7.027159	-0.011225	NaN	0.000000	0.001591	0.001761	28.0789	0.098329	0.002031	48.4206	-165.165	-164.862	-0.027650	1.025752	-0.044173	-0.045478	-0.011225	48.4206	-0.043999	-0.059895	0.187415	NaN
195	1.000000	1.035064	7.36696e+06	-48389.1	955.819	-29763	0.000000	0.000000	7.035165	-0.041910	NaN	0.000000	0.001613	0.001766	28.0788	0.118811	0.001998	59.4689	20.3239	-167.89	0.010171	1.033765	-0.036166	-0.037466	-0.041910	59.4689	-0.035638	-0.033444	1.253149	NaN
195	1.000000	1.043067	7.36696e+06	-48389.1	955.819	-29763	0.000000	0.000000	7.043170	0.008346	NaN	0.000000	0.001604	0.001744	28.0787	0.005493	0.001918	2.864309	32.5854	-165.26	-0.001707	1.041806	-0.028164	-0.029425	0.008346	2.864309	-0.030349	-0.023535	-0.354610	NaN
195	1.000000	1.051064	7.36696e+06	-48389.1	955.819	-29763	0.000000	0.000000	7.051169	0.051205	NaN	0.000000	0.001595	0.001742	28.079	0.028923	0.001920	15.0612	-39.0604	-163.994	0.010207	1.049758	-0.020166	-0.021472	0.051205	15.0612	-0.022716	-0.014728	-3.476750	NaN
195	1.000000	1.059058	7.36696e+06	-48389.1	955.819	-29763	0.000000	0.000000	7.059164	0.070779	NaN	0.000000	0.001614	0.001741	28.0789	0.126910	0.001960	64.7366	-151.05	-165.69	0.018147	1.057747	-0.012172	-0.013483	0.070779	64.7366	-0.012992	-0.008098	-8.740681	NaN
195	1.000000	1.067043	7.36696e+06	-48389.1	955.819	-29763	0.000000	0.000000	7.067147	0.032881	NaN	0.000000	0.001635	0.001760	28.0789	0.085761	0.001998	42.9257	98.3151	-164.097	-0.003182	1.065729	-0.004187	-0.005502	0.032881	42.9257	-0.004762	-0.003267	-10.0658	NaN
195	1.000000	1.075032	7.36696e+06	-48389.1	955.82	-29763	0.000000	0.000000	7.075236	2.456891	NaN	0.000000	0.001642	0.001786	28.0787	3.252091	0.001837	1770.04	7.622010	-165.488	1.356076	1.073754	0.003802	0.002524	2.456891	1770.04	0.002761	0.002180	1127.13	34637.9
195	2.000000	1.081640	7.36696e+06	-48389.1	955.82	-29763	0.000000	0.000000	7.082114	9.030039	NaN	0.000000	0.001578	0.001843	28.0791	9.573806	0.001594	6007.34	11.6695	-176.627	8.939235	1.081183	0.010410	0.009953	9.030039	6007.34	0.009282	0.008395	1075.67	59903.2
195	2.000000	1.083665	7.36696e+06	-48389.1	955.819	-29763	0.000000	0.000000	7.084266	12.0993	NaN	0.000000	0.001588	0.001781	28.079	11.2584	0.001638	6873.56	6.291566	-171.93	11.7884	1.083406	0.012435	0.012176	12.0993	6873.56	0.011115	0.010447	1158.16	61441
195	2.000000	1.085639	7.36696e+06	-48389.1	955.82	-29763	0.000000	0.000000	7.086376	15.422	NaN	0.000000	0.001592	0.001790	28.0789	14.2624	0.001731	8240.08	6.545743	-174.944	14.7997	1.085293	0.014409	0.014062	15.422	8240.08	0.013005	0.012716	1212.77	66761.2
195	2.000000	1.087650	7.36696e+06	-48389.1	955.82	-29763	0.000000	0.000000	7.088502	18.2156	NaN	0.000000	0.001591	0.001799	28.079	16.0903	0.001803	8923.45	6.721264	-174.946	17.3341	1.087288	0.016420	0.016058	18.2156	8923.45	0.014889	0.015137	1203.34	66264.3
195	2.000000	1.089616	7.36696e+06	-48389.1	955.819	-29763	0.000000	0.000000	7.090572	20.7652	NaN	0.000000	0.001581	0.001799	28.0802	18.492	0.001799	10276.6	8.214600	-177.137	20.4462	1.089309	0.018386	0.018079	20.7652	10276.6	0.016870	0.017861	1162.63	70254.9
195	2.000000	1.091546	7.36696e+06	-48389.1	955.819	-29763	0.000000	0.000000	7.092696	25.4669	NaN	0.000000	0.001585	0.001792	28.0809	19.9124	0.001810	11003.6	2.912177	-173.034	23.6475	1.091291	0.020316	0.020060	25.4669	11003.6	0.018580	0.020360	1250.81	70455.8
195	2.000000	1.093559	7.36696e+06	-48389.1	955.819	-29763	0.000000	0.000000	7.094913	30.4241	NaN	0.000000	0.001612	0.001799	28.0804	21.4454	0.001660	12915.3	6.959700	-179.017	29.8218	1.093284	0.022329	0.022054	30.4241	12915.3	0.020562	0.023433	1298.34	77084
195	2.000000	1.095568	7.36696e+06	-48389.1	955.82	-29763	0.000000	0.000000	7.097094	34.601	NaN	0.000000	0.001583	0.001782	28.0805	24.4769	0.001736	14097.9	9.191754	179.265	33.9122	1.095219	0.024338	0.023989	34.601	14097.9	0.022497	0.026620	1299.83	78945.4
195	2.000000	1.097604	7.36696e+06	-48389.1	955.819	-29763	0.000000	0.000000	7.099418	41.6211	NaN	0.000000	0.001585	0.001776	28.0807	26.5309	0.001876	14141.9	6.228774	-177.369	41.704	1.097241	0.026374	0.026010	41.6211	14141.9	0.024166	0.029517	1410.09	75205.3
195	2.000000	1.099586	7.36696e+06	-48389.1	955.819	-29763	0.000000	0.000000	7.101495	43.9273	NaN	0.000000	0.001627	0.001827	28.0804	27.9053	0.001817	15356.1	0.391962	-172.892	44.0909	1.099295	0.028356	0.028065	43.9273	15356.1	0.026210	0.033254	1320.96	76936.3
195	2.000000	1.101613	7.36696e+06	-48389.1	955.82	-29763	0.000000	0.000000	7.103810	50.9274	NaN	0.000000	0.001623	0.001816	28.0809	30.6759	0.001888	16251.2	6.754879	-178.475	53.2032	1.101243	0.030383	0.030012	50.9274	16251.2	0.028033	0.036765	1385.21	77435.8
195	2.000000	1.103551	7.36696e+06	-48389.1	955.82	-29763	0.000000	0.000000	7.105972	56.3683	NaN	0.000000	0.001592	0.001797	28.0804	31.8491	0.001733	18373.9	7.908354	177.603	55.9428	1.103249	0.032321	0.032019	56.3683	18373.9	0.030020	0.040786	1382.06	83123.2
195	2.000000	1.105549	7.36696e+06	-48389.1	955.82	-29763	0.000000	0.000000	7.108123	60.1086	NaN	0.000000	0.001599	0.001779	28.0804	34.1079	0.001834	18595.5	4.777298	-179.566	59.4222	1.105261	0.034318	0.034031	60.1086	18595.5	0.031894	0.044761	1342.89	80303
195	2.000000	1.107616	7.36696e+06	-48389.1	955.82	-29763	0.000000	0.000000	7.110569	69.3242	NaN	0.000000	0.001604	0.001772	28.0805	36.0764	0.001889	19102.6	8.139309	177.949	70.645	1.107298	0.036386	0.036067	69.3242	19102.6	0.033664	0.048681	1424.05	79101.6
195	2.000000	1.109605	7.36696e+06	-48389.1	955.819	-29763	0.000000	0.000000	7.112709	72.9928	NaN	0.000000	0.001596	0.001808	28.0805	38.16	0.001858	20537.5	8.655836	176.637	75.876	1.109188	0.038375	0.037958	72.9928	20537.5	0.035709	0.053411	1366.63	81190.8
195	2.000000	1.111472	7.36696e+06	-48389.1	955.82	-29763	0.000000	0.000000	7.114950	82.0957	NaN	0.000000	0.001573	0.001793	28.0813	39.7183	0.001833	21665	6.507733	177.226	79.0224	1.111219	0.040242	0.039988	82.0957	21665	0.037400	0.057481	1428.22	82560.2
195	2.000000	1.113560	7.36696e+06	-48389.1	955.82	-29763	0.000000	0.000000	7.117376	90.2902	NaN	0.000000	0.001585	0.001799	28.0805	41.0065	0.001773	23128	6.400140	177.48	89.6545	1.113201	0.042330	0.041971	90.2902	23128	0.039402	0.062493	1444.82	84527.3
195	2.000000	1.115522	7.36696e+06	-48389.1	955.82	-29763	0.000000	0.000000	7.119625	97.2894	NaN	0.000000	0.001557	0.001780	28.0805	43.0782	0.001745	24689.7	5.685082	177.029	96.979	1.115268	0.044292	0.044038	97.2894	24689.7	0.041336	0.067527	1440.75	86806
195	2.000000	1.117547	7.36696e+06	-48389.1	955.82	-29763	0.000000	0.000000	7.122045	106.901	NaN	0.000000	0.001575	0.001799	28.0803	44.9734	0.001729	26009.4	3.888447	179.179	105.28	1.117186	0.046317	0.045956	106.901	26009.4	0.043234	0.072653	1471.39	88161
195	2.000000	1.119481	7.36696e+06	-48389.1	955.82	-29763	0.000000	0.000000	7.124411	117.386	NaN	0.000000	0.001601	0.001769	28.0805	46.6374	0.001770	26342.7	4.789549	177.792	115.724	1.119230	0.048251	0.048000	117.386	26342.7	0.044909	0.077329	1518.01	86549.1
195	2.000000	1.121496	7.36696e+06	-48389.1	955.819	-29763	0.000000	0.000000	7.126740	125.055	NaN	0.000000	0.001581	0.001760	28.0807	50.1964	0.001862	26965.5	4.726838	177.044	123.618	1.121219	0.050265	0.049989	125.055	26965.5	0.046787	0.082742	1511.39	85648.5
195	2.000000	1.123563	7.36696e+06	-48389.1	955.82	-29763	0.000000	0.000000	7.129161	133.642	NaN	0.000000	0.001544	0.001758	28.079	51.7282	0.001826	28326.4	7.886105	173.778	135.707	1.123264	0.052333	0.052034	133.642	28326.4	0.048795	0.088724	1506.27	86884.7
195	2.000000	1.125496	7.36696e+06	-48389.1	955.819	-29763	0.000000	0.000000	7.131619	146.429	NaN	0.000000	0.001601	0.001775	28.0794	54.1117	0.001844	29351.5	5.604902	176.275	143.939	1.125130	0.054265	0.053900	146.429	29351.5	0.050524	0.094039	1557.12	87448
195	2.000000	1.127596	7.36696e+06	-48389.1	955.82	-29763	0.000000	0.000000	7.134039	154.206	NaN	0.000000	0.001600	0.001802	28.0791	55.7129	0.001777	31346.5	6.317066	175.905	156.688	1.127194	0.056366	0.055964	154.206	31346.5	0.052676	0.100865	1528.84	90176.5
195	2.000000	1.129516	7.36696e+06	-48389.1	955.819	-29763	0.000000	0.000000	7.136445	166.038	NaN	0.000000	0.001596	0.001741	28.0792	58.552	0.001723	33977.6	10.5687	170.706	165.511	1.129080	0.058285	0.057850	166.038	33977.6	0.054620	0.107228	1548.47	94800.8
195	2.000000	1.131458	7.36696e+06	-48389.1	955.819	-29763	0.000000	0.000000	7.138662	172.717	NaN	0.000000	0.001585	0.001787	28.0791	60.5022	0.001743	34702.1	2.890737	176.509	168.64	1.131321	0.060228	0.060090	172.717	34702.1	0.056495	0.113541	1521.19	94091.8
195	2.000000	1.133477	7.36696e+06	-48389.1	955.819	-29763	0.000000	0.000000	7.141283	187.349	NaN	0.000000	0.001586	0.001789	28.0792	62.2235	0.001856	33527.2	5.538844	174.587	185.646	1.133134	0.062247	0.061903	187.349	33527.2	0.058056	0.118930	1575.29	88822.8
195	2.000000	1.135444	7.36696e+06	-48389.1	955.82	-29763	0.000000	0.000000	7.143807	200.913	NaN	0.000000	0.001612	0.001775	28.0797	64.1222	0.001725	37169.5	6.783760	171.818	197.266	1.135098	0.064214	0.063867	200.913	37169.5	0.060160	0.126382	1589.73	95525.1
195	2.000000	1.137602	7.36696e+06	-48389.1	955.82	-29763	0.000000	0.000000	7.146472	213.236	NaN	0.000000	0.001613	0.001795	28.0795	65.8622	0.001842	35751.2	7.103216	173.503	214.721	1.137127	0.066372	0.065897	213.236	35751.2	0.061898	0.132703	1606.87	89665.2
195	2.000000	1.139449	7.36696e+06	-48389.1	955.82	-29763	0.000000	0.000000	7.148619	220.512	NaN	0.000000	0.001638	0.001835	28.0794	67.9924	0.001805	37671.7	7.508631	171.98	217.938	1.139101	0.068219	0.067871	220.512	37671.7	0.063829	0.139895	1576.27	92021.1
195	2.000000	1.141503	7.36696e+06	-48389.1	955.82	-29763	0.000000	0.000000	7.150953	227.348	NaN	0.000000	0.001595	0.001847	28.0792	70.677	0.001854	38120.9	9.979398	169.909	225.95	1.141191	0.070272	0.069960	227.348	38120.9	0.065799	0.147421	1542.16	90710.1
195	2.000000	1.143434	7.36696e+06	-48389.1	955.82	-29763	0.000000	0.000000	7.153468	241.548	NaN	0.000000	0.001607	0.001797	28.079	70.4543	0.001800	39149.4	6.030356	173.734	237.98	1.143068	0.072203	0.071838	241.548	39149.4	0.067576	0.154367	1564.77	91037.7
195	2.000000	1.145423	7.36696e+06	-48389.1	955.82	-29763	0.000000	0.000000	7.155475	241.982	NaN	0.000000	0.001601	0.001764	28.0795	73.4966	0.001760	41764	4.442957	173.572	236.785	1.145253	0.074193	0.074023	241.982	41764	0.069847	0.163467	1480.31	94375.7
195	2.000000	1.147513	7.36696e+06	-48389.1	955.82	-29763	0.000000	0.000000	7.158314	260.212	NaN	0.000000	0.001620	0.001755	28.0791	75.4553	0.001769	42642.5	4.259880	174.417	259.073	1.147155	0.076282	0.075924	260.212	42642.5	0.071706	0.171096	1520.85	94188.1
195	2.000000	1.149518	7.36696e+06	-48389.1	955.819	-29763	0.000000	0.000000	7.160719	269.926	NaN	0.000000	0.001591	0.001786	28.079	77.0283	0.001825	42196.9	5.380504	173.138	268.625	1.149148	0.078288	0.077918	269.926	42196.9	0.073490	0.178574	1511.56	91231.4
195	2.000000	1.151509	7.36696e+06	-48389.1	955.82	-29763	0.000000	0.000000	7.163215	282.207	NaN	0.000000	0.001597	0.001760	28.079	79.481	0.001883	42212.3	5.420962	174.091	281.173	1.151111	0.080279	0.079881	282.207	42212.3	0.075265	0.186161	1515.93	89385.6
195	2.000000	1.153446	7.36696e+06	-48389.1	955.82	-29763	0.000000	0.000000	7.165711	295.799	NaN	0.000000	0.001611	0.001782	28.079	80.9631	0.001858	43582.7	7.809354	170.473	293.913	1.153261	0.082216	0.082031	295.799	43582.7	0.077126	0.194277	1522.56	90339.3
195	2.000000	1.155450	7.36696e+06	-48389.1	955.82	-29763	0.000000	0.000000	7.168206	307.755	NaN	0.000000	0.001605	0.001752	28.0795	82.4878	0.001830	45066.1	4.815268	173.697	304.893	1.154938	0.084219	0.083708	307.755	45066.1	0.079097	0.203051	1515.65	91373.6
195	2.000000	1.157483	7.36696e+06	-48389.1	955.82	-29763	0.000000	0.000000	7.170507	314.268	NaN	0.000000	0.001616	0.001749	28.0804	83.2748	0.001809	46042.4	3.245288	174.956	313.58	1.157287	0.086252	0.086057	314.268	46042.4	0.081133	0.212301	1480.3	91296.8
195	2.000000	1.159339	7.36696e+06	-48389.1	955.819	-29763	0.000000	0.000000	7.173110	332.422	NaN	0.000000	0.001620	0.001747	28.0803	84.8486	0.001791	47369.6	3.049391	175.251	325.556	1.159012	0.088109	0.087782	332.422	47369.6	0.082846	0.220232	1509.42	92221.7
195	2.000000	1.161423	7.36696e+06	-48389.1	955.82	-29763	0.000000	0.000000	7.175484	339.476	NaN	0.000000	0.001590	0.001709	28.0803	86.238	0.001811	47620.7	1.124553	176.446	335.949	1.161237	0.090193	0.090007	339.476	47620.7	0.084846	0.229669	1478.11	90785.9
195	2.000000	1.163484	7.36696e+06	-48389.1	955.82	-29763	0.000000	0.000000	7.178308	358.044	NaN	0.000000	0.001599	0.001756	28.0804	87.9449	0.001798	48908.6	6.345004	171.462	359.472	1.163173	0.092253	0.091942	358.044	48908.6	0.086763	0.238883	1498.83	91425.2
195	2.000000	1.165370	7.36696e+06	-48389.1	955.819	-29763	0.000000	0.000000	7.180466	364.644	NaN	0.000000	0.001586	0.001755	28.0806	88.8015	0.001841	48232.3	0.156650	177.351	356.767	1.165100	0.094140	0.093870	364.644	48232.3	0.088470	0.247233	1474.9	88625.5
195	2.000000	1.167450	7.36696e+06	-48389.1	955.819	-29763	0.000000	0.000000	7.183128	378.814	NaN	0.000000	0.001636	0.001711	28.0802	91.3207	0.001764	51781.6	5.998947	171.252	375.591	1.167168	0.096220	0.095938	378.814	51781.6	0.090733	0.258506	1465.4	93049.3
195	2.000000	1.169391	7.36696e+06	-48389.1	955.821	-29763	0.000000	0.000000	7.185553	390.588	NaN	0.000000	0.001644	0.001739	28.0805	91.6821	0.001771	51763.4	3.053163	173.853	386.204	1.169199	0.098161	0.097969	390.588	51763.4	0.092501	0.267481	1460.24	91442.8
195	2.000000	1.171406	7.36696e+06	-48389.1	955.819	-29763	0.000000	0.000000	7.187968	400.317	NaN	0.000000	0.001636	0.001742	28.0803	94.4497	0.001842	51263.1	2.157071	175.124	397.275	1.171156	0.100175	0.099926	400.317	51263.1	0.094319	0.276852	1445.96	89013.2
195	2.000000	1.173527	7.36696e+06	-48389.1	955.82	-29763	0.000000	0.000000	7.190573	412.102	NaN	0.000000	0.001624	0.001747	28.0804	95.1853	0.001788	53229.8	4.259212	173.157	415.023	1.173150	0.102297	0.101919	412.102	53229.8	0.096490	0.288247	1429.69	90582.8
195	2.000000	1.175410	7.36696e+06	-48389.1	955.82	-29763	0.000000	0.000000	7.193196	430.095	NaN	0.000000	0.001667	0.001729	28.0808	98.2223	0.001823	53886.6	6.542537	170.737	426.553	1.175072	0.104179	0.103841	430.095	53886.6	0.098193	0.297334	1446.5	90288.3
195	2.000000	1.177436	7.36696e+06	-48389.1	955.819	-29763	0.000000	0.000000	7.195688	441.412	NaN	0.000000	0.001604	0.001745	28.0805	99.673	0.001799	55398.9	6.337465	170.864	437.915	1.177054	0.106206	0.105824	441.412	55398.9	0.100230	0.308375	1431.41	91145.3
195	2.000000	1.179398	7.36696e+06	-48389.1	955.82	-29763	0.000000	0.000000	7.198278	456.703	NaN	0.000000	0.001636	0.001770	28.0806	100.022	0.001700	58843	2.720266	173.685	452.995	1.179127	0.108167	0.107896	456.703	58843	0.102346	0.320048	1426.98	95030