File: remote_trans/data/nanoindenter/0828-1/data/Data_2025-08-06,11h17m57s/2025-07-22_16-23-58_1_49.txt
2025-07-22, 16:23:58, 1
Index	Phase	Displacement	Time	Pos X	Pos Y	Pos Z	Rot A	Rot B	Piezo Z	Force A	Force B	Gripper	Voltage A	Voltage B	Temperature	Amplitude force	Amplitude pos	Stiffness	Phase shift	Phase excitation	Force A raw	Displacement raw	HMax	HMax raw	Real Force	Real Stiffness	Contact Depth	Area	Hardness	Reduced Mod.
[#]	[#]	[um]	[s]	[um]	[um]	[um]	[m°]	[m°]	[um]	[uN]	[uN]	[V]	[V]	[V]	[°C]	[uN]	[um]	[N/m]	[°]	[°]	[uN]	[um]	[um]	[um]	[uN]	[N/m]	[um]	[um^2]	[MPa]	[MPa]
49	1.000000	0.002781	7.36552e+06	-41089.1	955.818	-29787.5	0.000000	0.000000	6.002774	0.021189	NaN	0.000000	0.001700	0.001714	28.1256	0.045770	0.000970	47.1913	-137.229	-170.823	0.013708	0.001585	-1.709300	-1.710497	0.021189	47.1913	-1.709637	-6.830491E+22	-3.102175E-25	NaN
49	1.000000	0.014801	7.36552e+06	-41089.1	955.819	-29787.5	0.000000	0.000000	6.014788	-0.092712	NaN	0.000000	0.001707	0.001687	28.0782	0.081698	0.001530	53.3902	75.396	-161.297	-0.019459	0.013636	-1.697281	-1.698445	-0.092712	53.3902	-1.695979	-4.497964E+22	2.061202E-24	NaN
49	1.000000	0.026774	7.36552e+06	-41089.1	955.818	-29787.5	0.000000	0.000000	6.026762	-0.096691	NaN	0.000000	0.001724	0.001660	28.1255	0.097837	0.001890	51.7649	11.6575	-167.9	-0.037292	0.025525	-1.685307	-1.686557	-0.096691	51.7649	-1.683907	-3.109054E+22	3.109986E-24	NaN
49	1.000000	0.038787	7.36552e+06	-41089.1	955.819	-29787.5	0.000000	0.000000	6.038777	-0.013707	NaN	0.000000	0.001708	0.001634	28.0799	0.100091	0.001830	54.6907	-27.2881	-168.129	0.061753	0.037511	-1.673295	-1.674570	-0.013707	54.6907	-1.673107	-2.234245E+22	6.134756E-25	NaN
49	1.000000	0.050764	7.36552e+06	-41089.1	955.819	-29787.5	0.000000	0.000000	6.050754	-0.042680	NaN	0.000000	0.001720	0.001730	28.1277	0.056846	0.001982	28.6751	126.664	-166.505	-0.012845	0.049449	-1.661318	-1.662633	-0.042680	28.6751	-1.660201	-1.505285E+22	2.835323E-24	NaN
49	1.000000	0.062770	7.36552e+06	-41089.1	955.818	-29787.5	0.000000	0.000000	6.062759	-0.062364	NaN	0.000000	0.001720	0.001671	28.0809	0.014705	0.001884	7.805439	-23.1927	-164.456	-0.045456	0.061426	-1.649312	-1.650656	-0.062364	7.805439	-1.643319	-8.979014E+21	6.945524E-24	NaN
49	1.000000	0.074749	7.36552e+06	-41089.1	955.817	-29787.5	0.000000	0.000000	6.074740	-0.007745	NaN	0.000000	0.001701	0.001702	28.1275	0.043448	0.002008	21.6382	-96.2052	-160.743	0.032865	0.073486	-1.637333	-1.638595	-0.007745	21.6382	-1.637064	-7.414371E+21	1.044632E-24	NaN
49	1.000000	0.086798	7.36552e+06	-41089.1	955.818	-29787.5	0.000000	0.000000	6.086790	0.014606	NaN	0.000000	0.001699	0.001718	28.08	0.030505	0.002010	15.1791	-1.175605	-165.968	0.051642	0.085406	-1.625284	-1.626676	0.014606	15.1791	-1.626005	-5.285001E+21	-2.763590E-24	NaN
49	1.000000	0.098794	7.36552e+06	-41089.1	955.818	-29787.5	0.000000	0.000000	6.098783	-0.054591	NaN	0.000000	0.001704	0.001718	28.1266	0.159683	0.002116	75.4716	13.1568	-162.873	0.000358	0.097507	-1.613288	-1.614574	-0.054591	75.4716	-1.612746	-3.521530E+21	1.550202E-23	NaN
49	1.000000	0.110777	7.36552e+06	-41089.1	955.819	-29787.5	0.000000	0.000000	6.110769	0.020782	NaN	0.000000	0.001703	0.001688	28.0797	0.034669	0.001984	17.4741	166.805	-164.335	0.006097	0.109458	-1.601304	-1.602623	0.020782	17.4741	-1.602196	-2.549402E+21	-8.151774E-24	NaN
49	1.000000	0.122783	7.36552e+06	-41089.1	955.818	-29787.5	0.000000	0.000000	6.122775	-0.004965	NaN	0.000000	0.001665	0.001698	28.1274	0.037497	0.002064	18.1704	-90.8616	-164.6	0.044069	0.121482	-1.589298	-1.590599	-0.004965	18.1704	-1.589093	-1.706684E+21	2.909177E-24	NaN
49	1.000000	0.134822	7.36552e+06	-41089.1	955.819	-29787.5	0.000000	0.000000	6.134813	-0.011284	NaN	0.000000	0.001635	0.001635	28.0799	0.024163	0.002143	11.2753	-138.631	-164.645	0.004063	0.133492	-1.577260	-1.578590	-0.011284	11.2753	-1.576509	-1.160755E+21	9.721563E-24	NaN
49	1.000000	0.146794	7.36552e+06	-41089.1	955.818	-29787.5	0.000000	0.000000	6.146784	-0.031975	NaN	0.000000	0.001653	0.001688	28.1273	0.074193	0.001971	37.6476	-83.7596	-162.727	-0.004597	0.145530	-1.565288	-1.566551	-0.031975	37.6476	-1.564651	-8.071699E+20	3.961383E-23	NaN
49	1.000000	0.158834	7.36552e+06	-41089.1	955.819	-29787.5	0.000000	0.000000	6.158827	0.041236	NaN	0.000000	0.001646	0.001697	28.0802	0.085027	0.002000	42.5202	-47.0317	-164.45	0.028894	0.157473	-1.553248	-1.554609	0.041236	42.5202	-1.553975	-5.819670E+20	-7.085691E-23	NaN
49	1.000000	0.170786	7.36552e+06	-41089.1	955.818	-29787.5	0.000000	0.000000	6.170777	0.007252	NaN	0.000000	0.001634	0.001699	28.1261	0.092127	0.001927	47.8077	0.138077	-163.188	0.001206	0.169532	-1.541296	-1.542550	0.007252	47.8077	-1.541410	-3.959669E+20	-1.831544E-23	NaN
49	1.000000	0.182802	7.36552e+06	-41089.1	955.818	-29787.5	0.000000	0.000000	6.182791	-0.056801	NaN	0.000000	0.001657	0.001661	28.0785	0.029155	0.002029	14.3711	70.9296	-163.865	-0.111147	0.181514	-1.529279	-1.530568	-0.056801	14.3711	-1.526315	-2.492978E+20	2.278446E-22	NaN
49	1.000000	0.194812	7.36552e+06	-41089.1	955.818	-29787.5	0.000000	0.000000	6.194803	-0.014611	NaN	0.000000	0.001631	0.001685	28.1255	0.050614	0.001945	26.0191	-75.3699	-162.849	0.007476	0.193512	-1.517270	-1.518570	-0.014611	26.0191	-1.516848	-1.865003E+20	7.834164E-23	NaN
49	1.000000	0.206819	7.36552e+06	-41089.1	955.818	-29787.5	0.000000	0.000000	6.206812	0.022672	NaN	0.000000	0.001615	0.001672	28.0792	0.094166	0.002062	45.666	-103.52	-166.641	-0.035465	0.205520	-1.505262	-1.506562	0.022672	45.666	-1.505635	-1.322372E+20	-1.714484E-22	NaN
49	1.000000	0.218814	7.36552e+06	-41089.1	955.818	-29787.5	0.000000	0.000000	6.218805	-0.015965	NaN	0.000000	0.001676	0.001668	28.126	0.036113	0.001985	18.1939	112.675	-163.513	0.037254	0.217487	-1.493267	-1.494595	-0.015965	18.1939	-1.492609	-8.868975E+19	1.800042E-22	NaN
49	1.000000	0.230821	7.36552e+06	-41089.1	955.818	-29787.5	0.000000	0.000000	6.230809	-0.090210	NaN	0.000000	0.001654	0.001654	28.0785	0.121481	0.001957	62.0683	-86.4632	-166.295	-0.013589	0.229511	-1.481260	-1.482570	-0.090210	62.0683	-1.480170	-6.055847E+19	1.489631E-21	NaN
49	1.000000	0.242825	7.36552e+06	-41089.1	955.818	-29787.5	0.000000	0.000000	6.242819	0.055568	NaN	0.000000	0.001669	0.001683	28.125	0.045941	0.001906	24.0994	5.444000	-166.373	0.044595	0.241505	-1.469256	-1.470577	0.055568	24.0994	-1.470986	-4.568843E+19	-1.216235E-21	NaN
49	1.000000	0.254847	7.36552e+06	-41089.1	955.819	-29787.5	0.000000	0.000000	6.254836	-0.051103	NaN	0.000000	0.001681	0.001683	28.0784	0.067686	0.001887	35.8656	-55.4049	-164.94	-0.049748	0.253497	-1.457235	-1.458585	-0.051103	35.8656	-1.456166	-2.899543E+19	1.762464E-21	NaN
49	1.000000	0.266870	7.36552e+06	-41089.1	955.818	-29787.5	0.000000	0.000000	6.266861	-0.002357	NaN	0.000000	0.001697	0.001639	28.1246	0.058681	0.002096	27.9994	-83.1025	-163.444	0.021182	0.265554	-1.445212	-1.446528	-0.002357	27.9994	-1.445149	-2.067694E+19	1.140029E-22	NaN
49	1.000000	0.278865	7.36552e+06	-41089.1	955.818	-29787.5	0.000000	0.000000	6.278854	-0.055882	NaN	0.000000	0.001697	0.001650	28.0777	0.076252	0.002159	35.3176	-68.3216	-165.142	0.008985	0.277580	-1.433217	-1.434502	-0.055882	35.3176	-1.432030	-1.382313E+19	4.042676E-21	NaN
49	1.000000	0.290863	7.36552e+06	-41089.1	955.818	-29787.5	0.000000	0.000000	6.290856	0.022459	NaN	0.000000	0.001671	0.001640	28.1261	0.031907	0.002007	15.902	-106.658	-167.469	0.078441	0.289524	-1.421218	-1.422558	0.022459	15.902	-1.422278	-1.024643E+19	-2.191932E-21	NaN
49	1.000000	0.302883	7.36552e+06	-41089.1	955.818	-29787.5	0.000000	0.000000	6.302872	-0.059010	NaN	0.000000	0.001688	0.001596	28.079	0.066429	0.002009	33.0725	6.761365	-165.46	-0.120818	0.301594	-1.409199	-1.410488	-0.059010	33.0725	-1.407861	-6.581321E+18	8.966251E-21	NaN
49	1.000000	0.314870	7.36552e+06	-41089.1	955.818	-29787.5	0.000000	0.000000	6.314861	-0.008534	NaN	0.000000	0.001687	0.001657	28.1274	0.141768	0.001977	71.7044	47.212	-164.639	-0.018558	0.313614	-1.397212	-1.398468	-0.008534	71.7044	-1.397123	-4.732441E+18	1.803305E-21	NaN
49	1.000000	0.326887	7.36552e+06	-41089.1	955.818	-29787.5	0.000000	0.000000	6.326876	-0.057616	NaN	0.000000	0.001679	0.001680	28.0801	0.084353	0.001852	45.5388	-164.171	-165.126	0.023150	0.325507	-1.385195	-1.386575	-0.057616	45.5388	-1.384246	-3.186366E+18	1.808196E-20	NaN
49	1.000000	0.338884	7.36552e+06	-41089.1	955.818	-29787.5	0.000000	0.000000	6.338875	0.007721	NaN	0.000000	0.001672	0.001637	28.1282	0.064604	0.002154	29.996	137.448	-164.134	-0.068832	0.337575	-1.373198	-1.374507	0.007721	29.996	-1.373391	-2.282688E+18	-3.382448E-21	NaN
49	1.000000	0.350901	7.36552e+06	-41089.1	955.818	-29787.5	0.000000	0.000000	6.350896	0.074285	NaN	0.000000	0.001643	0.001677	28.0801	0.006004	0.002026	2.962889	-2.941498	-162.732	0.154899	0.349537	-1.361180	-1.362544	0.074285	2.962889	-1.379984	-2.795315E+18	-2.657486E-20	NaN
49	1.000000	0.362876	7.36552e+06	-41089.1	955.818	-29787.5	0.000000	0.000000	6.362869	0.038999	NaN	0.000000	0.001620	0.001668	28.1275	0.075339	0.001993	37.8023	44.9826	-164.326	0.048896	0.361592	-1.349205	-1.350490	0.038999	37.8023	-1.349979	-1.111602E+18	-3.508353E-20	NaN
49	1.000000	0.374882	7.36552e+06	-41089.1	955.818	-29787.5	0.000000	0.000000	6.374872	-0.017790	NaN	0.000000	0.001646	0.001722	28.0802	0.055787	0.001944	28.6931	-74.749	-166.063	-0.019753	0.373617	-1.337200	-1.338464	-0.017790	28.6931	-1.336735	-7.397976E+17	2.404670E-20	NaN
49	1.000000	0.386873	7.36552e+06	-41089.1	955.818	-29787.5	0.000000	0.000000	6.386865	0.017933	NaN	0.000000	0.001600	0.001697	28.1275	0.087916	0.002032	43.2741	116.742	-165.258	0.019573	0.385591	-1.325209	-1.326491	0.017933	43.2741	-1.325520	-5.240049E+17	-3.422368E-20	NaN
49	1.000000	0.398946	7.36552e+06	-41089.1	955.818	-29787.5	0.000000	0.000000	6.398937	-0.021834	NaN	0.000000	0.001626	0.001688	28.0826	0.041487	0.001935	21.4404	-88.5893	-164.322	-0.000596	0.397630	-1.313135	-1.314451	-0.021834	21.4404	-1.312371	-3.497006E+17	6.243760E-20	NaN
49	1.000000	0.410889	7.36552e+06	-41089.1	955.818	-29787.5	0.000000	0.000000	6.410879	-0.040433	NaN	0.000000	0.001634	0.001647	28.1266	0.041617	0.001917	21.7147	118.946	-166.398	0.032474	0.409617	-1.301193	-1.302465	-0.040433	21.7147	-1.299796	-2.375051E+17	1.702390E-19	NaN
49	1.000000	0.422911	7.36552e+06	-41089.1	955.819	-29787.5	0.000000	0.000000	6.422900	-0.052588	NaN	0.000000	0.001638	0.001664	28.0806	0.076212	0.001965	38.7911	-11.803	-159.94	-0.015533	0.421642	-1.289171	-1.290439	-0.052588	38.7911	-1.288154	-1.659901E+17	3.168133E-19	NaN
49	1.000000	0.434925	7.36552e+06	-41089.1	955.819	-29787.5	0.000000	0.000000	6.434915	-0.019590	NaN	0.000000	0.001594	0.001649	28.1262	0.045217	0.001975	22.8904	-72.6976	-167.109	0.040293	0.433621	-1.277157	-1.278461	-0.019590	22.8904	-1.276515	-1.160097E+17	1.688663E-19	NaN
49	1.000000	0.446944	7.36552e+06	-41089.1	955.819	-29787.5	0.000000	0.000000	6.446935	0.002264	NaN	0.000000	0.001580	0.001674	28.0802	0.049228	0.002062	23.8743	143.496	-162.946	0.022766	0.445588	-1.265138	-1.266494	0.002264	23.8743	-1.265209	-8.190847E+16	-2.764400E-20	NaN
49	1.000000	0.458960	7.36552e+06	-41089.1	955.818	-29787.5	0.000000	0.000000	6.458950	-0.030397	NaN	0.000000	0.001598	0.001659	28.1262	0.055490	0.002088	26.5801	-107.247	-164.774	-0.040290	0.457650	-1.253122	-1.254432	-0.030397	26.5801	-1.252264	-5.498004E+16	5.528721E-19	NaN
49	1.000000	0.470962	7.36552e+06	-41089.1	955.818	-29787.5	0.000000	0.000000	6.470952	-0.026402	NaN	0.000000	0.001579	0.001659	28.0798	0.023496	0.001896	12.3901	-53.8448	-168.169	0.059707	0.469579	-1.241120	-1.242503	-0.026402	12.3901	-1.239521	-3.713137E+16	7.110426E-19	NaN
49	1.000000	0.482933	7.36552e+06	-41089.1	955.819	-29787.5	0.000000	0.000000	6.482923	-0.048369	NaN	0.000000	0.001631	0.001672	28.1248	0.052408	0.001949	26.8922	126.784	-166.264	-0.102763	0.481658	-1.229148	-1.230424	-0.048369	26.8922	-1.227799	-2.587548E+16	1.869300E-18	NaN
49	1.000000	0.494940	7.36552e+06	-41089.1	955.818	-29787.5	0.000000	0.000000	6.494932	0.007891	NaN	0.000000	0.001631	0.001653	28.0805	0.036418	0.002089	17.4364	20.0611	-165.281	0.024904	0.493624	-1.217141	-1.218457	0.007891	17.4364	-1.217481	-1.882706E+16	-4.191144E-19	NaN
49	1.000000	0.506981	7.36552e+06	-41089.1	955.819	-29787.5	0.000000	0.000000	6.506973	0.003855	NaN	0.000000	0.001618	0.001625	28.1244	0.130565	0.002064	63.2694	165.176	-164.849	0.006829	0.505593	-1.205101	-1.206488	0.003855	63.2694	-1.205146	-1.287232E+16	-2.994937E-19	NaN
49	1.000000	0.518952	7.36552e+06	-41089.1	955.818	-29787.5	0.000000	0.000000	6.518944	0.017840	NaN	0.000000	0.001611	0.001650	28.0787	0.172833	0.002005	86.1958	-59.564	-162.282	0.091877	0.517654	-1.193130	-1.194427	0.017840	86.1958	-1.193285	-8.929350E+15	-1.997870E-18	NaN
49	1.000000	0.530967	7.36552e+06	-41089.1	955.818	-29787.5	0.000000	0.000000	6.530959	0.038024	NaN	0.000000	0.001596	0.001650	28.1257	0.078928	0.001947	40.5347	-3.181001	-165.711	0.047822	0.529662	-1.181115	-1.182420	0.038024	40.5347	-1.181819	-6.269526E+15	-6.064962E-18	NaN
49	1.000000	0.542977	7.36552e+06	-41089.1	955.818	-29787.5	0.000000	0.000000	6.542968	0.003536	NaN	0.000000	0.001600	0.001626	28.0799	0.036030	0.001932	18.6448	75.9667	-167.048	0.007476	0.541654	-1.169105	-1.170427	0.003536	18.6448	-1.169247	-4.253968E+15	-8.312003E-19	NaN
49	1.000000	0.554989	7.36552e+06	-41089.1	955.818	-29787.5	0.000000	0.000000	6.554981	0.023334	NaN	0.000000	0.001590	0.001655	28.1258	0.081977	0.002075	39.5117	57.1259	-164.647	-0.042529	0.553663	-1.157093	-1.158419	0.023334	39.5117	-1.157536	-2.963743E+15	-7.873198E-18	NaN
49	1.000000	0.566973	7.36552e+06	-41089.1	955.819	-29787.5	0.000000	0.000000	6.566963	-0.021134	NaN	0.000000	0.001614	0.001649	28.078	0.073952	0.001916	38.6006	28.2026	-165.508	0.066183	0.565694	-1.145109	-1.146387	-0.021134	38.6006	-1.144698	-1.994039E+15	1.059866E-17	NaN
49	1.000000	0.578961	7.36552e+06	-41089.1	955.819	-29787.5	0.000000	0.000000	6.578950	-0.054619	NaN	0.000000	0.001637	0.001617	28.1246	0.040452	0.001968	20.5535	-54.8291	-165.059	0.004409	0.577730	-1.133120	-1.134352	-0.054619	20.5535	-1.131127	-1.311420E+15	4.164853E-17	NaN
49	1.000000	0.591003	7.36552e+06	-41089.1	955.818	-29787.5	0.000000	0.000000	6.590994	-0.023974	NaN	0.000000	0.001617	0.001636	28.0801	0.045142	0.001988	22.7047	-166.441	-165.959	0.052281	0.589647	-1.121078	-1.122435	-0.023974	22.7047	-1.120287	-9.382460E+14	2.555153E-17	NaN
49	1.000000	0.602979	7.36552e+06	-41089.1	955.818	-29787.5	0.000000	0.000000	6.602968	-0.066163	NaN	0.000000	0.001588	0.001648	28.1269	0.080110	0.002013	39.7958	74.6303	-164.321	-0.026290	0.601713	-1.109103	-1.110369	-0.066163	39.7958	-1.107856	-6.390144E+14	1.035389E-16	NaN
49	1.000000	0.614972	7.36552e+06	-41089.1	955.818	-29787.5	0.000000	0.000000	6.614964	0.011704	NaN	0.000000	0.001579	0.001708	28.0817	0.072338	0.002085	34.7016	-169.449	-166.735	0.049570	0.613677	-1.097110	-1.098405	0.011704	34.7016	-1.097363	-4.620236E+14	-2.533307E-17	NaN
49	1.000000	0.626993	7.36552e+06	-41089.1	955.818	-29787.5	0.000000	0.000000	6.626987	0.067428	NaN	0.000000	0.001662	0.001676	28.1269	0.113113	0.002028	55.78	-139.492	-163.355	0.055285	0.625737	-1.085088	-1.086344	0.067428	55.78	-1.085995	-3.251108E+14	-2.074010E-16	NaN
49	1.000000	0.639012	7.36552e+06	-41089.1	955.818	-29787.5	0.000000	0.000000	6.639003	-0.004044	NaN	0.000000	0.001643	0.001672	28.0831	0.016756	0.001993	8.408197	-58.7765	-165.456	0.011979	0.637724	-1.073069	-1.074357	-0.004044	8.408197	-1.072709	-2.155654E+14	1.876014E-17	NaN
49	1.000000	0.651003	7.36552e+06	-41089.1	955.818	-29787.5	0.000000	0.000000	6.650992	-0.034624	NaN	0.000000	0.001707	0.001649	28.126	0.117264	0.002044	57.3833	-45.9039	-167.055	0.093484	0.649692	-1.061079	-1.062390	-0.034624	57.3833	-1.060627	-1.483343E+14	2.334158E-16	NaN
49	1.000000	0.663002	7.36552e+06	-41089.1	955.818	-29787.5	0.000000	0.000000	6.662991	-0.062300	NaN	0.000000	0.001695	0.001730	28.0805	0.152650	0.002003	76.2264	-159.482	-165.562	-0.049159	0.661744	-1.049079	-1.050338	-0.062300	76.2264	-1.048467	-1.018122E+14	6.119096E-16	NaN
49	1.000000	0.675014	7.36552e+06	-41089.1	955.819	-29787.5	0.000000	0.000000	6.675006	0.017602	NaN	0.000000	0.001688	0.001705	28.1256	0.013050	0.002102	6.207818	176.09	-161.16	-0.040610	0.673720	-1.037068	-1.038361	0.017602	6.207818	-1.039194	-7.640686E+13	-2.303664E-16	NaN
49	1.000000	0.687057	7.36552e+06	-41089.1	955.818	-29787.5	0.000000	0.000000	6.687049	0.013578	NaN	0.000000	0.001676	0.001721	28.0811	0.082395	0.002062	39.9509	124.354	-165.843	0.020755	0.685788	-1.025025	-1.026293	0.013578	39.9509	-1.025280	-4.965776E+13	-2.734222E-16	NaN
49	1.000000	0.699020	7.36552e+06	-41089.1	955.818	-29787.5	0.000000	0.000000	6.699010	-0.038397	NaN	0.000000	0.001694	0.001686	28.1268	0.108937	0.001990	54.7385	-116.781	-160.612	-0.052876	0.697691	-1.013061	-1.014391	-0.038397	54.7385	-1.012535	-3.345833E+13	1.147608E-15	NaN
49	1.000000	0.711031	7.36552e+06	-41089.1	955.819	-29787.5	0.000000	0.000000	6.711021	-0.008846	NaN	0.000000	0.001610	0.001700	28.0817	0.101964	0.001971	51.7191	175.709	-163.087	-0.032806	0.709717	-1.001051	-1.002364	-0.008846	51.7191	-1.000923	-2.334497E+13	3.789210E-16	NaN
49	1.000000	0.723005	7.36552e+06	-41089.1	955.819	-29787.5	0.000000	0.000000	6.722996	0.005368	NaN	0.000000	0.001672	0.001701	28.1242	0.034663	0.001953	17.7466	-42.7852	-166.207	0.020504	0.721767	-0.989077	-0.990315	0.005368	17.7466	-0.989304	-1.628311E+13	-3.296660E-16	NaN
49	1.000000	0.735046	7.36552e+06	-41089.1	955.818	-29787.5	0.000000	0.000000	6.735035	-0.049298	NaN	0.000000	0.001648	0.001682	28.0806	0.002752	0.002008	1.370277	18.367	-166.505	-0.046856	0.733803	-0.977035	-0.978279	-0.049298	1.370277	-0.950053	-4.816637E+12	1.023490E-14	NaN
49	1.000000	0.747045	7.36552e+06	-41089.1	955.818	-29787.5	0.000000	0.000000	6.747037	0.007729	NaN	0.000000	0.001662	0.001707	28.1239	0.039839	0.001997	19.9508	-140.921	-163.805	-0.012203	0.745695	-0.965036	-0.966386	0.007729	19.9508	-0.965327	-7.738880E+12	-9.987546E-16	NaN
49	1.000000	0.759055	7.36552e+06	-41089.1	955.818	-29787.5	0.000000	0.000000	6.759047	0.036094	NaN	0.000000	0.001651	0.001723	28.0795	0.127149	0.002012	63.2036	115.565	-167.897	-0.035550	0.757785	-0.953027	-0.954297	0.036094	63.2036	-0.953455	-5.353370E+12	-6.742331E-15	NaN
49	1.000000	0.771058	7.36552e+06	-41089.1	955.818	-29787.5	0.000000	0.000000	6.771045	-0.080825	NaN	0.000000	0.001670	0.001723	28.1254	0.092713	0.002003	46.2828	174.891	-163.508	-0.072969	0.769775	-0.941024	-0.942306	-0.080825	46.2828	-0.939714	-3.493689E+12	2.313458E-14	NaN
49	1.000000	0.783079	7.36552e+06	-41089.1	955.818	-29787.5	0.000000	0.000000	6.783070	0.000988	NaN	0.000000	0.001642	0.001714	28.0819	0.075180	0.002110	35.6379	-138.871	-166.117	-0.007122	0.781730	-0.929003	-0.930351	0.000988	35.6379	-0.929023	-2.506201E+12	-3.943979E-16	NaN
49	1.000000	0.795053	7.36552e+06	-41089.1	955.818	-29787.5	0.000000	0.000000	6.795047	0.060126	NaN	0.000000	0.001644	0.001705	28.1252	0.087330	0.002021	43.212	-26.5611	-163.645	0.067435	0.793804	-0.917028	-0.918278	0.060126	43.212	-0.918072	-1.783080E+12	-3.372006E-14	NaN
49	1.000000	0.807060	7.36552e+06	-41089.1	955.818	-29787.5	0.000000	0.000000	6.807049	-0.047075	NaN	0.000000	0.001665	0.001703	28.0794	0.047897	0.002025	23.6537	-130.404	-166.888	-0.125014	0.805768	-0.905022	-0.906314	-0.047075	23.6537	-0.903529	-1.134369E+12	4.149911E-14	NaN
49	1.000000	0.819071	7.36552e+06	-41089.1	955.819	-29787.5	0.000000	0.000000	6.819061	-0.022268	NaN	0.000000	0.001607	0.001698	28.1233	0.062554	0.001914	32.6804	-175.194	-162.908	-0.000443	0.817773	-0.893011	-0.894308	-0.022268	32.6804	-0.892500	-8.048354E+11	2.766829E-14	NaN
49	1.000000	0.831100	7.36552e+06	-41089.1	955.817	-29787.5	0.000000	0.000000	6.831091	0.010872	NaN	0.000000	0.001608	0.001706	28.0784	0.073700	0.002093	35.2172	27.8003	-165.952	0.043299	0.829774	-0.880982	-0.882308	0.010872	35.2172	-0.881214	-5.663961E+11	-1.919439E-14	NaN
49	1.000000	0.843079	7.36552e+06	-41089.1	955.818	-29787.5	0.000000	0.000000	6.843070	0.009592	NaN	0.000000	0.001587	0.001696	28.1246	0.024464	0.002015	12.1398	59.2829	-166.178	-0.051620	0.841772	-0.869003	-0.870310	0.009592	12.1398	-0.869596	-3.944313E+11	-2.431940E-14	NaN
49	1.000000	0.855123	7.36552e+06	-41089.1	955.818	-29787.5	0.000000	0.000000	6.855114	-0.026919	NaN	0.000000	0.001627	0.001671	28.0815	0.101778	0.001949	52.2116	-113.914	-164.388	-0.027558	0.853756	-0.856958	-0.858326	-0.026919	52.2116	-0.856572	-2.628527E+11	1.024119E-13	NaN
49	1.000000	0.867078	7.36552e+06	-41089.1	955.817	-29787.5	0.000000	0.000000	6.867069	-0.001940	NaN	0.000000	0.001651	0.001620	28.1254	0.029400	0.002038	14.4232	-14.3526	-168.063	0.000222	0.865814	-0.845004	-0.846268	-0.001940	14.4232	-0.844903	-1.826859E+11	1.061727E-14	NaN
49	1.000000	0.879086	7.36552e+06	-41089.1	955.819	-29787.5	0.000000	0.000000	6.879074	-0.075516	NaN	0.000000	0.001630	0.001591	28.081	0.103939	0.001959	53.0645	-76.7883	-166.057	-0.025366	0.877733	-0.832996	-0.834349	-0.075516	53.0645	-0.831929	-1.218785E+11	6.196039E-13	NaN
49	1.000000	0.891107	7.36552e+06	-41089.1	955.818	-29787.5	0.000000	0.000000	6.891101	0.054187	NaN	0.000000	0.001634	0.001675	28.1235	0.085728	0.001958	43.7727	176.158	-163.029	0.004151	0.889784	-0.820975	-0.822297	0.054187	43.7727	-0.821903	-8.912871E+10	-6.079581E-13	NaN
49	1.000000	0.903115	7.36553e+06	-41089.1	955.818	-29787.5	0.000000	0.000000	6.903106	-0.006565	NaN	0.000000	0.001627	0.001670	28.08	0.092527	0.001988	46.5333	57.377	-166.048	-0.043558	0.901830	-0.808967	-0.810252	-0.006565	46.5333	-0.808861	-5.930843E+10	1.106867E-13	NaN
49	1.000000	0.915149	7.36553e+06	-41089.1	955.818	-29787.5	0.000000	0.000000	6.915140	-0.017148	NaN	0.000000	0.001659	0.001691	28.1242	0.150515	0.001957	76.926	-24.0426	-166.596	-0.014353	0.913804	-0.796933	-0.798278	-0.017148	76.926	-0.796766	-4.063992E+10	4.219591E-13	NaN
49	1.000000	0.927145	7.36553e+06	-41089.1	955.819	-29787.5	0.000000	0.000000	6.927137	0.039310	NaN	0.000000	0.001682	0.001633	28.0804	0.060400	0.002051	29.4429	141.33	-165.385	0.005956	0.925807	-0.784937	-0.786275	0.039310	29.4429	-0.785939	-2.896785E+10	-1.357021E-12	NaN
49	1.000000	0.939113	7.36553e+06	-41089.1	955.818	-29787.5	0.000000	0.000000	6.939104	-0.014561	NaN	0.000000	0.001649	0.001615	28.1246	0.043667	0.002042	21.3853	157.491	-166.023	0.050976	0.937877	-0.772969	-0.774205	-0.014561	21.3853	-0.772458	-1.899869E+10	7.664331E-13	NaN
49	1.000000	0.951146	7.36553e+06	-41089.1	955.818	-29787.5	0.000000	0.000000	6.951137	-0.012217	NaN	0.000000	0.001673	0.001640	28.0803	0.101148	0.002043	49.5013	-111.165	-167.225	0.043824	0.949847	-0.760936	-0.762234	-0.012217	49.5013	-0.760751	-1.316789E+10	9.277599E-13	NaN
49	1.000000	0.963137	7.36553e+06	-41089.1	955.819	-29787.5	0.000000	0.000000	6.963126	-0.053095	NaN	0.000000	0.001653	0.001585	28.1233	0.080802	0.002052	39.3865	50.1554	-164.713	-0.069369	0.961852	-0.748945	-0.750230	-0.053095	39.3865	-0.747934	-8.812358E+9	6.025031E-12	NaN
49	1.000000	0.975159	7.36553e+06	-41089.1	955.818	-29787.5	0.000000	0.000000	6.975150	0.014459	NaN	0.000000	0.001666	0.001604	28.0801	0.078695	0.001951	40.3386	163.634	-164.627	0.018203	0.973889	-0.736923	-0.738193	0.014459	40.3386	-0.737192	-6.292242E+9	-2.297978E-12	NaN
49	1.000000	0.987143	7.36553e+06	-41089.1	955.819	-29787.5	0.000000	0.000000	6.987134	-0.021927	NaN	0.000000	0.001703	0.001590	28.1236	0.014755	0.001976	7.465910	135.047	-168.221	-0.016630	0.985837	-0.724938	-0.726245	-0.021927	7.465910	-0.722736	-3.997417E+9	5.485387E-12	NaN
49	1.000000	0.999122	7.36553e+06	-41089.1	955.818	-29787.5	0.000000	0.000000	6.999116	0.069470	NaN	0.000000	0.001631	0.001620	28.0779	0.045602	0.002006	22.7298	-145.698	-166.024	0.072077	0.997862	-0.712960	-0.714220	0.069470	22.7298	-0.715252	-3.160167E+9	-2.198312E-11	NaN
49	1.000000	1.011165	7.36553e+06	-41089.1	955.818	-29787.5	0.000000	0.000000	7.011155	-0.028186	NaN	0.000000	0.001661	0.001611	28.1234	0.050079	0.002084	24.0318	-34.4716	-166.593	0.006808	1.009868	-0.700917	-0.702214	-0.028186	24.0318	-0.700037	-1.959029E+9	1.438756E-11	NaN
49	1.000000	1.023150	7.36553e+06	-41089.1	955.818	-29787.5	0.000000	0.000000	7.023141	0.008124	NaN	0.000000	0.001637	0.001610	28.08	0.102107	0.001980	51.5714	-112.651	-166.176	-0.023385	1.021854	-0.688932	-0.690228	0.008124	51.5714	-0.689050	-1.386562E+9	-5.858929E-12	NaN
49	1.000000	1.035176	7.36553e+06	-41089.1	955.818	-29787.5	0.000000	0.000000	7.035167	-0.007082	NaN	0.000000	0.001654	0.001639	28.1234	0.075654	0.001881	40.2168	-114.127	-168.116	0.038524	1.033838	-0.676906	-0.678244	-0.007082	40.2168	-0.676774	-9.420522E+8	7.517144E-12	NaN
49	1.000000	1.047177	7.36553e+06	-41089.1	955.818	-29787.5	0.000000	0.000000	7.047171	0.066104	NaN	0.000000	0.001670	0.001595	28.0786	0.051176	0.002039	25.0986	116.325	-165.671	0.024652	1.045909	-0.664904	-0.666173	0.066104	25.0986	-0.666880	-6.897306E+8	-9.584043E-11	NaN
49	1.000000	1.059189	7.36553e+06	-41089.1	955.82	-29787.5	0.000000	0.000000	7.059178	-0.065702	NaN	0.000000	0.001684	0.001637	28.1222	0.045672	0.001925	23.7257	-147.841	-164.594	-0.013154	1.057852	-0.652892	-0.654230	-0.065702	23.7257	-0.650816	-4.155433E+8	1.581116E-10	NaN
49	1.000000	1.071168	7.36553e+06	-41089.1	955.82	-29787.5	0.000000	0.000000	7.071158	-0.026389	NaN	0.000000	0.001649	0.001641	28.0794	0.151219	0.001988	76.0583	177.576	-165.458	-0.024736	1.069851	-0.640914	-0.642231	-0.026389	76.0583	-0.640653	-3.014766E+8	8.753369E-11	NaN
49	1.000000	1.083188	7.36553e+06	-41089.1	955.818	-29787.5	0.000000	0.000000	7.083177	-0.049789	NaN	0.000000	0.001679	0.001638	28.1225	0.147892	0.001939	76.2745	-134.213	-167.012	-0.007965	1.081864	-0.628893	-0.630218	-0.049789	76.2745	-0.628404	-2.046930E+8	2.432396E-10	NaN
49	1.000000	1.095217	7.36553e+06	-41089.1	955.819	-29787.5	0.000000	0.000000	7.095208	-0.004090	NaN	0.000000	0.001662	0.001617	28.0797	0.057047	0.001963	29.0568	178.736	-167.366	-0.109544	1.093925	-0.616864	-0.618156	-0.004090	29.0568	-0.616759	-1.416037E+8	2.888096E-11	NaN
49	1.000000	1.107199	7.36553e+06	-41089.1	955.819	-29787.5	0.000000	0.000000	7.107186	-0.103768	NaN	0.000000	0.001656	0.001623	28.1224	0.103458	0.002140	48.3479	165.461	-163.782	-0.098033	1.105923	-0.604883	-0.606158	-0.103768	48.3479	-0.603273	-9.237007E+7	1.123394E-9	NaN
49	1.000000	1.119210	7.36553e+06	-41089.1	955.819	-29787.5	0.000000	0.000000	7.119198	-0.066314	NaN	0.000000	0.001665	0.001641	28.08	0.150633	0.002021	74.5204	-144.407	-168.077	-0.027670	1.117933	-0.592872	-0.594148	-0.066314	74.5204	-0.592205	-6.502169E+7	1.019871E-9	NaN
49	1.000000	1.131207	7.36553e+06	-41089.1	955.819	-29787.5	0.000000	0.000000	7.131202	0.092365	NaN	0.000000	0.001706	0.001630	28.123	0.095153	0.002005	47.4625	32.1451	-164.873	0.063181	1.129928	-0.580875	-0.582154	0.092365	47.4625	-0.582335	-4.752747E+7	-1.943398E-9	NaN
49	1.000000	1.143233	7.36553e+06	-41089.1	955.819	-29787.5	0.000000	0.000000	7.143225	0.020244	NaN	0.000000	0.001694	0.001624	28.08	0.065668	0.001974	33.2728	-4.104999	-169.155	-0.017142	1.141894	-0.568848	-0.570188	0.020244	33.2728	-0.569305	-3.140682E+7	-6.445656E-10	NaN
49	1.000000	1.155230	7.36553e+06	-41089.1	955.82	-29787.5	0.000000	0.000000	7.155219	-0.048000	NaN	0.000000	0.001737	0.001642	28.1225	0.056487	0.001992	28.3523	11.2364	-166.52	0.014941	1.153922	-0.556852	-0.558160	-0.048000	28.3523	-0.555582	-2.028850E+7	2.365894E-9	NaN
49	1.000000	1.167238	7.36553e+06	-41089.1	955.818	-29787.5	0.000000	0.000000	7.167229	-0.001455	NaN	0.000000	0.001700	0.001644	28.0811	0.043620	0.002055	21.2242	50.6541	-170.431	-0.031873	1.165925	-0.544844	-0.546156	-0.001455	21.2242	-0.544793	-1.438160E+7	1.011894E-10	NaN
49	1.000000	1.179237	7.36553e+06	-41089.1	955.819	-29787.5	0.000000	0.000000	7.179228	-0.016389	NaN	0.000000	0.001717	0.001635	28.1241	0.105009	0.002042	51.4344	166.169	-168.969	-0.022512	1.177934	-0.532844	-0.534147	-0.016389	51.4344	-0.532605	-9.7443e+06	1.681922E-9	NaN
49	1.000000	1.191213	7.36553e+06	-41089.1	955.819	-29787.5	0.000000	0.000000	7.191200	-0.093471	NaN	0.000000	0.001699	0.001665	28.0808	0.065486	0.002049	31.9679	-155.865	-165.661	-0.021406	1.189990	-0.520869	-0.522092	-0.093471	31.9679	-0.518676	-6.23992e+06	1.497947E-8	NaN
49	1.000000	1.203275	7.36553e+06	-41089.1	955.818	-29787.5	0.000000	0.000000	7.203267	0.003401	NaN	0.000000	0.001758	0.001654	28.1228	0.008132	0.001926	4.223195	-27.4765	-163.842	0.045972	1.201941	-0.508806	-0.510140	0.003401	4.223195	-0.509410	-4.63661e+06	-7.334488E-10	NaN
49	1.000000	1.215248	7.36553e+06	-41089.1	955.819	-29787.5	0.000000	0.000000	7.215240	0.004521	NaN	0.000000	0.001726	0.001678	28.0803	0.034312	0.002034	16.8699	-152.024	-164.273	-0.020814	1.213962	-0.496833	-0.498120	0.004521	16.8699	-0.497034	-3.11626e+06	-1.450801E-9	NaN
49	1.000000	1.227249	7.36553e+06	-41089.1	955.82	-29787.5	0.000000	0.000000	7.227241	0.014846	NaN	0.000000	0.001722	0.001651	28.1228	0.046186	0.002160	21.3779	68.2963	-167.073	0.011426	1.225938	-0.484832	-0.486144	0.014846	21.3779	-0.485353	-2.14007e+06	-6.937102E-9	NaN
49	1.000000	1.239238	7.36553e+06	-41089.1	955.82	-29787.5	0.000000	0.000000	7.239228	-0.044691	NaN	0.000000	0.001709	0.001630	28.0809	0.061954	0.002016	30.7238	-131.341	-169.011	-0.028841	1.237942	-0.472843	-0.474140	-0.044691	30.7238	-0.471753	-1.38033e+06	3.237700E-8	NaN
49	1.000000	1.251257	7.36553e+06	-41089.1	955.819	-29787.5	0.000000	0.000000	7.251246	-0.050833	NaN	0.000000	0.001699	0.001622	28.1236	0.071009	0.001906	37.2618	142.273	-163.667	-0.062146	1.249948	-0.460825	-0.462134	-0.050833	37.2618	-0.459802	-938058	5.418932E-8	NaN
49	1.000000	1.263285	7.36553e+06	-41089.1	955.819	-29787.5	0.000000	0.000000	7.263277	0.038212	NaN	0.000000	0.001729	0.001664	28.0816	0.103114	0.001982	52.0231	-46.0945	-166.647	0.129840	1.261948	-0.448797	-0.450134	0.038212	52.0231	-0.449348	-668590	-5.715321E-8	NaN
49	1.000000	1.275266	7.36553e+06	-41089.1	955.82	-29787.5	0.000000	0.000000	7.275258	0.035755	NaN	0.000000	0.001745	0.001638	28.1223	0.051934	0.002064	25.1595	-50.209	-168.853	-0.043474	1.273987	-0.436816	-0.438095	0.035755	25.1595	-0.437882	-460745	-7.760258E-8	NaN
49	1.000000	1.287271	7.36553e+06	-41089.1	955.819	-29787.5	0.000000	0.000000	7.287261	-0.032449	NaN	0.000000	0.001737	0.001639	28.0799	0.047817	0.002026	23.5984	-69.7064	-167.261	-0.033402	1.285997	-0.424811	-0.426084	-0.032449	23.5984	-0.423780	-291070	1.114808E-7	NaN
49	1.000000	1.299298	7.36553e+06	-41089.1	955.82	-29787.5	0.000000	0.000000	7.299286	-0.079356	NaN	0.000000	0.001730	0.001625	28.1209	0.082502	0.001924	42.8768	24.9853	-164.399	-0.070017	1.297960	-0.412784	-0.414122	-0.079356	42.8768	-0.411396	-194197	4.086383E-7	NaN
49	1.000000	1.311285	7.36553e+06	-41089.1	955.82	-29787.5	0.000000	0.000000	7.311278	0.041720	NaN	0.000000	0.001734	0.001646	28.0793	0.060588	0.002003	30.2442	-40.6393	-163.573	0.040912	1.309978	-0.400797	-0.402104	0.041720	30.2442	-0.401831	-141939	-2.939274E-7	NaN
49	1.000000	1.323266	7.36553e+06	-41089.1	955.82	-29787.5	0.000000	0.000000	7.323255	-0.074857	NaN	0.000000	0.001657	0.001679	28.1225	0.040438	0.001953	20.7103	66.4687	-166.105	-0.133328	1.321949	-0.388815	-0.390133	-0.074857	20.7103	-0.386104	-84607.2	8.847588E-7	NaN
49	1.000000	1.335302	7.36553e+06	-41089.1	955.819	-29787.5	0.000000	0.000000	7.335292	-0.025665	NaN	0.000000	0.001667	0.001625	28.0799	0.096405	0.002004	48.1017	-126.374	-168.298	-0.021144	1.333967	-0.376780	-0.378114	-0.025665	48.1017	-0.376380	-61362.2	4.182539E-7	NaN
49	1.000000	1.347306	7.36553e+06	-41089.1	955.82	-29787.5	0.000000	0.000000	7.347296	-0.032912	NaN	0.000000	0.001671	0.001669	28.1224	0.152543	0.001950	78.2179	57.6489	-171.563	-0.062991	1.346030	-0.364776	-0.366052	-0.032912	78.2179	-0.364460	-41330.3	7.963200E-7	NaN
49	1.000000	1.359310	7.36553e+06	-41089.1	955.82	-29787.5	0.000000	0.000000	7.359300	-0.043592	NaN	0.000000	0.001658	0.001671	28.0797	0.015368	0.001951	7.876270	-7.100335	-165.527	-0.073972	1.357955	-0.352771	-0.354127	-0.043592	7.876270	-0.348620	-24376.5	1.788266E-6	NaN
49	1.000000	1.371295	7.36553e+06	-41089.1	955.819	-29787.5	0.000000	0.000000	7.371287	0.016971	NaN	0.000000	0.001667	0.001658	28.1207	0.063870	0.001948	32.789	120.638	-163.305	0.051684	1.370024	-0.340786	-0.342058	0.016971	32.789	-0.341175	-18996.4	-8.933745E-7	NaN
49	1.000000	1.383311	7.36553e+06	-41089.1	955.819	-29787.5	0.000000	0.000000	7.383302	-0.008629	NaN	0.000000	0.001644	0.001702	28.0789	0.065096	0.001936	33.6295	-107.681	-163.474	-0.002128	1.381978	-0.328771	-0.330104	-0.008629	33.6295	-0.328579	-12434.5	6.939627E-7	NaN
49	1.000000	1.395304	7.36553e+06	-41089.1	955.82	-29787.5	0.000000	0.000000	7.395295	-0.008770	NaN	0.000000	0.001684	0.001710	28.1207	0.074247	0.002021	36.7359	152.402	-166.682	-0.034150	1.394047	-0.316778	-0.318034	-0.008770	36.7359	-0.316599	-8289.55	1.058003E-6	NaN
49	1.000000	1.407319	7.36553e+06	-41089.1	955.819	-29787.5	0.000000	0.000000	7.407314	0.076922	NaN	0.000000	0.001645	0.001705	28.0817	0.034195	0.001956	17.4861	-141.497	-168.549	0.066996	1.405978	-0.304762	-0.306103	0.076922	17.4861	-0.308062	-6199.48	-1.240785E-5	NaN
49	1.000000	1.419341	7.36553e+06	-41089.1	955.82	-29787.5	0.000000	0.000000	7.419334	0.042596	NaN	0.000000	0.001697	0.001738	28.1229	0.076556	0.002055	37.2523	-92.4017	-166.662	0.028664	1.418049	-0.292741	-0.294033	0.042596	37.2523	-0.293598	-3777.01	-1.127769E-5	NaN
49	1.000000	1.431321	7.36553e+06	-41089.1	955.82	-29787.5	0.000000	0.000000	7.431314	0.027259	NaN	0.000000	0.001647	0.001719	28.0799	0.051003	0.001977	25.8002	-41.1	-166.675	0.004620	1.430010	-0.280760	-0.282072	0.027259	25.8002	-0.281553	-2491.06	-1.094267E-5	NaN
49	1.000000	1.443355	7.36553e+06	-41089.1	955.82	-29787.5	0.000000	0.000000	7.443345	-0.033457	NaN	0.000000	0.001720	0.001705	28.1219	0.016727	0.001922	8.702703	-86.6283	-165.335	0.033301	1.442109	-0.268727	-0.269972	-0.033457	8.702703	-0.265843	-1439.64	2.323994E-5	NaN
49	1.000000	1.455349	7.36553e+06	-41089.1	955.82	-29787.5	0.000000	0.000000	7.455341	0.013041	NaN	0.000000	0.001706	0.001752	28.0805	0.044090	0.002034	21.6769	128.039	-164.16	-0.089402	1.454060	-0.256733	-0.258022	0.013041	21.6769	-0.257184	-1060.97	-1.229162E-5	NaN
49	1.000000	1.467372	7.36553e+06	-41089.1	955.82	-29787.5	0.000000	0.000000	7.467360	-0.067447	NaN	0.000000	0.001650	0.001740	28.1221	0.063150	0.002055	30.7246	31.2695	-169.096	0.032859	1.466042	-0.244710	-0.246040	-0.067447	30.7246	-0.243063	-641.693	0.000105	NaN
49	1.000000	1.479347	7.36553e+06	-41089.1	955.82	-29787.5	0.000000	0.000000	7.479336	-0.064237	NaN	0.000000	0.001700	0.001734	28.0801	0.142273	0.002036	69.8635	-62.4124	-164.872	-0.012322	1.478021	-0.232734	-0.234061	-0.064237	69.8635	-0.232045	-431.29	0.000149	NaN
49	1.000000	1.491370	7.36553e+06	-41089.1	955.82	-29787.5	0.000000	0.000000	7.491362	0.009299	NaN	0.000000	0.001658	0.001693	28.1226	0.015124	0.001958	7.723044	-121.498	-166.761	0.014527	1.490089	-0.220711	-0.221993	0.009299	7.723044	-0.221615	-294.749	-3.154945E-5	NaN
49	1.000000	1.503394	7.36553e+06	-41089.1	955.82	-29787.5	0.000000	0.000000	7.503384	-0.010935	NaN	0.000000	0.001658	0.001700	28.0813	0.098950	0.001986	49.812	89.0964	-167.029	-0.034610	1.502031	-0.208688	-0.210051	-0.010935	49.812	-0.208524	-181.503	6.024871E-5	NaN
49	1.000000	1.515381	7.36553e+06	-41089.1	955.82	-29787.5	0.000000	0.000000	7.515368	-0.091907	NaN	0.000000	0.001687	0.001744	28.1223	0.057132	0.002008	28.4583	-86.8223	-168.846	-0.097108	1.514113	-0.196701	-0.197969	-0.091907	28.4583	-0.194279	-105.986	0.000867	NaN
49	1.000000	1.527369	7.36553e+06	-41089.1	955.82	-29787.5	0.000000	0.000000	7.527359	-0.040866	NaN	0.000000	0.001648	0.001720	28.0813	0.020482	0.001932	10.6023	147.521	-165.698	-0.094007	1.526084	-0.184713	-0.185997	-0.040866	10.6023	-0.181822	-65.5251	0.000624	NaN
49	1.000000	1.539382	7.36553e+06	-41089.1	955.82	-29787.5	0.000000	0.000000	7.539374	0.010833	NaN	0.000000	0.001653	0.001733	28.1206	0.064952	0.002000	32.4817	-23.8225	-164.45	-0.052430	1.538055	-0.172699	-0.174027	0.010833	32.4817	-0.172950	-46.2031	-0.000234	NaN
49	1.000000	1.551379	7.36553e+06	-41089.1	955.821	-29787.5	0.000000	0.000000	7.551367	-0.091700	NaN	0.000000	0.001646	0.001695	28.0793	0.108310	0.002049	52.8651	38.7983	-169.464	-0.045947	1.550130	-0.160703	-0.161952	-0.091700	52.8651	-0.159402	-26.7513	0.003428	NaN
49	1.000000	1.563400	7.36553e+06	-41089.1	955.82	-29787.5	0.000000	0.000000	7.563390	-0.036139	NaN	0.000000	0.001626	0.001683	28.1211	0.013271	0.001883	7.047293	-51.2565	-165.783	-0.002158	1.562083	-0.148682	-0.149999	-0.036139	7.047293	-0.144836	-14.5589	0.002482	NaN
49	1.000000	1.575410	7.36553e+06	-41089.1	955.82	-29787.5	0.000000	0.000000	7.575399	-0.055232	NaN	0.000000	0.001673	0.001683	28.0806	0.101669	0.001945	52.2697	63.9863	-164.181	-0.053115	1.574068	-0.136671	-0.138014	-0.055232	52.2697	-0.135879	-9.886565	0.005587	NaN
49	1.000000	1.587411	7.36553e+06	-41089.1	955.82	-29787.5	0.000000	0.000000	7.587404	0.024672	NaN	0.000000	0.001645	0.001667	28.1206	0.089808	0.001992	45.0886	-76.2363	-166.531	0.073133	1.586100	-0.124670	-0.125982	0.024672	45.0886	-0.125081	-6.103707	-0.004042	NaN
49	1.000000	1.599450	7.36553e+06	-41089.1	955.82	-29787.5	0.000000	0.000000	7.599440	-0.036298	NaN	0.000000	0.001654	0.001693	28.0797	0.073093	0.001939	37.6969	-1.372001	-164.517	-0.007413	1.598129	-0.112632	-0.113953	-0.036298	37.6969	-0.111910	-3.295829	0.011013	NaN
49	1.000000	1.611440	7.36553e+06	-41089.1	955.821	-29787.5	0.000000	0.000000	7.611432	0.012554	NaN	0.000000	0.001643	0.001669	28.1207	0.085402	0.002044	41.7794	159.305	-166.29	-0.050969	1.610175	-0.100641	-0.101906	0.012554	41.7794	-0.100867	-1.909598	-0.006574	NaN
49	1.000000	1.623435	7.36553e+06	-41089.1	955.82	-29787.5	0.000000	0.000000	7.623427	0.010578	NaN	0.000000	0.001629	0.001693	28.0804	0.108048	0.001968	54.898	-178.272	-167.73	0.004560	1.622213	-0.088647	-0.089869	0.010578	54.898	-0.088791	-1.012393	-0.010449	NaN
49	1.000000	1.635423	7.36553e+06	-41089.1	955.821	-29787.5	0.000000	0.000000	7.635412	-0.049602	NaN	0.000000	0.001663	0.001686	28.1207	0.201512	0.002062	97.7216	142.973	-171.015	-0.063979	1.634089	-0.076659	-0.077992	-0.049602	97.7216	-0.076278	-0.498252	0.099552	NaN
49	1.000000	1.647445	7.36553e+06	-41089.1	955.821	-29787.5	0.000000	0.000000	7.647436	-0.020875	NaN	0.000000	0.001694	0.001673	28.0801	0.079799	0.001965	40.6025	-83.1077	-168.038	-0.010665	1.646123	-0.064636	-0.065959	-0.020875	40.6025	-0.064251	-0.237542	0.087878	NaN
49	1.000000	1.659465	7.36553e+06	-41089.1	955.82	-29787.5	0.000000	0.000000	7.659459	0.047594	NaN	0.000000	0.001647	0.001645	28.1204	0.054855	0.002028	27.0481	18.8494	-167.156	0.071124	1.658132	-0.052616	-0.053950	0.047594	27.0481	-0.053936	-0.119757	-0.397421	NaN
49	1.000000	1.671453	7.36553e+06	-41089.1	955.821	-29787.5	0.000000	0.000000	7.671443	-0.035582	NaN	0.000000	0.001623	0.001654	28.0809	0.035407	0.001958	18.083	163.146	-167.148	-0.061561	1.670083	-0.040629	-0.041999	-0.035582	18.083	-0.039153	-0.042625	0.834777	NaN
49	1.000000	1.683477	7.36553e+06	-41089.1	955.821	-29787.5	0.000000	0.000000	7.683466	-0.038810	NaN	0.000000	0.001648	0.001689	28.1209	0.105459	0.002051	51.4069	-26.359	-166.739	0.011501	1.682126	-0.028605	-0.029956	-0.038810	51.4069	-0.028039	-0.020325	1.909523	NaN
49	1.000000	1.695457	7.36553e+06	-41089.1	955.82	-29787.5	0.000000	0.000000	7.695448	0.005267	NaN	0.000000	0.001653	0.001667	28.0807	0.097201	0.001991	48.8275	21.1174	-167.106	0.014671	1.694145	-0.016625	-0.017937	0.005267	48.8275	-0.016706	-0.010323	-0.510172	NaN
49	1.000000	1.707475	7.36553e+06	-41089.1	955.822	-29787.5	0.000000	0.000000	7.707477	0.271076	NaN	0.000000	0.001665	0.001686	28.1206	0.442371	0.002151	205.689	10.152	-164.953	0.116590	1.706156	-0.004607	-0.005925	0.271076	205.689	-0.005595	-0.003788	-71.5683	NaN
49	1.000000	1.719435	7.36553e+06	-41089.1	955.821	-29787.5	0.000000	0.000000	7.719689	6.373891	NaN	0.000000	0.001697	0.001658	28.0808	5.752161	0.001802	3192.2	10.4221	-174.1	4.552612	1.718134	0.007354	0.006052	6.373891	3192.2	0.005856	0.004928	1293.29	41544.2
49	2.000000	1.724074	7.36553e+06	-41089.1	955.821	-29787.5	0.000000	0.000000	7.724480	10.0877	NaN	0.000000	0.001712	0.001729	28.1227	9.359079	0.001641	5703.03	4.841321	-172.529	9.311591	1.723749	0.011992	0.011667	10.0877	5703.03	0.010666	0.009931	1015.82	52286.7
49	2.000000	1.727083	7.36553e+06	-41089.1	955.821	-29787.5	0.000000	0.000000	7.727653	14.0917	NaN	0.000000	0.001714	0.001762	28.0828	12.359	0.001710	7227.19	7.811794	-175.772	13.8628	1.726791	0.015001	0.014709	14.0917	7227.19	0.013539	0.013386	1052.71	57071.1
49	2.000000	1.730043	7.36553e+06	-41089.1	955.821	-29787.5	0.000000	0.000000	7.730897	20.9815	NaN	0.000000	0.001732	0.001709	28.1214	15.9815	0.001797	8891.21	9.634396	179.925	21.0498	1.729691	0.017962	0.017610	20.9815	8891.21	0.016192	0.016908	1240.95	62473.1
49	2.000000	1.733055	7.36553e+06	-41089.1	955.821	-29787.5	0.000000	0.000000	7.734062	24.6993	NaN	0.000000	0.001683	0.001699	28.0827	18.5751	0.001703	10905.4	5.948124	-178.095	25.7611	1.732783	0.020974	0.020701	24.6993	10905.4	0.019275	0.021416	1153.32	68084.2
49	2.000000	1.736006	7.36553e+06	-41089.1	955.821	-29787.5	0.000000	0.000000	7.737273	31.0405	NaN	0.000000	0.001699	0.001689	28.1202	21.7284	0.001810	12007.8	4.004256	-177.215	29.3945	1.735732	0.023925	0.023651	31.0405	12007.8	0.021986	0.025759	1205.01	68354.8
49	2.000000	1.738961	7.36553e+06	-41089.1	955.822	-29787.5	0.000000	0.000000	7.740458	36.6529	NaN	0.000000	0.001654	0.001710	28.0806	24.3807	0.001696	14376.6	6.134389	179.896	34.7791	1.738698	0.026879	0.026616	36.6529	14376.6	0.024967	0.030956	1184.04	74654.9
49	2.000000	1.742019	7.36553e+06	-41089.1	955.822	-29787.5	0.000000	0.000000	7.743847	44.6953	NaN	0.000000	0.001647	0.001668	28.1218	28.1906	0.001732	16274.4	5.693868	179.14	44.2392	1.741644	0.029937	0.029563	44.6953	16274.4	0.027877	0.036459	1225.92	77871.4
49	2.000000	1.745008	7.36553e+06	-41089.1	955.821	-29787.5	0.000000	0.000000	7.747282	55.5415	NaN	0.000000	0.001727	0.001681	28.0817	30.6575	0.001728	17742.6	4.160809	179.024	55.3553	1.744671	0.032926	0.032589	55.5415	17742.6	0.030578	0.041951	1323.97	79144.4
49	2.000000	1.747989	7.36553e+06	-41089.1	955.821	-29787.5	0.000000	0.000000	7.750602	63.8	NaN	0.000000	0.001704	0.001662	28.1214	32.7307	0.001693	19333.2	4.030427	178.445	61.7825	1.747692	0.035908	0.035610	63.8	19333.2	0.033432	0.048159	1324.78	80489.1
49	2.000000	1.750990	7.36553e+06	-41089.1	955.821	-29787.5	0.000000	0.000000	7.754012	73.7617	NaN	0.000000	0.001717	0.001684	28.0815	35.7433	0.001694	21096	8.821021	172.403	73.1189	1.750663	0.038908	0.038581	73.7617	21096	0.036286	0.054782	1346.46	82348.2
49	2.000000	1.753972	7.36553e+06	-41089.1	955.821	-29787.5	0.000000	0.000000	7.757335	82.0294	NaN	0.000000	0.001754	0.001655	28.1189	37.7136	0.001707	22090.6	5.101085	177.097	81.1536	1.753574	0.041891	0.041493	82.0294	22090.6	0.039106	0.061738	1328.68	81228
49	2.000000	1.756965	7.36553e+06	-41089.1	955.821	-29787.5	0.000000	0.000000	7.760837	94.4354	NaN	0.000000	0.001735	0.001675	28.0806	40.3775	0.001809	22322	3.266192	179.034	91.8879	1.756670	0.044883	0.044588	94.4354	22322	0.041711	0.068524	1378.14	77908.7
49	2.000000	1.759933	7.36553e+06	-41089.1	955.821	-29787.5	0.000000	0.000000	7.764324	107.058	NaN	0.000000	0.001712	0.001693	28.1195	43.7124	0.001929	22655	3.779889	178.39	103.814	1.759523	0.047852	0.047442	107.058	22655	0.044307	0.075633	1415.49	75262.9
49	2.000000	1.762955	7.36553e+06	-41089.1	955.821	-29787.5	0.000000	0.000000	7.767669	114.922	NaN	0.000000	0.001755	0.001642	28.0811	46.1976	0.001728	26731.7	4.827428	175.399	114.708	1.762625	0.050874	0.050543	114.922	26731.7	0.047649	0.085286	1347.49	83629.9
49	2.000000	1.765888	7.36553e+06	-41089.1	955.822	-29787.5	0.000000	0.000000	7.770990	124.368	NaN	0.000000	0.001733	0.001695	28.1199	50.404	0.001828	27580.1	8.339438	171.878	121.754	1.765542	0.053806	0.053461	124.368	27580.1	0.050424	0.093728	1326.91	82306.6
49	2.000000	1.768941	7.36553e+06	-41089.1	955.822	-29787.5	0.000000	0.000000	7.774497	135.401	NaN	0.000000	0.001719	0.001706	28.0813	52.9422	0.001863	28424.2	6.737084	173.543	133.879	1.768618	0.056860	0.056536	135.401	28424.2	0.053287	0.102843	1316.59	80979.3
49	2.000000	1.771900	7.36553e+06	-41089.1	955.822	-29787.5	0.000000	0.000000	7.777951	147.466	NaN	0.000000	0.001719	0.001704	28.1188	54.5604	0.001705	32004.5	6.047504	172.868	144.681	1.771638	0.059818	0.059556	147.466	32004.5	0.056362	0.113087	1304	86951.7
49	2.000000	1.775058	7.36553e+06	-41089.1	955.822	-29787.5	0.000000	0.000000	7.781682	161.398	NaN	0.000000	0.001700	0.001671	28.0797	57.6209	0.001865	30896	2.114471	177.403	166.365	1.774715	0.062976	0.062634	161.398	30896	0.059058	0.122454	1318.03	80665.7
49	2.000000	1.777968	7.36553e+06	-41089.1	955.821	-29787.5	0.000000	0.000000	7.785113	174.063	NaN	0.000000	0.001738	0.001693	28.1189	59.898	0.001863	32156.2	7.327633	171.549	173.741	1.777590	0.065886	0.065508	174.063	32156.2	0.061827	0.132439	1314.29	80728.8
49	2.000000	1.780924	7.36553e+06	-41089.1	955.821	-29787.5	0.000000	0.000000	7.788721	189.938	NaN	0.000000	0.001743	0.001667	28.0814	60.2475	0.001692	35614.6	1.488625	176.549	189.258	1.780617	0.068843	0.068535	189.938	35614.6	0.064843	0.143744	1321.36	85823.5
49	2.000000	1.783991	7.36553e+06	-41089.1	955.822	-29787.5	0.000000	0.000000	7.792163	199.047	NaN	0.000000	0.001725	0.001690	28.1204	63.4817	0.001721	36888.5	3.317213	173.633	201.322	1.783654	0.071909	0.071573	199.047	36888.5	0.067862	0.155502	1280.03	85466.6
49	2.000000	1.786961	7.36553e+06	-41089.1	955.823	-29787.5	0.000000	0.000000	7.795937	218.61	NaN	0.000000	0.001741	0.001673	28.0818	66.2468	0.001733	38236.6	4.363916	172.611	218.887	1.786659	0.074879	0.074578	218.61	38236.6	0.070591	0.166502	1312.95	85613.6
49	2.000000	1.789862	7.36553e+06	-41089.1	955.822	-29787.5	0.000000	0.000000	7.799657	238.561	NaN	0.000000	0.001725	0.001644	28.1204	68.7469	0.001773	38778.6	4.593634	172.348	233.872	1.789639	0.077780	0.077557	238.561	38778.6	0.073166	0.177205	1346.25	84164.3
49	2.000000	1.792887	7.36553e+06	-41089.1	955.822	-29787.5	0.000000	0.000000	7.803374	255.393	NaN	0.000000	0.001717	0.001672	28.0809	71.8381	0.001860	38619.2	2.283733	175.553	251.645	1.792491	0.080805	0.080409	255.393	38619.2	0.075845	0.188674	1353.62	81230.7
49	2.000000	1.795910	7.36553e+06	-41089.1	955.822	-29787.5	0.000000	0.000000	7.807109	272.714	NaN	0.000000	0.001720	0.001647	28.1205	75.4608	0.001840	41004.1	3.804816	172.81	270.689	1.795587	0.083828	0.083506	272.714	41004.1	0.078840	0.201895	1350.77	83375.4
49	2.000000	1.798909	7.36553e+06	-41089.1	955.822	-29787.5	0.000000	0.000000	7.810830	290.294	NaN	0.000000	0.001707	0.001702	28.0818	79.3515	0.001874	42344.6	2.747933	174.492	289.028	1.798511	0.086827	0.086429	290.294	42344.6	0.081685	0.214843	1351.19	83466.1
49	2.000000	1.801943	7.36553e+06	-41089.1	955.822	-29787.5	0.000000	0.000000	7.814724	311.228	NaN	0.000000	0.001700	0.001718	28.1209	81.9224	0.001806	45359.2	1.721514	174.793	313.188	1.801568	0.089861	0.089487	311.228	45359.2	0.084715	0.229043	1358.82	86592.5
49	2.000000	1.804949	7.36553e+06	-41089.1	955.822	-29787.5	0.000000	0.000000	7.818762	336.309	NaN	0.000000	0.001709	0.001711	28.0819	85.0305	0.001758	48375.9	3.864400	172.169	336.48	1.804533	0.092867	0.092452	336.309	48375.9	0.087653	0.243221	1382.73	89619.2
49	2.000000	1.807940	7.36553e+06	-41089.1	955.822	-29787.5	0.000000	0.000000	7.822659	358.36	NaN	0.000000	0.001706	0.001656	28.1202	86.7053	0.001794	48318.5	1.641355	174.434	359.547	1.807637	0.095859	0.095556	358.36	48318.5	0.090296	0.256312	1398.14	87197
49	2.000000	1.810995	7.36553e+06	-41089.1	955.822	-29787.5	0.000000	0.000000	7.826432	375.853	NaN	0.000000	0.001684	0.001701	28.0829	88.5628	0.001796	49299.2	0.928606	175.014	379.114	1.810675	0.098913	0.098594	375.853	49299.2	0.093195	0.271039	1386.71	86516.1
49	2.000000	1.813986	7.36553e+06	-41089.1	955.823	-29787.5	0.000000	0.000000	7.830306	397.311	NaN	0.000000	0.001685	0.001682	28.1175	92.1635	0.001787	51573.5	3.550538	171.913	400.641	1.813652	0.101904	0.101570	397.311	51573.5	0.096127	0.286324	1387.63	88058.4
49	2.000000	1.816886	7.36553e+06	-41089.1	955.822	-29787.5	0.000000	0.000000	7.834391	426.172	NaN	0.000000	0.001700	0.001667	28.0802	94.8459	0.001734	54694.8	7.156133	168.324	425.113	1.816489	0.104804	0.104408	426.172	54694.8	0.098960	0.301469	1413.65	91011.9
49	2.000000	1.819901	7.36553e+06	-41089.1	955.822	-29787.5	0.000000	0.000000	7.838258	446.892	NaN	0.000000	0.001639	0.001657	28.1173	98.7509	0.001733	56977.6	4.983123	170.046	445.518	1.819516	0.107819	0.107434	446.892	56977.6	0.101937	0.317773	1406.32	92346.1
49	2.000000	1.820440	7.36553e+06	-41089.1	955.822	-29787.5	0.000000	0.000000	7.838817	447.362	NaN	0.000000	0.001637	0.001632	28.1165	97.7983	0.001631	59977.7	2.751679	-8.450085	446.456	1.820091	0.108359	0.108009	447.362	59977.7	0.102764	0.322378	1387.7	96511.8