File: remote_trans/data/nanoindenter/0828-1/data/Data_2025-08-06,11h17m57s/2025-07-22_16-23-58_1_1143.txt
2025-07-22, 16:23:58, 1
Index	Phase	Displacement	Time	Pos X	Pos Y	Pos Z	Rot A	Rot B	Piezo Z	Force A	Force B	Gripper	Voltage A	Voltage B	Temperature	Amplitude force	Amplitude pos	Stiffness	Phase shift	Phase excitation	Force A raw	Displacement raw	HMax	HMax raw	Real Force	Real Stiffness	Contact Depth	Area	Hardness	Reduced Mod.
[#]	[#]	[um]	[s]	[um]	[um]	[um]	[m°]	[m°]	[um]	[uN]	[uN]	[V]	[V]	[V]	[°C]	[uN]	[um]	[N/m]	[°]	[°]	[uN]	[um]	[um]	[um]	[uN]	[N/m]	[um]	[um^2]	[MPa]	[MPa]
1143	1.000000	0.002131	7.37624e+06	-57289.1	1055.82	-29737.2	0.000000	0.000000	6.002813	-0.013599	NaN	0.000000	0.001604	0.001712	28.0821	0.005597	0.001023	5.473754	99.7188	-163.863	-0.018222	0.000846	-0.998481	-0.999766	-0.013599	5.473754	-0.996618	-2.042807E+13	6.657005E-16	NaN
1143	1.000000	0.010086	7.37624e+06	-57289.1	1055.82	-29737.2	0.000000	0.000000	6.010767	-0.040221	NaN	0.000000	0.001641	0.001753	28.0819	0.088392	0.000919	96.1729	-81.5579	-165.935	0.020050	0.008735	-0.990525	-0.991876	-0.040221	96.1729	-0.990212	-1.674796E+13	2.401542E-15	NaN
1143	1.000000	0.018075	7.37624e+06	-57289.1	1055.82	-29737.2	0.000000	0.000000	6.018759	0.024654	NaN	0.000000	0.001614	0.001718	28.0817	0.089791	0.001622	55.3636	77.9416	-168.311	-0.006105	0.016771	-0.982537	-0.983841	0.024654	55.3636	-0.982871	-1.333783E+13	-1.848436E-15	NaN
1143	1.000000	0.026108	7.37624e+06	-57289.1	1055.82	-29737.2	0.000000	0.000000	6.026788	-0.063416	NaN	0.000000	0.001638	0.001735	28.0818	0.027004	0.001740	15.5155	-110.038	-166.628	-0.056052	0.024775	-0.974504	-0.975836	-0.063416	15.5155	-0.971438	-9.354994E+12	6.778825E-15	NaN
1143	1.000000	0.034080	7.37624e+06	-57289.1	1055.82	-29737.2	0.000000	0.000000	6.034761	-0.043469	NaN	0.000000	0.001614	0.001725	28.0817	0.090585	0.002008	45.1129	-74.5936	-166.417	-0.056043	0.032748	-0.966532	-0.967863	-0.043469	45.1129	-0.965809	-7.855586E+12	5.533510E-15	NaN
1143	1.000000	0.042088	7.37624e+06	-57289.1	1055.82	-29737.2	0.000000	0.000000	6.042771	-0.002397	NaN	0.000000	0.001644	0.001745	28.0821	0.063615	0.001988	32.0068	74.0576	-164.682	-0.035541	0.040792	-0.958523	-0.959819	-0.002397	32.0068	-0.958467	-6.254644E+12	3.832628E-16	NaN
1143	1.000000	0.050032	7.37624e+06	-57289.1	1055.82	-29737.2	0.000000	0.000000	6.050716	0.031346	NaN	0.000000	0.001644	0.001707	28.0819	0.026070	0.002051	12.7127	-19.9406	-165.614	0.067000	0.048766	-0.950579	-0.951845	0.031346	12.7127	-0.952429	-5.185355E+12	-6.045153E-15	NaN
1143	1.000000	0.058060	7.37624e+06	-57289.1	1055.82	-29737.2	0.000000	0.000000	6.058740	-0.059028	NaN	0.000000	0.001642	0.001746	28.0818	0.091221	0.001962	46.5009	-111.995	-169.125	-0.058541	0.056758	-0.942552	-0.943854	-0.059028	46.5009	-0.941600	-3.704434E+12	1.593437E-14	NaN
1143	1.000000	0.066047	7.37624e+06	-57289.1	1055.82	-29737.2	0.000000	0.000000	6.066726	-0.107132	NaN	0.000000	0.001621	0.001756	28.0817	0.090973	0.001961	46.394	0.374589	-166.608	-0.093388	0.064792	-0.934564	-0.935820	-0.107132	46.394	-0.932832	-2.821133E+12	3.797474E-14	NaN
1143	1.000000	0.074063	7.37624e+06	-57289.1	1055.82	-29737.2	0.000000	0.000000	6.074743	-0.060974	NaN	0.000000	0.001626	0.001740	28.0818	0.078160	0.002072	37.7153	-42.2053	-162.296	-0.056447	0.072831	-0.926548	-0.927781	-0.060974	37.7153	-0.925336	-2.234823E+12	2.728380E-14	NaN
1143	1.000000	0.082067	7.37624e+06	-57289.1	1055.82	-29737.2	0.000000	0.000000	6.082746	-0.088218	NaN	0.000000	0.001610	0.001744	28.082	0.059173	0.002016	29.3478	-35.8886	-168.179	-0.023193	0.080733	-0.918545	-0.919879	-0.088218	29.3478	-0.916290	-1.687007E+12	5.229266E-14	NaN
1143	1.000000	0.090072	7.37624e+06	-57289.1	1055.82	-29737.2	0.000000	0.000000	6.090757	0.051280	NaN	0.000000	0.001586	0.001699	28.0818	0.063966	0.002013	31.7694	-96.3391	-168.719	-0.002673	0.088737	-0.910540	-0.911875	0.051280	31.7694	-0.911750	-1.464884E+12	-3.500603E-14	NaN
1143	1.000000	0.098079	7.37624e+06	-57289.1	1055.82	-29737.2	0.000000	0.000000	6.098759	-0.068929	NaN	0.000000	0.001540	0.001739	28.0817	0.078398	0.001895	41.3615	-129.111	-170.269	0.035474	0.096788	-0.902532	-0.903823	-0.068929	41.3615	-0.901282	-1.057779E+12	6.516379E-14	NaN
1143	1.000000	0.106063	7.37624e+06	-57289.1	1055.82	-29737.2	0.000000	0.000000	6.106745	-0.024811	NaN	0.000000	0.001609	0.001718	28.0819	0.047358	0.002041	23.2076	-79.917	-164.178	-0.066586	0.104779	-0.894548	-0.895832	-0.024811	23.2076	-0.893746	-8.366674E+11	2.965489E-14	NaN
1143	1.000000	0.114082	7.37624e+06	-57289.1	1055.82	-29737.2	0.000000	0.000000	6.114765	0.014056	NaN	0.000000	0.001580	0.001752	28.0817	0.097611	0.001987	49.1181	-82.4518	-164.667	-0.009894	0.112761	-0.886530	-0.887850	0.014056	49.1181	-0.886745	-6.728307E+11	-2.089139E-14	NaN
1143	1.000000	0.122141	7.37624e+06	-57289.1	1055.82	-29737.2	0.000000	0.000000	6.122824	0.016043	NaN	0.000000	0.001594	0.001663	28.0817	0.072006	0.001882	38.2564	-26.3039	-165.627	-0.005423	0.120715	-0.878471	-0.879896	0.016043	38.2564	-0.878785	-5.251495E+11	-3.054950E-14	NaN
1143	1.000000	0.130094	7.37624e+06	-57289.1	1055.82	-29737.2	0.000000	0.000000	6.130776	-0.010874	NaN	0.000000	0.001575	0.001720	28.0805	0.052249	0.001987	26.2992	7.383355	-166.348	0.038351	0.128824	-0.870518	-0.871788	-0.010874	26.2992	-0.870208	-4.020245E+11	2.704720E-14	NaN
1143	1.000000	0.138086	7.37624e+06	-57289.1	1055.82	-29737.2	0.000000	0.000000	6.138762	-0.154303	NaN	0.000000	0.001616	0.001769	28.0807	0.109102	0.001997	54.622	85.3519	-166.169	-0.060167	0.136859	-0.862526	-0.863752	-0.154303	54.622	-0.860407	-2.962298E+11	5.208879E-13	NaN
1143	1.000000	0.146103	7.37624e+06	-57289.1	1055.82	-29737.2	0.000000	0.000000	6.146784	-0.033422	NaN	0.000000	0.001666	0.001728	28.0808	0.069382	0.001947	35.6321	66.5229	-165.04	-0.065612	0.144810	-0.854509	-0.855801	-0.033422	35.6321	-0.853805	-2.411357E+11	1.386019E-13	NaN
1143	1.000000	0.154103	7.37624e+06	-57289.1	1055.82	-29737.2	0.000000	0.000000	6.154782	-0.084891	NaN	0.000000	0.001573	0.001712	28.0806	0.071556	0.001963	36.4539	113.399	-169.759	-0.110347	0.152795	-0.846509	-0.847817	-0.084891	36.4539	-0.844762	-1.818886E+11	4.667190E-13	NaN
1143	1.000000	0.162100	7.37624e+06	-57289.1	1055.82	-29737.2	0.000000	0.000000	6.162781	-0.027092	NaN	0.000000	0.001582	0.001713	28.0805	0.195832	0.001988	98.5153	-95.5369	-169.26	-0.105371	0.160757	-0.838512	-0.839855	-0.027092	98.5153	-0.838306	-1.487092E+11	1.821830E-13	NaN
1143	1.000000	0.170100	7.37624e+06	-57289.1	1055.82	-29737.2	0.000000	0.000000	6.170781	-0.051014	NaN	0.000000	0.001543	0.001751	28.0805	0.088503	0.002039	43.4147	-57.0847	-167.834	0.005219	0.168791	-0.830511	-0.831820	-0.051014	43.4147	-0.829630	-1.134405E+11	4.497022E-13	NaN
1143	1.000000	0.178110	7.37624e+06	-57289.1	1055.82	-29737.2	0.000000	0.000000	6.178791	-0.037222	NaN	0.000000	0.001605	0.001740	28.0808	0.033578	0.002077	16.168	22.6742	-166.393	-0.048190	0.176776	-0.822501	-0.823836	-0.037222	16.168	-0.820775	-8.604347E+10	4.325988E-13	NaN
1143	1.000000	0.186158	7.37624e+06	-57289.1	1055.82	-29737.2	0.000000	0.000000	6.186843	0.043798	NaN	0.000000	0.001581	0.001730	28.0806	0.059455	0.001885	31.5461	102.637	-167.834	0.069579	0.184816	-0.814453	-0.815795	0.043798	31.5461	-0.815495	-7.296413E+10	-6.002707E-13	NaN
1143	1.000000	0.194125	7.37624e+06	-57289.1	1055.82	-29737.2	0.000000	0.000000	6.194809	0.022027	NaN	0.000000	0.001581	0.001745	28.0809	0.036822	0.002048	17.9781	-127.464	-170.343	-0.008562	0.192886	-0.806486	-0.807725	0.022027	17.9781	-0.807405	-5.667143E+10	-3.886737E-13	NaN
1143	1.000000	0.202117	7.37624e+06	-57289.1	1055.82	-29737.2	0.000000	0.000000	6.202799	-0.009083	NaN	0.000000	0.001592	0.001702	28.0806	0.045047	0.001947	23.1322	107.389	-168.319	-0.016308	0.200814	-0.798495	-0.799798	-0.009083	23.1322	-0.798200	-4.250440E+10	2.137055E-13	NaN
1143	1.000000	0.210128	7.37624e+06	-57289.1	1055.82	-29737.2	0.000000	0.000000	6.210808	-0.058671	NaN	0.000000	0.001599	0.001723	28.0805	0.117752	0.001955	60.2177	-161.268	-166.916	-0.058656	0.208847	-0.790483	-0.791764	-0.058671	60.2177	-0.789753	-3.263807E+10	1.797630E-12	NaN
1143	1.000000	0.218142	7.37624e+06	-57289.1	1055.82	-29737.2	0.000000	0.000000	6.218824	0.000954	NaN	0.000000	0.001578	0.001725	28.0804	0.040590	0.001917	21.1706	75.0187	-165.19	-0.020428	0.216828	-0.782470	-0.783783	0.000954	21.1706	-0.782504	-2.601682E+10	-3.666411E-14	NaN
1143	1.000000	0.226160	7.37624e+06	-57289.1	1055.82	-29737.2	0.000000	0.000000	6.226843	0.007890	NaN	0.000000	0.001572	0.001740	28.0806	0.038768	0.002096	18.499	104.605	-166.366	-0.003250	0.224831	-0.774451	-0.775781	0.007890	18.499	-0.774771	-2.042532E+10	-3.862982E-13	NaN
1143	1.000000	0.234155	7.37624e+06	-57289.1	1055.82	-29737.2	0.000000	0.000000	6.234838	0.002255	NaN	0.000000	0.001585	0.001741	28.0805	0.026246	0.002129	12.3259	87.9868	-166.934	0.015735	0.232787	-0.766456	-0.767825	0.002255	12.3259	-0.766593	-1.581184E+10	-1.426379E-13	NaN
1143	1.000000	0.242163	7.37624e+06	-57289.1	1055.82	-29737.2	0.000000	0.000000	6.242845	-0.012149	NaN	0.000000	0.001585	0.001734	28.0803	0.089313	0.001911	46.7363	-31.794	-167.6	-0.074243	0.240891	-0.758449	-0.759721	-0.012149	46.7363	-0.758254	-1.217716E+10	9.976651E-13	NaN
1143	1.000000	0.250153	7.37624e+06	-57289.1	1055.82	-29737.2	0.000000	0.000000	6.250834	-0.036226	NaN	0.000000	0.001532	0.001689	28.0803	0.048578	0.001927	25.2098	-157.584	-166.522	-0.023849	0.248807	-0.750459	-0.751804	-0.036226	25.2098	-0.749381	-9.221362E+9	3.928533E-12	NaN
1143	1.000000	0.258136	7.37624e+06	-57289.1	1055.82	-29737.2	0.000000	0.000000	6.258817	-0.041682	NaN	0.000000	0.001577	0.001710	28.0804	0.042677	0.001918	22.2506	36.5819	-165.076	-0.008343	0.256873	-0.742475	-0.743739	-0.041682	22.2506	-0.741070	-7.106177E+9	5.865664E-12	NaN
1143	1.000000	0.266128	7.37624e+06	-57289.1	1055.82	-29737.2	0.000000	0.000000	6.266810	-0.011924	NaN	0.000000	0.001556	0.001708	28.0816	0.054749	0.001972	27.7657	56.0548	-164.562	-0.036224	0.264828	-0.734484	-0.735783	-0.011924	27.7657	-0.734161	-5.721604E+9	2.084067E-12	NaN
1143	1.000000	0.274169	7.37624e+06	-57289.1	1055.82	-29737.2	0.000000	0.000000	6.274848	-0.068474	NaN	0.000000	0.001573	0.001760	28.0817	0.039561	0.001935	20.445	85.9645	-166.588	-0.091479	0.272836	-0.726443	-0.727775	-0.068474	20.445	-0.723931	-4.150299E+9	1.649865E-11	NaN
1143	1.000000	0.282168	7.37624e+06	-57289.1	1055.82	-29737.2	0.000000	0.000000	6.282851	0.009437	NaN	0.000000	0.001521	0.001753	28.0817	0.038671	0.002222	17.4018	-170.318	-166.759	0.024066	0.280812	-0.718444	-0.719799	0.009437	17.4018	-0.718850	-3.538303E+9	-2.667173E-12	NaN
1143	1.000000	0.290197	7.37624e+06	-57289.1	1055.82	-29737.2	0.000000	0.000000	6.290880	0.000232	NaN	0.000000	0.001551	0.001741	28.0818	0.056548	0.002066	27.3648	64.7607	-166.508	0.028246	0.288832	-0.710415	-0.711779	0.000232	27.3648	-0.710421	-2.715141E+9	-8.551308E-14	NaN
1143	1.000000	0.298177	7.37624e+06	-57289.1	1055.82	-29737.2	0.000000	0.000000	6.298861	0.033363	NaN	0.000000	0.001521	0.001760	28.0816	0.057762	0.002099	27.524	-36.6821	-164.223	0.061082	0.296868	-0.702435	-0.703743	0.033363	27.524	-0.703344	-2.173658E+9	-1.534888E-11	NaN
1143	1.000000	0.306141	7.37624e+06	-57289.1	1055.82	-29737.2	0.000000	0.000000	6.306822	-0.043733	NaN	0.000000	0.001518	0.001765	28.0815	0.155018	0.002045	75.8113	-176.595	-165.201	-0.141607	0.304874	-0.694470	-0.695738	-0.043733	75.8113	-0.694037	-1.622135E+9	2.696043E-11	NaN
1143	1.000000	0.314194	7.37624e+06	-57289.1	1055.82	-29737.2	0.000000	0.000000	6.314874	-0.067602	NaN	0.000000	0.001549	0.001742	28.0813	0.036653	0.001963	18.6755	21.8294	-168.651	-0.043100	0.312873	-0.686417	-0.687738	-0.067602	18.6755	-0.683702	-1.171746E+9	5.769305E-11	NaN
1143	1.000000	0.322185	7.37624e+06	-57289.1	1055.82	-29737.2	0.000000	0.000000	6.322869	0.044040	NaN	0.000000	0.001544	0.001763	28.0816	0.059018	0.002045	28.8665	-28.7308	-165.324	-0.021802	0.320868	-0.678427	-0.679743	0.044040	28.8665	-0.679571	-1.028828E+9	-4.280630E-11	NaN
1143	1.000000	0.330208	7.37624e+06	-57289.1	1055.82	-29737.2	0.000000	0.000000	6.330889	-0.025685	NaN	0.000000	0.001571	0.001756	28.0816	0.043736	0.002217	19.7253	83.6845	-164.974	-0.065879	0.328883	-0.670404	-0.671729	-0.025685	19.7253	-0.669427	-7.474015E+8	3.436586E-11	NaN
1143	1.000000	0.338183	7.37624e+06	-57289.1	1055.82	-29737.2	0.000000	0.000000	6.338865	-0.013009	NaN	0.000000	0.001606	0.001770	28.0816	0.040070	0.002070	19.3606	-167.135	-167.592	0.032130	0.336827	-0.662429	-0.663784	-0.013009	19.3606	-0.661925	-5.899713E+8	2.205106E-11	NaN
1143	1.000000	0.346188	7.37624e+06	-57289.1	1055.82	-29737.2	0.000000	0.000000	6.346873	0.057896	NaN	0.000000	0.001578	0.001766	28.0819	0.053041	0.002013	26.3447	48.0023	-164.515	-0.001069	0.344866	-0.654423	-0.655746	0.057896	26.3447	-0.656072	-4.905138E+8	-1.180311E-10	NaN
1143	1.000000	0.354225	7.37624e+06	-57289.1	1055.82	-29737.2	0.000000	0.000000	6.354908	0.009487	NaN	0.000000	0.001583	0.001770	28.0814	0.147934	0.002140	69.1375	-87.9488	-168.344	-0.009490	0.352892	-0.646387	-0.647720	0.009487	69.1375	-0.646490	-3.625006E+8	-2.617027E-11	NaN
1143	1.000000	0.362163	7.37624e+06	-57289.1	1055.82	-29737.2	0.000000	0.000000	6.362844	-0.053649	NaN	0.000000	0.001585	0.001744	28.0814	0.079248	0.001982	39.991	166.501	-162.827	-0.071038	0.360930	-0.638448	-0.639682	-0.053649	39.991	-0.637442	-2.723907E+8	1.969570E-10	NaN
1143	1.000000	0.370206	7.37624e+06	-57289.1	1055.82	-29737.2	0.000000	0.000000	6.370888	-0.012308	NaN	0.000000	0.001604	0.001735	28.0814	0.042938	0.001998	21.4932	-43.6972	-164.113	-0.143582	0.368915	-0.630406	-0.631696	-0.012308	21.4932	-0.629976	-2.151288E+8	5.721084E-11	NaN
1143	1.000000	0.378199	7.37624e+06	-57289.1	1055.82	-29737.2	0.000000	0.000000	6.378879	-0.067265	NaN	0.000000	0.001611	0.001727	28.0816	0.083190	0.001941	42.8549	86.7683	-165.981	-0.045298	0.376866	-0.622413	-0.623746	-0.067265	42.8549	-0.621236	-1.631612E+8	4.122592E-10	NaN
1143	1.000000	0.386202	7.37624e+06	-57289.1	1055.82	-29737.2	0.000000	0.000000	6.386883	-0.025412	NaN	0.000000	0.001608	0.001735	28.0813	0.074639	0.002103	35.4939	170.032	-166.384	-0.050937	0.384963	-0.614410	-0.615649	-0.025412	35.4939	-0.613873	-1.292380E+8	1.966303E-10	NaN
1143	1.000000	0.394200	7.37624e+06	-57289.1	1055.82	-29737.2	0.000000	0.000000	6.394882	-0.023039	NaN	0.000000	0.001591	0.001746	28.0814	0.049536	0.002013	24.6097	-51.4223	-167.331	0.053217	0.392872	-0.606412	-0.607740	-0.023039	24.6097	-0.605709	-9.978589E+7	2.308806E-10	NaN
1143	1.000000	0.402216	7.37624e+06	-57289.1	1055.82	-29737.2	0.000000	0.000000	6.402900	0.038424	NaN	0.000000	0.001595	0.001726	28.0805	0.099912	0.002045	48.8599	-2.890862	-165.902	-0.028958	0.400935	-0.598396	-0.599676	0.038424	48.8599	-0.598986	-8.062869E+7	-4.765600E-10	NaN
1143	1.000000	0.410203	7.37624e+06	-57289.1	1055.82	-29737.2	0.000000	0.000000	6.410887	0.022782	NaN	0.000000	0.001628	0.001741	28.0803	0.044247	0.002037	21.7271	82.462	-167.76	0.008230	0.408924	-0.590409	-0.591688	0.022782	21.7271	-0.591195	-6.297111E+7	-3.617892E-10	NaN
1143	1.000000	0.418228	7.37624e+06	-57289.1	1055.82	-29737.2	0.000000	0.000000	6.418909	-0.044890	NaN	0.000000	0.001612	0.001780	28.0806	0.010811	0.001907	5.669600	178.69	-169.132	-0.029029	0.416872	-0.582384	-0.583739	-0.044890	5.669600	-0.576445	-3.941448E+7	1.138932E-9	NaN
1143	1.000000	0.426244	7.37624e+06	-57289.1	1055.82	-29737.2	0.000000	0.000000	6.426925	-0.029148	NaN	0.000000	0.001659	0.001738	28.0801	0.013933	0.002010	6.931189	158.279	-165.717	-0.019951	0.424885	-0.574368	-0.575727	-0.029148	6.931189	-0.571214	-3.337376E+7	8.733883E-10	NaN
1143	1.000000	0.434221	7.37624e+06	-57289.1	1055.82	-29737.2	0.000000	0.000000	6.434901	-0.072220	NaN	0.000000	0.001660	0.001735	28.0801	0.030205	0.002075	14.5534	175.238	-167.66	-0.091949	0.432938	-0.566390	-0.567674	-0.072220	14.5534	-0.562669	-2.542656E+7	2.840321E-9	NaN
1143	1.000000	0.442232	7.37624e+06	-57289.1	1055.82	-29737.2	0.000000	0.000000	6.442915	0.004529	NaN	0.000000	0.001636	0.001712	28.0804	0.055237	0.002145	25.7462	165.743	-166.959	-0.099274	0.440923	-0.558380	-0.559688	0.004529	25.7462	-0.558512	-2.227345E+7	-2.033272E-10	NaN
1143	1.000000	0.450218	7.37624e+06	-57289.1	1055.82	-29737.2	0.000000	0.000000	6.450897	-0.089303	NaN	0.000000	0.001669	0.001712	28.0801	0.136403	0.001957	69.7158	-128.692	-166.236	0.047811	0.448927	-0.550393	-0.551684	-0.089303	69.7158	-0.549433	-1.667621E+7	5.355101E-9	NaN
1143	1.000000	0.458226	7.37624e+06	-57289.1	1055.82	-29737.2	0.000000	0.000000	6.458909	0.002615	NaN	0.000000	0.001598	0.001678	28.0802	0.131879	0.002070	63.7059	174.908	-168.091	-0.016307	0.456930	-0.542385	-0.543682	0.002615	63.7059	-0.542416	-1.333100E+7	-1.961487E-10	NaN
1143	1.000000	0.466236	7.37624e+06	-57289.1	1055.82	-29737.2	0.000000	0.000000	6.466917	-0.044821	NaN	0.000000	0.001603	0.001714	28.0802	0.097303	0.001947	49.9839	51.1216	-164.695	-0.065506	0.464958	-0.534375	-0.535653	-0.044821	49.9839	-0.533703	-1.009215E+7	4.441151E-9	NaN
1143	1.000000	0.474204	7.37624e+06	-57289.1	1055.82	-29737.2	0.000000	0.000000	6.474885	-0.048460	NaN	0.000000	0.001623	0.001733	28.0802	0.172477	0.001974	87.3753	40.2382	-167.798	-0.030497	0.472960	-0.526407	-0.527652	-0.048460	87.3753	-0.525991	-7.88659e+06	6.144621E-9	NaN
1143	1.000000	0.482240	7.37624e+06	-57289.1	1055.82	-29737.2	0.000000	0.000000	6.482921	-0.051100	NaN	0.000000	0.001631	0.001736	28.0804	0.071401	0.001954	36.5364	17.3189	-167.568	-0.054687	0.480934	-0.518371	-0.519678	-0.051100	36.5364	-0.517322	-5.97517e+06	8.552088E-9	NaN
1143	1.000000	0.490259	7.37624e+06	-57289.1	1055.82	-29737.2	0.000000	0.000000	6.490936	-0.134060	NaN	0.000000	0.001605	0.001760	28.0801	0.058289	0.001936	30.106	64.9813	-167.619	-0.097397	0.488989	-0.510353	-0.511623	-0.134060	30.106	-0.507013	-4.29342e+06	3.122465E-8	NaN
1143	1.000000	0.498253	7.37624e+06	-57289.1	1055.82	-29737.2	0.000000	0.000000	6.498934	-0.032088	NaN	0.000000	0.001617	0.001746	28.0805	0.078979	0.002051	38.5058	108.899	-166.661	-0.026396	0.496963	-0.502359	-0.503648	-0.032088	38.5058	-0.501734	-3.6241e+06	8.853951E-9	NaN
1143	1.000000	0.506249	7.37624e+06	-57289.1	1055.82	-29737.2	0.000000	0.000000	6.506930	-0.041647	NaN	0.000000	0.001587	0.001718	28.08	0.082464	0.002161	38.1558	-159.206	-167.824	-0.005519	0.504963	-0.494363	-0.495649	-0.041647	38.1558	-0.493544	-2.7855e+06	1.495121E-8	NaN
1143	1.000000	0.514267	7.37624e+06	-57289.1	1055.82	-29737.2	0.000000	0.000000	6.514949	-0.024034	NaN	0.000000	0.001593	0.001726	28.0802	0.079124	0.001990	39.7513	4.857255	-162.575	-0.068860	0.512989	-0.486345	-0.487623	-0.024034	39.7513	-0.485891	-2.17748e+06	1.103766E-8	NaN
1143	1.000000	0.522256	7.37624e+06	-57289.1	1055.82	-29737.2	0.000000	0.000000	6.522937	-0.047661	NaN	0.000000	0.001564	0.001707	28.0802	0.115600	0.002017	57.3144	19.3811	-164.61	-0.038269	0.520958	-0.478355	-0.479653	-0.047661	57.3144	-0.477732	-1.67405e+06	2.847054E-8	NaN
1143	1.000000	0.530274	7.37624e+06	-57289.1	1055.82	-29737.2	0.000000	0.000000	6.530957	0.010676	NaN	0.000000	0.001590	0.001715	28.08	0.051423	0.001996	25.7629	-166.554	-170.13	-0.020785	0.528937	-0.470337	-0.471674	0.010676	25.7629	-0.470648	-1.33198e+06	-8.015062E-9	NaN
1143	1.000000	0.538268	7.37624e+06	-57289.1	1055.82	-29737.2	0.000000	0.000000	6.538949	-0.056359	NaN	0.000000	0.001563	0.001752	28.0816	0.022913	0.001888	12.1369	-101.563	-165.563	-0.139083	0.537000	-0.462343	-0.463611	-0.056359	12.1369	-0.458861	-909927	6.193788E-8	NaN
1143	1.000000	0.546278	7.37624e+06	-57289.1	1055.82	-29737.2	0.000000	0.000000	6.546959	-0.032257	NaN	0.000000	0.001558	0.001731	28.0814	0.044599	0.001944	22.943	-155.082	-166.459	-0.045762	0.544953	-0.454334	-0.455658	-0.032257	22.943	-0.453279	-759462	4.247294E-8	NaN
1143	1.000000	0.554283	7.37624e+06	-57289.1	1055.82	-29737.2	0.000000	0.000000	6.554964	-0.042483	NaN	0.000000	0.001584	0.001734	28.0826	0.046230	0.002037	22.6985	-53.5482	-165.059	-0.071469	0.552968	-0.446328	-0.447644	-0.042483	22.6985	-0.444924	-579199	7.334845E-8	NaN
1143	1.000000	0.562282	7.37624e+06	-57289.1	1055.82	-29737.2	0.000000	0.000000	6.562966	0.028819	NaN	0.000000	0.001588	0.001728	28.0814	0.034883	0.001842	18.9364	173.412	-164.6	0.026459	0.560942	-0.438330	-0.439670	0.028819	18.9364	-0.439471	-485179	-5.939816E-8	NaN
1143	1.000000	0.570265	7.37624e+06	-57289.1	1055.82	-29737.2	0.000000	0.000000	6.570948	-0.001846	NaN	0.000000	0.001580	0.001727	28.0817	0.115900	0.001906	60.7925	-139.995	-165.154	0.005013	0.568987	-0.430346	-0.431625	-0.001846	60.7925	-0.430324	-360280	5.122796E-9	NaN
1143	1.000000	0.578324	7.37624e+06	-57289.1	1055.82	-29737.2	0.000000	0.000000	6.579005	-0.029754	NaN	0.000000	0.001568	0.001712	28.0815	0.139788	0.001950	71.6749	-65.369	-168.674	0.065199	0.577003	-0.422288	-0.423609	-0.029754	71.6749	-0.421976	-274434	1.084193E-7	NaN
1143	1.000000	0.586308	7.37624e+06	-57289.1	1055.82	-29737.2	0.000000	0.000000	6.586991	-0.004984	NaN	0.000000	0.001541	0.001741	28.0814	0.074231	0.001986	37.3746	-9.718329	-165.847	-0.080834	0.585042	-0.414303	-0.415570	-0.004984	37.3746	-0.414203	-212882	2.341408E-8	NaN
1143	1.000000	0.594322	7.37624e+06	-57289.1	1055.82	-29737.2	0.000000	0.000000	6.595003	-0.041950	NaN	0.000000	0.001544	0.001724	28.0816	0.110249	0.002150	51.2877	-111.537	-167.202	-0.011396	0.592951	-0.406289	-0.407660	-0.041950	51.2877	-0.405676	-161016	2.605309E-7	NaN
1143	1.000000	0.602324	7.37624e+06	-57289.1	1055.82	-29737.2	0.000000	0.000000	6.603004	-0.073870	NaN	0.000000	0.001573	0.001715	28.0815	0.036053	0.001941	18.5757	116.323	-168.85	-0.125790	0.601018	-0.398287	-0.399594	-0.073870	18.5757	-0.395305	-114548	6.448804E-7	NaN
1143	1.000000	0.610282	7.37624e+06	-57289.1	1055.82	-29737.2	0.000000	0.000000	6.610963	-0.039362	NaN	0.000000	0.001520	0.001718	28.0813	0.075143	0.001950	38.525	-153.978	-165.971	-0.092879	0.609002	-0.390330	-0.391609	-0.039362	38.525	-0.389563	-94824.5	4.151050E-7	NaN
1143	1.000000	0.618312	7.37624e+06	-57289.1	1055.82	-29737.2	0.000000	0.000000	6.618995	0.005554	NaN	0.000000	0.001557	0.001725	28.0814	0.077210	0.001966	39.2717	141.835	-164.809	0.056748	0.616982	-0.382299	-0.383630	0.005554	39.2717	-0.382405	-74885.3	-7.416451E-8	NaN
1143	1.000000	0.626311	7.37624e+06	-57289.1	1055.82	-29737.2	0.000000	0.000000	6.626993	-0.032804	NaN	0.000000	0.001578	0.001771	28.0814	0.043947	0.002026	21.6888	-39.5062	-167.957	-0.061737	0.624994	-0.374300	-0.375618	-0.032804	21.6888	-0.373166	-55169.4	5.946009E-7	NaN
1143	1.000000	0.634296	7.37624e+06	-57289.1	1055.82	-29737.2	0.000000	0.000000	6.634978	-0.025874	NaN	0.000000	0.001580	0.001743	28.0814	0.021588	0.001982	10.891	-18.4191	-166.165	0.023225	0.632969	-0.366316	-0.367643	-0.025874	10.891	-0.364534	-41431.2	6.245056E-7	NaN
1143	1.000000	0.642308	7.37624e+06	-57289.1	1055.82	-29737.2	0.000000	0.000000	6.642989	-0.035141	NaN	0.000000	0.001582	0.001748	28.081	0.047213	0.001931	24.4522	-151.225	-166.438	-0.019276	0.640969	-0.358303	-0.359643	-0.035141	24.4522	-0.357226	-32487.6	1.081675E-6	NaN
1143	1.000000	0.650298	7.37624e+06	-57289.1	1055.82	-29737.2	0.000000	0.000000	6.650980	-0.017462	NaN	0.000000	0.001572	0.001755	28.0816	0.024896	0.001907	13.0524	32.5848	-164.274	0.063555	0.648991	-0.350313	-0.351621	-0.017462	13.0524	-0.349310	-24945.2	7.000212E-7	NaN
1143	1.000000	0.658330	7.37624e+06	-57289.1	1055.82	-29737.2	0.000000	0.000000	6.659011	-0.046903	NaN	0.000000	0.001581	0.001749	28.0812	0.083452	0.001940	43.0152	116.672	-167.72	-0.115295	0.657027	-0.342282	-0.343584	-0.046903	43.0152	-0.341464	-19181.7	2.445181E-6	NaN
1143	1.000000	0.666334	7.37624e+06	-57289.1	1055.82	-29737.2	0.000000	0.000000	6.667015	-0.040124	NaN	0.000000	0.001580	0.001740	28.0815	0.042784	0.002098	20.3951	91.4701	-162.903	0.060095	0.664984	-0.334278	-0.335628	-0.040124	20.3951	-0.332803	-14337.2	2.798578E-6	NaN
1143	1.000000	0.674324	7.37624e+06	-57289.1	1055.82	-29737.2	0.000000	0.000000	6.675006	-0.021799	NaN	0.000000	0.001578	0.001741	28.0801	0.115310	0.002071	55.6674	123.189	-166.93	-0.079318	0.672992	-0.326288	-0.327619	-0.021799	55.6674	-0.325994	-11395.3	1.912971E-6	NaN
1143	1.000000	0.682327	7.37624e+06	-57289.1	1055.82	-29737.2	0.000000	0.000000	6.683008	-0.040662	NaN	0.000000	0.001555	0.001760	28.0802	0.010621	0.001936	5.487246	-143.352	-168.004	-0.052524	0.681057	-0.318285	-0.319554	-0.040662	5.487246	-0.312727	-7267.46	5.595043E-6	NaN
1143	1.000000	0.690342	7.37624e+06	-57289.1	1055.82	-29737.2	0.000000	0.000000	6.691023	-0.024371	NaN	0.000000	0.001549	0.001746	28.0803	0.082602	0.001898	43.5145	160.884	-166.367	0.003748	0.689027	-0.310270	-0.311584	-0.024371	43.5145	-0.309850	-6589.2	3.698569E-6	NaN
1143	1.000000	0.698340	7.37624e+06	-57289.1	1055.82	-29737.2	0.000000	0.000000	6.699021	-0.052862	NaN	0.000000	0.001572	0.001760	28.0802	0.023602	0.002130	11.0831	161.189	-164.726	-0.070246	0.697004	-0.302271	-0.303608	-0.052862	11.0831	-0.298694	-4499.72	1.174796E-5	NaN
1143	1.000000	0.706326	7.37624e+06	-57289.1	1055.82	-29737.2	0.000000	0.000000	6.707009	0.012508	NaN	0.000000	0.001555	0.001760	28.0804	0.020876	0.001789	11.6684	-78.1256	-166.614	8.182869E-5	0.705043	-0.294286	-0.295569	0.012508	11.6684	-0.295090	-3975.87	-3.146080E-6	NaN
1143	1.000000	0.714333	7.37624e+06	-57289.1	1055.82	-29737.2	0.000000	0.000000	6.715015	-0.012315	NaN	0.000000	0.001537	0.001774	28.08	0.070006	0.002033	34.4363	69.2071	-164.364	-0.016515	0.713021	-0.286278	-0.287590	-0.012315	34.4363	-0.286010	-2907.02	4.236242E-6	NaN
1143	1.000000	0.722363	7.37624e+06	-57289.1	1055.82	-29737.2	0.000000	0.000000	6.723042	-0.091017	NaN	0.000000	0.001537	0.001739	28.08	0.041885	0.001983	21.1203	119.312	-163.43	-0.040274	0.721034	-0.278248	-0.279577	-0.091017	21.1203	-0.275016	-1984.48	4.586446E-5	NaN
1143	1.000000	0.730351	7.37624e+06	-57289.1	1055.82	-29737.2	0.000000	0.000000	6.731029	-0.106076	NaN	0.000000	0.001514	0.001724	28.0801	0.076442	0.001913	39.9493	-16.4286	-165.203	-0.172078	0.729011	-0.270261	-0.271600	-0.106076	39.9493	-0.268270	-1567.55	6.766972E-5	NaN
1143	1.000000	0.738339	7.37624e+06	-57289.1	1055.82	-29737.2	0.000000	0.000000	6.739017	-0.111451	NaN	0.000000	0.001525	0.001703	28.0799	0.016144	0.002099	7.692437	19.9641	-169.131	-0.038104	0.737037	-0.262272	-0.263574	-0.111451	7.692437	-0.251406	-864.365	0.000129	NaN
1143	1.000000	0.746349	7.37624e+06	-57289.1	1055.82	-29737.2	0.000000	0.000000	6.747032	0.011870	NaN	0.000000	0.001556	0.001744	28.0805	0.022955	0.002080	11.0339	160.668	-165.676	-0.006397	0.745034	-0.254262	-0.255577	0.011870	11.0339	-0.255069	-984.421	-1.205771E-5	NaN
1143	1.000000	0.754379	7.37624e+06	-57289.1	1055.82	-29737.2	0.000000	0.000000	6.755060	-0.041048	NaN	0.000000	0.001573	0.001755	28.08	0.044181	0.001848	23.9053	32.5984	-167.053	-0.131641	0.753056	-0.246233	-0.247556	-0.041048	23.9053	-0.244945	-686.435	5.979851E-5	NaN
1143	1.000000	0.762347	7.37624e+06	-57289.1	1055.82	-29737.2	0.000000	0.000000	6.763028	-0.024566	NaN	0.000000	0.001583	0.001721	28.0802	0.014016	0.001941	7.222116	-90.4595	-165.855	-0.037055	0.761025	-0.238265	-0.239586	-0.024566	7.222116	-0.235714	-492.554	4.987569E-5	NaN
1143	1.000000	0.770346	7.37624e+06	-57289.1	1055.82	-29737.2	0.000000	0.000000	6.771030	0.027555	NaN	0.000000	0.001583	0.001752	28.0802	0.035070	0.002155	16.2755	65.4467	-167.732	-0.006592	0.769044	-0.230265	-0.231568	0.027555	16.2755	-0.231535	-423.383	-6.508311E-5	NaN
1143	1.000000	0.778355	7.37624e+06	-57289.1	1055.82	-29737.2	0.000000	0.000000	6.779036	-0.038827	NaN	0.000000	0.001541	0.001718	28.0801	0.096298	0.002039	47.2177	139.636	-167.323	-0.091070	0.777048	-0.222256	-0.223563	-0.038827	47.2177	-0.221640	-295.02	0.000132	NaN
1143	1.000000	0.786400	7.37624e+06	-57289.1	1055.82	-29737.2	0.000000	0.000000	6.787082	-0.007932	NaN	0.000000	0.001544	0.001736	28.0803	0.019719	0.001944	10.1409	159.495	-165.207	-0.015577	0.785080	-0.214212	-0.215532	-0.007932	10.1409	-0.213625	-219.475	3.614143E-5	NaN
1143	1.000000	0.794377	7.37624e+06	-57289.1	1055.82	-29737.2	0.000000	0.000000	6.795058	-0.054558	NaN	0.000000	0.001508	0.001747	28.08	0.063455	0.001958	32.4138	-79.3843	-167.404	-0.106070	0.793098	-0.206234	-0.207513	-0.054558	32.4138	-0.204972	-158.89	0.000343	NaN
1143	1.000000	0.802369	7.37624e+06	-57289.1	1055.82	-29737.2	0.000000	0.000000	6.803049	-0.069865	NaN	0.000000	0.001534	0.001774	28.0805	0.140719	0.002151	65.4128	-96.9922	-169.127	-0.034343	0.801105	-0.198243	-0.199507	-0.069865	65.4128	-0.197442	-119.556	0.000584	NaN
1143	1.000000	0.810361	7.37624e+06	-57289.1	1055.82	-29737.2	0.000000	0.000000	6.811044	-0.001240	NaN	0.000000	0.001521	0.001814	28.0816	0.093075	0.001904	48.8814	113.128	-169.199	-0.018128	0.809057	-0.190251	-0.191555	-0.001240	48.8814	-0.190232	-90.7601	1.365949E-5	NaN
1143	1.000000	0.818379	7.37624e+06	-57289.1	1055.82	-29737.2	0.000000	0.000000	6.819061	-0.025770	NaN	0.000000	0.001563	0.001740	28.0813	0.042956	0.001966	21.8528	13.6376	-163.895	0.039108	0.817071	-0.182232	-0.183540	-0.025770	21.8528	-0.181348	-64.3229	0.000401	NaN
1143	1.000000	0.826398	7.37624e+06	-57289.1	1055.82	-29737.2	0.000000	0.000000	6.827079	-0.048396	NaN	0.000000	0.001552	0.001731	28.0813	0.031124	0.001995	15.6045	144.633	-165.986	-0.011848	0.825079	-0.174213	-0.175533	-0.048396	15.6045	-0.171887	-44.2917	0.001093	NaN
1143	1.000000	0.834408	7.37624e+06	-57289.1	1055.82	-29737.2	0.000000	0.000000	6.835090	-0.024392	NaN	0.000000	0.001529	0.001773	28.0814	0.078327	0.002056	38.0977	155.219	-162.826	-0.011364	0.833098	-0.166204	-0.167514	-0.024392	38.0977	-0.165723	-34.5937	0.000705	NaN
1143	1.000000	0.842421	7.37624e+06	-57289.1	1055.82	-29737.2	0.000000	0.000000	6.843098	-0.129479	NaN	0.000000	0.001525	0.001775	28.0814	0.085771	0.002094	40.9575	113.637	-166.025	-0.095025	0.841082	-0.158191	-0.159530	-0.129479	40.9575	-0.155820	-23.0844	0.005609	NaN
1143	1.000000	0.850397	7.37624e+06	-57289.1	1055.82	-29737.2	0.000000	0.000000	6.851075	-0.114922	NaN	0.000000	0.001520	0.001736	28.0812	0.132482	0.002109	62.8214	-37.5101	-168.345	-0.139605	0.849084	-0.150215	-0.151528	-0.114922	62.8214	-0.148843	-17.253	0.006661	NaN
1143	1.000000	0.858430	7.37624e+06	-57289.1	1055.82	-29737.2	0.000000	0.000000	6.859112	-0.009863	NaN	0.000000	0.001544	0.001756	28.0814	0.111355	0.002075	53.6611	168.736	-165.019	0.024200	0.857139	-0.142182	-0.143473	-0.009863	53.6611	-0.142044	-12.9192	0.000763	NaN
1143	1.000000	0.866417	7.37624e+06	-57289.1	1055.82	-29737.2	0.000000	0.000000	6.867097	-0.071922	NaN	0.000000	0.001545	0.001712	28.0812	0.069704	0.001992	35.0004	132.146	-166.948	-0.043538	0.865140	-0.134195	-0.135471	-0.071922	35.0004	-0.132653	-8.576571	0.008386	NaN
1143	1.000000	0.874410	7.37624e+06	-57289.1	1055.82	-29737.2	0.000000	0.000000	6.875091	-0.030181	NaN	0.000000	0.001538	0.001742	28.0815	0.105130	0.001964	53.538	62.5835	-163.06	-0.070961	0.873117	-0.126202	-0.127494	-0.030181	53.538	-0.125779	-6.300724	0.004790	NaN
1143	1.000000	0.882416	7.37624e+06	-57289.1	1055.82	-29737.2	0.000000	0.000000	6.883097	-0.031105	NaN	0.000000	0.001552	0.001729	28.0813	0.144425	0.002016	71.6459	-92.0327	-166.264	0.032226	0.881119	-0.118196	-0.119492	-0.031105	71.6459	-0.117870	-4.374253	0.007111	NaN
1143	1.000000	0.890410	7.37624e+06	-57289.1	1055.82	-29737.2	0.000000	0.000000	6.891092	-0.014093	NaN	0.000000	0.001513	0.001780	28.0815	0.131389	0.002001	65.6698	162.931	-165.632	-0.028617	0.889153	-0.110202	-0.111458	-0.014093	65.6698	-0.110041	-3.011147	0.004680	NaN
1143	1.000000	0.898429	7.37624e+06	-57289.1	1055.82	-29737.2	0.000000	0.000000	6.899109	-0.069513	NaN	0.000000	0.001481	0.001744	28.0816	0.048656	0.002002	24.3001	54.9266	-165.471	-0.072449	0.897133	-0.102182	-0.103479	-0.069513	24.3001	-0.100037	-1.830577	0.037973	NaN
1143	1.000000	0.906413	7.37624e+06	-57289.1	1055.82	-29737.2	0.000000	0.000000	6.907093	-0.061593	NaN	0.000000	0.001502	0.001735	28.0813	0.036143	0.002001	18.0603	-13.7004	-164.407	0.009898	0.905142	-0.094199	-0.095470	-0.061593	18.0603	-0.091641	-1.180689	0.052167	NaN
1143	1.000000	0.914422	7.37624e+06	-57289.1	1055.82	-29737.2	0.000000	0.000000	6.915102	-0.059755	NaN	0.000000	0.001544	0.001723	28.0815	0.036993	0.001920	19.2697	-160.7	-163.694	0.008820	0.913084	-0.086190	-0.087527	-0.059755	19.2697	-0.083864	-0.771056	0.077498	NaN
1143	1.000000	0.922407	7.37624e+06	-57289.1	1055.82	-29737.2	0.000000	0.000000	6.923088	-0.034630	NaN	0.000000	0.001530	0.001743	28.081	0.091696	0.001994	45.9972	86.1124	-168.403	-0.072331	0.921087	-0.078205	-0.079524	-0.034630	45.9972	-0.077640	-0.539763	0.064159	NaN
1143	1.000000	0.930457	7.37624e+06	-57289.1	1055.82	-29737.2	0.000000	0.000000	6.931141	0.020777	NaN	0.000000	0.001492	0.001703	28.0815	0.017196	0.002122	8.104890	54.2037	-168.158	-0.085183	0.929180	-0.070154	-0.071431	0.020777	8.104890	-0.072077	-0.387367	-0.053637	NaN
1143	1.000000	0.938444	7.37624e+06	-57289.1	1055.82	-29737.2	0.000000	0.000000	6.939126	-0.031700	NaN	0.000000	0.001527	0.001720	28.0813	0.093616	0.001973	47.4414	132.175	-167.548	0.018980	0.937106	-0.062167	-0.063506	-0.031700	47.4414	-0.061666	-0.200926	0.157770	NaN
1143	1.000000	0.946440	7.37624e+06	-57289.1	1055.82	-29737.2	0.000000	0.000000	6.947120	-0.053037	NaN	0.000000	0.001564	0.001731	28.0798	0.060310	0.002054	29.3683	155.96	-164.47	0.041319	0.945128	-0.054172	-0.055483	-0.053037	29.3683	-0.052817	-0.110906	0.478218	NaN
1143	1.000000	0.954446	7.37624e+06	-57289.1	1055.82	-29737.2	0.000000	0.000000	6.955128	-0.009639	NaN	0.000000	0.001563	0.001711	28.0802	0.084126	0.002076	40.5173	66.468	-165.723	-0.033463	0.953136	-0.046166	-0.047475	-0.009639	40.5173	-0.045987	-0.068893	0.139911	NaN
1143	1.000000	0.962454	7.37624e+06	-57289.1	1055.82	-29737.2	0.000000	0.000000	6.963135	-0.051636	NaN	0.000000	0.001540	0.001682	28.0801	0.079009	0.002050	38.5468	28.8343	-164.257	-0.079027	0.961121	-0.038157	-0.039491	-0.051636	38.5468	-0.037153	-0.037104	1.391628	NaN
1143	1.000000	0.970446	7.37624e+06	-57289.1	1055.82	-29737.2	0.000000	0.000000	6.971128	-0.001967	NaN	0.000000	0.001540	0.001741	28.0802	0.065839	0.001959	33.6071	177.952	-166.324	-0.000523	0.969135	-0.030166	-0.031477	-0.001967	33.6071	-0.030122	-0.023194	0.084805	NaN
1143	1.000000	0.978466	7.37624e+06	-57289.1	1055.82	-29737.2	0.000000	0.000000	6.979147	-0.030429	NaN	0.000000	0.001539	0.001765	28.08	0.067504	0.002076	32.5213	-121.609	-166.472	-0.028134	0.977126	-0.022146	-0.023486	-0.030429	32.5213	-0.021444	-0.013669	2.226152	NaN
1143	1.000000	0.986487	7.37624e+06	-57289.1	1055.82	-29737.2	0.000000	0.000000	6.987167	-0.056247	NaN	0.000000	0.001544	0.001718	28.0799	0.115228	0.001910	60.3328	-136.243	-166.016	-0.047532	0.985139	-0.014125	-0.015472	-0.056247	60.3328	-0.013425	-0.008348	6.737559	NaN
1143	1.000000	0.994438	7.37624e+06	-57289.1	1055.82	-29737.2	0.000000	0.000000	6.995120	-0.026852	NaN	0.000000	0.001540	0.001750	28.0801	0.153818	0.002131	72.18	-5.904661	-166.455	-0.046055	0.993165	-0.006173	-0.007446	-0.026852	72.18	-0.005894	-0.003971	6.761100	NaN
1143	1.000000	1.002472	7.37624e+06	-57289.1	1055.82	-29737.2	0.000000	0.000000	7.003259	2.538523	NaN	0.000000	0.001543	0.001712	28.08	3.431889	0.001812	1894.07	14.7577	-172.274	1.543895	1.001178	0.001861	0.000566	2.538523	1894.07	0.000856	0.000650	3904.85	67870.6
1143	2.000000	1.009115	7.37624e+06	-57289.1	1055.82	-29737.2	0.000000	0.000000	7.010134	8.162379	NaN	0.000000	0.001539	0.001742	28.0802	8.539864	0.001567	5449.57	9.171629	-173.515	8.488204	1.008612	0.008504	0.008000	8.162379	5449.57	0.007381	0.006413	1272.81	62173.9
1143	2.000000	1.011076	7.37624e+06	-57289.1	1055.82	-29737.2	0.000000	0.000000	7.012179	10.2257	NaN	0.000000	0.001538	0.001768	28.08	10.7829	0.001629	6618.3	5.544459	-172.025	9.645091	1.010793	0.010464	0.010182	10.2257	6618.3	0.009305	0.008419	1214.52	65898.7
1143	2.000000	1.013095	7.37624e+06	-57289.1	1055.82	-29737.2	0.000000	0.000000	7.014353	13.9834	NaN	0.000000	0.001589	0.001718	28.08	13.1775	0.001705	7727.88	7.269806	-174.501	13.5566	1.012770	0.012483	0.012159	13.9834	7727.88	0.011126	0.010460	1336.87	69035.4
1143	2.000000	1.015051	7.37624e+06	-57289.1	1055.82	-29737.2	0.000000	0.000000	7.016348	14.9236	NaN	0.000000	0.001569	0.001741	28.0803	14.4723	0.001711	8457.3	9.727504	-177.689	14.3787	1.014698	0.014440	0.014086	14.9236	8457.3	0.013116	0.012855	1160.94	68151.1
1143	2.000000	1.017066	7.37624e+06	-57289.1	1055.82	-29737.2	0.000000	0.000000	7.018447	16.9905	NaN	0.000000	0.001542	0.001757	28.08	16.4877	0.001768	9324.78	5.095184	-173.595	16.7891	1.016735	0.016454	0.016123	16.9905	9324.78	0.015088	0.015402	1103.11	68646.7
1143	2.000000	1.019041	7.37624e+06	-57289.1	1055.82	-29737.2	0.000000	0.000000	7.020611	21.5761	NaN	0.000000	0.001586	0.001713	28.0801	17.9579	0.001615	11119.6	3.893618	-175.231	20.9771	1.018757	0.018429	0.018145	21.5761	11119.6	0.016974	0.018008	1198.11	75704.9
1143	2.000000	1.021071	7.37624e+06	-57289.1	1055.82	-29737.2	0.000000	0.000000	7.022743	24.0351	NaN	0.000000	0.001560	0.001747	28.08	21.571	0.001850	11657.6	11.5337	177.9	25.6228	1.020730	0.020460	0.020119	24.0351	11657.6	0.018913	0.020863	1152.03	73737.8
1143	2.000000	1.023043	7.37624e+06	-57289.1	1055.82	-29737.2	0.000000	0.000000	7.024893	28.3682	NaN	0.000000	0.001546	0.001724	28.0802	22.9218	0.001727	13274.8	5.765516	-178.445	28.825	1.022752	0.022432	0.022141	28.3682	13274.8	0.020829	0.023862	1188.86	78514.8
1143	2.000000	1.024994	7.37624e+06	-57289.1	1055.82	-29737.2	0.000000	0.000000	7.027006	32.2992	NaN	0.000000	0.001559	0.001721	28.081	25.0787	0.001823	13758	10.1958	177.362	32.0152	1.024720	0.024382	0.024108	32.2992	13758	0.022622	0.026830	1203.83	76738.6
1143	2.000000	1.026980	7.37624e+06	-57289.1	1055.82	-29737.2	0.000000	0.000000	7.029148	36.0906	NaN	0.000000	0.001544	0.001751	28.0809	26.822	0.001723	15569.1	4.148326	-179.608	33.8507	1.026734	0.026368	0.026123	36.0906	15569.1	0.024630	0.030346	1189.32	81656.2
1143	2.000000	1.029011	7.37624e+06	-57289.1	1055.82	-29737.2	0.000000	0.000000	7.031416	41.8671	NaN	0.000000	0.001523	0.001745	28.0813	28.301	0.001857	15237.3	1.820529	-176.045	40.4373	1.028687	0.028399	0.028075	41.8671	15237.3	0.026338	0.033495	1249.94	76065.7
1143	2.000000	1.031009	7.37624e+06	-57289.1	1055.82	-29737.2	0.000000	0.000000	7.033574	45.7478	NaN	0.000000	0.001535	0.001708	28.0816	30.9058	0.001782	17342.7	7.491784	177.909	46.5104	1.030729	0.030397	0.030117	45.7478	17342.7	0.028419	0.037530	1218.97	81790.1
1143	2.000000	1.033017	7.37624e+06	-57289.1	1055.82	-29737.2	0.000000	0.000000	7.035720	49.1201	NaN	0.000000	0.001572	0.001715	28.0813	32.7581	0.001830	17904.8	9.725351	175.738	49.1321	1.032665	0.032405	0.032053	49.1201	17904.8	0.030348	0.041467	1184.55	80332.4
1143	2.000000	1.035001	7.37624e+06	-57289.1	1055.82	-29737.2	0.000000	0.000000	7.037981	55.8394	NaN	0.000000	0.001530	0.001757	28.0817	34.9586	0.001886	18537.3	7.966966	176.179	55.6584	1.034688	0.034389	0.034076	55.8394	18537.3	0.032130	0.045274	1233.36	79596.8
1143	2.000000	1.036930	7.37624e+06	-57289.1	1055.82	-29737.2	0.000000	0.000000	7.040389	67.4659	NaN	0.000000	0.001534	0.001706	28.0816	35.3391	0.001737	20346	0.108309	-177.377	65.0812	1.036684	0.036319	0.036072	67.4659	20346	0.033832	0.049061	1375.14	83923.5
1143	2.000000	1.039012	7.37624e+06	-57289.1	1055.82	-29737.2	0.000000	0.000000	7.042563	69.7154	NaN	0.000000	0.001533	0.001709	28.0814	37.1183	0.001647	22539.2	6.560625	174.142	69.3764	1.038726	0.038400	0.038115	69.7154	22539.2	0.036080	0.054291	1284.11	88378.7
1143	2.000000	1.041014	7.37624e+06	-57289.1	1055.82	-29737.2	0.000000	0.000000	7.044830	76.1568	NaN	0.000000	0.001545	0.001721	28.0816	40.6286	0.001760	23087.9	9.437305	172.43	77.8604	1.040729	0.040403	0.040117	76.1568	23087.9	0.037929	0.058785	1295.52	87001.2
1143	2.000000	1.042990	7.37624e+06	-57289.1	1055.82	-29737.2	0.000000	0.000000	7.047079	82.7866	NaN	0.000000	0.001553	0.001723	28.0813	42.7031	0.001867	22873.3	8.790089	174.147	80.9909	1.042633	0.042379	0.042021	82.7866	22873.3	0.039664	0.063164	1310.67	83151
1143	2.000000	1.044983	7.37624e+06	-57289.1	1055.82	-29737.2	0.000000	0.000000	7.049337	89.2406	NaN	0.000000	0.001565	0.001757	28.0816	44.5747	0.001927	23132.9	7.074294	175.905	87.378	1.044648	0.044371	0.044037	89.2406	23132.9	0.041478	0.067904	1314.22	81106.7
1143	2.000000	1.047043	7.37624e+06	-57289.1	1055.82	-29737.2	0.000000	0.000000	7.051574	93.5287	NaN	0.000000	0.001542	0.001747	28.0816	47.7255	0.001947	24512.3	9.333117	172.851	96.1437	1.046707	0.046431	0.046095	93.5287	24512.3	0.043570	0.073578	1271.15	82562.4
1143	2.000000	1.048977	7.37624e+06	-57289.1	1055.82	-29737.2	0.000000	0.000000	7.053929	103.787	NaN	0.000000	0.001563	0.001736	28.0813	47.9694	0.001776	27002.6	3.386634	176.876	102.404	1.048666	0.048365	0.048054	103.787	27002.6	0.045482	0.078962	1314.39	87794.8
1143	2.000000	1.050922	7.37624e+06	-57289.1	1055.82	-29737.2	0.000000	0.000000	7.056341	115.13	NaN	0.000000	0.001576	0.001710	28.0821	50.1794	0.001772	28325.8	4.331069	175.576	112.5	1.050609	0.050310	0.049998	115.13	28325.8	0.047262	0.084137	1368.35	89219.6
1143	2.000000	1.052991	7.37624e+06	-57289.1	1055.82	-29737.2	0.000000	0.000000	7.058720	122.639	NaN	0.000000	0.001554	0.001775	28.0813	52.6397	0.001809	29095.6	7.656823	173.792	123.696	1.052651	0.052380	0.052039	122.639	29095.6	0.049218	0.090013	1362.46	88602.9
1143	2.000000	1.054927	7.37624e+06	-57289.1	1055.82	-29737.2	0.000000	0.000000	7.061199	135.843	NaN	0.000000	0.001578	0.001768	28.0816	54.2123	0.001889	28696	6.217189	174.864	134.018	1.054600	0.054315	0.053988	135.843	28696	0.050765	0.094792	1433.06	85154.9
1143	2.000000	1.056844	7.37624e+06	-57289.1	1055.82	-29737.2	0.000000	0.000000	7.063307	140.501	NaN	0.000000	0.001590	0.001764	28.0816	55.8605	0.001912	29209.8	1.628097	178.306	135.089	1.056691	0.056232	0.056080	140.501	29209.8	0.052625	0.100698	1395.27	84099.2
1143	2.000000	1.058908	7.37624e+06	-57289.1	1055.82	-29737.2	0.000000	0.000000	7.065863	152.451	NaN	0.000000	0.001579	0.001743	28.0812	56.5835	0.001703	33231.6	0.680518	178.192	150.77	1.058654	0.058296	0.058043	152.451	33231.6	0.054856	0.108010	1411.45	92383.1
1143	2.000000	1.060864	7.37624e+06	-57289.1	1055.82	-29737.2	0.000000	0.000000	7.068300	164.128	NaN	0.000000	0.001608	0.001745	28.0811	59.0142	0.001757	33593	1.106297	177.455	161.064	1.060647	0.060253	0.060036	164.128	33593	0.056588	0.113860	1441.5	90957
1143	2.000000	1.063030	7.37624e+06	-57289.1	1055.82	-29737.2	0.000000	0.000000	7.070767	171.456	NaN	0.000000	0.001556	0.001745	28.08	61.0407	0.001708	35738.3	5.003562	174.667	174.54	1.062602	0.062419	0.061991	171.456	35738.3	0.058820	0.121612	1409.86	93630.6
1143	2.000000	1.064924	7.37624e+06	-57289.1	1055.82	-29737.2	0.000000	0.000000	7.073233	185.352	NaN	0.000000	0.001583	0.001720	28.0802	63.3146	0.001801	35164.3	7.596570	171.216	183.554	1.064550	0.064312	0.063938	185.352	35164.3	0.060359	0.127100	1458.32	90116.2
1143	2.000000	1.066982	7.37624e+06	-57289.1	1055.82	-29737.2	0.000000	0.000000	7.075537	191.32	NaN	0.000000	0.001595	0.001731	28.0801	65.6543	0.001846	35561.1	6.676205	172.56	190.354	1.066641	0.066371	0.066029	191.32	35561.1	0.062336	0.134316	1424.4	88651.1
1143	2.000000	1.068899	7.37624e+06	-57289.1	1055.82	-29737.2	0.000000	0.000000	7.077823	200.306	NaN	0.000000	0.001596	0.001762	28.08	65.2167	0.001665	39168.4	3.961815	173.406	197.621	1.068663	0.068287	0.068052	200.306	39168.4	0.064452	0.142254	1408.08	94880.5
1143	2.000000	1.070841	7.37624e+06	-57289.1	1055.82	-29737.2	0.000000	0.000000	7.080432	216.519	NaN	0.000000	0.001572	0.001748	28.0809	68.4216	0.001783	38365.9	3.106020	174.726	210.132	1.070553	0.070229	0.069941	216.519	38365.9	0.065996	0.148184	1461.15	91057.9
1143	2.000000	1.072960	7.37624e+06	-57289.1	1055.82	-29737.2	0.000000	0.000000	7.082804	222.662	NaN	0.000000	0.001583	0.001757	28.0802	71.0788	0.001900	37408.6	4.783373	173.095	221.629	1.072688	0.072349	0.072077	222.662	37408.6	0.067885	0.155589	1431.09	86647.1
1143	2.000000	1.074962	7.37624e+06	-57289.1	1055.82	-29737.2	0.000000	0.000000	7.085312	234.975	NaN	0.000000	0.001579	0.001742	28.0804	73.1304	0.001832	39909.7	6.178940	171.135	235.305	1.074611	0.074350	0.073999	234.975	39909.7	0.069934	0.163821	1434.34	90088
1143	2.000000	1.076922	7.37624e+06	-57289.1	1055.82	-29737.2	0.000000	0.000000	7.087856	249.149	NaN	0.000000	0.001585	0.001762	28.0803	74.642	0.001751	42635.4	5.564716	171.134	246.833	1.076611	0.076311	0.076000	249.149	42635.4	0.071928	0.172018	1448.39	93919.7
1143	2.000000	1.078895	7.37624e+06	-57289.1	1055.82	-29737.2	0.000000	0.000000	7.090367	262.234	NaN	0.000000	0.001577	0.001763	28.0802	75.5443	0.001825	41401	2.204290	174.906	259.454	1.078635	0.078283	0.078023	262.234	41401	0.073533	0.178756	1467	89465.2
1143	2.000000	1.080895	7.37624e+06	-57289.1	1055.82	-29737.2	0.000000	0.000000	7.092882	274.751	NaN	0.000000	0.001552	0.001776	28.0805	78.264	0.001824	42902.4	6.433436	171.027	273.131	1.080555	0.080283	0.079943	274.751	42902.4	0.075480	0.187093	1468.53	90620.5
1143	2.000000	1.083037	7.37624e+06	-57289.1	1055.82	-29737.2	0.000000	0.000000	7.095325	282.071	NaN	0.000000	0.001577	0.001783	28.0803	80.8293	0.001838	43979.5	7.592664	169.837	284.386	1.082599	0.082425	0.081988	282.071	43979.5	0.077615	0.196437	1435.94	90659.2
1143	2.000000	1.084840	7.37624e+06	-57289.1	1055.82	-29737.2	0.000000	0.000000	7.097722	296.483	NaN	0.000000	0.001561	0.001745	28.0806	80.839	0.001777	45497.2	2.410935	173.977	292.703	1.084635	0.084229	0.084023	296.483	45497.2	0.079341	0.204149	1452.29	91999.2
1143	2.000000	1.086887	7.37624e+06	-57289.1	1055.82	-29737.2	0.000000	0.000000	7.100391	311.614	NaN	0.000000	0.001563	0.001750	28.0802	83.5971	0.001789	46737.6	5.590220	171.541	309.909	1.086534	0.086276	0.085923	311.614	46737.6	0.081275	0.212954	1463.29	92533.1
1143	2.000000	1.088910	7.37624e+06	-57289.1	1055.82	-29737.2	0.000000	0.000000	7.102721	319.1	NaN	0.000000	0.001565	0.001773	28.0803	83.5758	0.001710	48865.9	3.733612	172.022	316.541	1.088613	0.088298	0.088001	319.1	48865.9	0.083401	0.222831	1432.03	94578.3
1143	2.000000	1.090852	7.37624e+06	-57289.1	1055.82	-29737.2	0.000000	0.000000	7.105402	337.058	NaN	0.000000	0.001577	0.001714	28.0804	87.886	0.001922	45719.1	4.981455	171.925	333.984	1.090537	0.090240	0.089926	337.058	45719.1	0.084711	0.229025	1471.71	87283
1143	2.000000	1.092931	7.37624e+06	-57289.1	1055.82	-29737.2	0.000000	0.000000	7.107976	349.076	NaN	0.000000	0.001525	0.001750	28.0803	89.0445	0.001791	49714.6	7.610713	168.42	348.092	1.092654	0.092320	0.092042	349.076	49714.6	0.087054	0.240295	1452.7	92658.4
1143	2.000000	1.094847	7.37624e+06	-57289.1	1055.82	-29737.2	0.000000	0.000000	7.110543	364.891	NaN	0.000000	0.001561	0.001749	28.0814	91.0822	0.001836	49609	8.645833	167.737	362.157	1.094594	0.094236	0.093983	364.891	49609	0.088719	0.248463	1468.6	90929.2
1143	2.000000	1.096957	7.37624e+06	-57289.1	1055.82	-29737.2	0.000000	0.000000	7.112871	370.198	NaN	0.000000	0.001586	0.001739	28.0816	92.3554	0.001707	54103.6	4.780210	170.405	371.138	1.096703	0.096345	0.096092	370.198	54103.6	0.091213	0.260931	1418.76	96769.2
1143	2.000000	1.098935	7.37624e+06	-57289.1	1055.82	-29737.2	0.000000	0.000000	7.115776	392.711	NaN	0.000000	0.001614	0.001744	28.0816	93.0523	0.001826	50949.2	4.149986	171.648	392.396	1.098563	0.098324	0.097952	392.711	50949.2	0.092543	0.267692	1467.03	89969.1
1143	2.000000	1.100883	7.37624e+06	-57289.1	1055.82	-29737.2	0.000000	0.000000	7.118066	401.039	NaN	0.000000	0.001601	0.001698	28.0816	96.2124	0.001878	51220.8	2.632383	173.069	396.958	1.100761	0.100271	0.100149	401.039	51220.8	0.094399	0.277270	1446.38	88872.7
1143	2.000000	1.102923	7.37624e+06	-57289.1	1055.82	-29737.2	0.000000	0.000000	7.121115	425.554	NaN	0.000000	0.001589	0.001727	28.0815	96.9628	0.001760	55099.9	2.974020	173.44	423.125	1.102454	0.102312	0.101842	425.554	55099.9	0.096519	0.288401	1475.56	93740.1
1143	2.000000	1.104929	7.37624e+06	-57289.1	1055.82	-29737.2	0.000000	0.000000	7.123757	441.027	NaN	0.000000	0.001621	0.001677	28.0818	98.5864	0.001799	54805	6.957291	169.592	439.221	1.104433	0.104317	0.103822	441.027	54805	0.098282	0.297810	1480.9	91753.7
1143	2.000000	1.106958	7.37624e+06	-57289.1	1055.82	-29737.2	0.000000	0.000000	7.125570	435.771	NaN	0.000000	0.001602	0.001689	28.0816	102.191	0.001830	55855	3.434081	171.33	438.851	1.106820	0.106346	0.106209	435.771	55855	0.100495	0.309823	1406.51	91680.7