File: remote_trans/data/nanoindenter/0828-1/data/Data_2025-08-06,11h17m57s/2025-07-22_16-23-58_1_247.txt
2025-07-22, 16:23:58, 1
Index	Phase	Displacement	Time	Pos X	Pos Y	Pos Z	Rot A	Rot B	Piezo Z	Force A	Force B	Gripper	Voltage A	Voltage B	Temperature	Amplitude force	Amplitude pos	Stiffness	Phase shift	Phase excitation	Force A raw	Displacement raw	HMax	HMax raw	Real Force	Real Stiffness	Contact Depth	Area	Hardness	Reduced Mod.
[#]	[#]	[um]	[s]	[um]	[um]	[um]	[m°]	[m°]	[um]	[uN]	[uN]	[V]	[V]	[V]	[°C]	[uN]	[um]	[N/m]	[°]	[°]	[uN]	[um]	[um]	[um]	[uN]	[N/m]	[um]	[um^2]	[MPa]	[MPa]
247	1.000000	0.002771	7.36746e+06	-50989.1	955.818	-29754.1	0.000000	0.000000	6.002828	-0.033402	NaN	0.000000	0.001595	0.001602	28.0784	0.117261	0.001058	110.853	-82.3954	-158.153	-0.011732	0.001463	-1.152078	-1.153386	-0.033402	110.853	-1.151852	-2.486859E+15	1.343125E-17	NaN
247	1.000000	0.012802	7.36746e+06	-50989.1	955.819	-29754.1	0.000000	0.000000	6.012860	0.014898	NaN	0.000000	0.001604	0.001618	28.0787	0.095320	0.001185	80.4283	-125.523	15.4277	0.028075	0.011376	-1.142047	-1.143473	0.014898	80.4283	-1.142186	-1.845255E+15	-8.073761E-18	NaN
247	1.000000	0.022690	7.36746e+06	-50989.1	955.818	-29754.1	0.000000	0.000000	6.022749	0.033039	NaN	0.000000	0.001623	0.001607	28.0784	0.091423	0.001800	50.7795	-111.891	-165.328	-0.064179	0.021461	-1.132159	-1.133388	0.033039	50.7795	-1.132647	-1.374453E+15	-2.403786E-17	NaN
247	1.000000	0.032691	7.36746e+06	-50989.1	955.818	-29754.1	0.000000	0.000000	6.032749	0.002290	NaN	0.000000	0.001630	0.001594	28.0791	0.008558	0.001863	4.594354	179.417	12.7784	-0.008517	0.031306	-1.122158	-1.123543	0.002290	4.594354	-1.122532	-1.005633E+15	-2.276834E-18	NaN
247	1.000000	0.042667	7.36746e+06	-50989.1	955.819	-29754.1	0.000000	0.000000	6.042725	0.004844	NaN	0.000000	0.001615	0.001604	28.0789	0.060456	0.002019	29.9468	3.138563	-166.845	0.005596	0.041376	-1.112182	-1.113473	0.004844	29.9468	-1.112303	-7.331565E+14	-6.606547E-18	NaN
247	1.000000	0.052704	7.36746e+06	-50989.1	955.819	-29754.1	0.000000	0.000000	6.052763	0.018467	NaN	0.000000	0.001594	0.001584	28.0789	0.039091	0.001937	20.1794	-66.2138	14.3661	-0.006690	0.051351	-1.102145	-1.103498	0.018467	20.1794	-1.102832	-5.471157E+14	-3.375379E-17	NaN
247	1.000000	0.062720	7.36746e+06	-50989.1	955.818	-29754.1	0.000000	0.000000	6.062777	-0.017975	NaN	0.000000	0.001630	0.001567	28.0786	0.162649	0.002064	78.8118	-131.685	-166.454	0.008498	0.061373	-1.092129	-1.093476	-0.017975	78.8118	-1.091958	-3.909359E+14	4.597928E-17	NaN
247	1.000000	0.072722	7.36746e+06	-50989.1	955.818	-29754.1	0.000000	0.000000	6.072779	-0.028120	NaN	0.000000	0.001632	0.001567	28.0787	0.045913	0.002041	22.4928	-179.518	13.3946	-0.022912	0.071329	-1.082127	-1.083520	-0.028120	22.4928	-1.081190	-2.802179E+14	1.003503E-16	NaN
247	1.000000	0.082724	7.36746e+06	-50989.1	955.82	-29754.1	0.000000	0.000000	6.082782	-0.000587	NaN	0.000000	0.001626	0.001590	28.0788	0.077910	0.002008	38.799	-166.311	-162.724	-0.056564	0.081393	-1.072125	-1.073456	-0.000587	38.799	-1.072114	-2.116350E+14	2.772856E-18	NaN
247	1.000000	0.092715	7.36746e+06	-50989.1	955.818	-29754.1	0.000000	0.000000	6.092773	-0.010187	NaN	0.000000	0.001638	0.001597	28.0798	0.086083	0.001914	44.9751	-114.349	13.587	0.031791	0.091326	-1.062134	-1.063523	-0.010187	44.9751	-1.061964	-1.545999E+14	6.589464E-17	NaN
247	1.000000	0.102718	7.36747e+06	-50989.1	955.818	-29754.1	0.000000	0.000000	6.102779	0.060329	NaN	0.000000	0.001655	0.001572	28.0798	0.067534	0.001935	34.9048	-108.269	-166.714	0.002227	0.101349	-1.052131	-1.053500	0.060329	34.9048	-1.053427	-1.187087E+14	-5.082082E-16	NaN
247	1.000000	0.112724	7.36747e+06	-50989.1	955.818	-29754.1	0.000000	0.000000	6.112783	0.002430	NaN	0.000000	0.001628	0.001606	28.0797	0.035989	0.002047	17.5789	-28.0235	11.1752	0.009440	0.111371	-1.042125	-1.043478	0.002430	17.5789	-1.042228	-8.393270E+13	-2.895538E-17	NaN
247	1.000000	0.122752	7.36747e+06	-50989.1	955.818	-29754.1	0.000000	0.000000	6.122809	-0.023259	NaN	0.000000	0.001613	0.001614	28.08	0.109433	0.001896	57.7176	148.452	-164.208	0.065643	0.121422	-1.032097	-1.033427	-0.023259	57.7176	-1.031795	-6.076032E+13	3.827941E-16	NaN
247	1.000000	0.132751	7.36747e+06	-50989.1	955.818	-29754.1	0.000000	0.000000	6.132812	0.067214	NaN	0.000000	0.001621	0.001608	28.0796	0.121378	0.001950	62.2474	85.9902	13.1875	-0.013514	0.131337	-1.022098	-1.023512	0.067214	62.2474	-1.022908	-4.614003E+13	-1.456735E-15	NaN
247	1.000000	0.142728	7.36747e+06	-50989.1	955.819	-29754.1	0.000000	0.000000	6.142786	-0.016302	NaN	0.000000	0.001647	0.001599	28.0798	0.031395	0.002160	14.5327	-157.605	-167.498	0.041134	0.141383	-1.012121	-1.013466	-0.016302	14.5327	-1.011279	-3.218099E+13	5.065863E-16	NaN
247	1.000000	0.152707	7.36747e+06	-50989.1	955.818	-29754.1	0.000000	0.000000	6.152765	0.012230	NaN	0.000000	0.001630	0.001638	28.0797	0.030520	0.002071	14.7394	-145.993	12.7281	-0.056610	0.151400	-1.002142	-1.003449	0.012230	14.7394	-1.002765	-2.471656E+13	-4.948274E-16	NaN
247	1.000000	0.162738	7.36747e+06	-50989.1	955.817	-29754.1	0.000000	0.000000	6.162797	0.020171	NaN	0.000000	0.001591	0.001626	28.0799	0.064373	0.001971	32.6601	119.549	-169.006	-0.018591	0.161436	-0.992111	-0.993413	0.020171	32.6601	-0.992574	-1.802079E+13	-1.119344E-15	NaN
247	1.000000	0.172768	7.36747e+06	-50989.1	955.819	-29754.1	0.000000	0.000000	6.172827	0.026760	NaN	0.000000	0.001614	0.001638	28.0797	0.051856	0.001959	26.4723	62.5211	8.620184	-0.006144	0.171354	-0.982081	-0.983495	0.026760	26.4723	-0.982839	-1.332475E+13	-2.008262E-15	NaN
247	1.000000	0.182749	7.36747e+06	-50989.1	955.818	-29754.1	0.000000	0.000000	6.182806	-0.026535	NaN	0.000000	0.001598	0.001635	28.0797	0.024808	0.001977	12.5496	138.965	-161.429	0.033420	0.181449	-0.972100	-0.973400	-0.026535	12.5496	-0.970515	-9.090702E+12	2.918869E-15	NaN
247	1.000000	0.192723	7.36747e+06	-50989.1	955.819	-29754.1	0.000000	0.000000	6.192782	0.021549	NaN	0.000000	0.001612	0.001629	28.0801	0.019497	0.002055	9.489755	-13.6483	11.6867	-0.031476	0.191419	-0.962126	-0.963430	0.021549	9.489755	-0.963829	-7.387433E+12	-2.916986E-15	NaN
247	1.000000	0.202745	7.36747e+06	-50989.1	955.818	-29754.1	0.000000	0.000000	6.202804	0.007680	NaN	0.000000	0.001638	0.001600	28.0798	0.028147	0.001948	14.4457	-100.438	-164.989	-0.017681	0.201420	-0.952104	-0.953429	0.007680	14.4457	-0.952502	-5.197277E+12	-1.477612E-15	NaN
247	1.000000	0.212782	7.36747e+06	-50989.1	955.819	-29754.1	0.000000	0.000000	6.212839	-0.019702	NaN	0.000000	0.001592	0.001622	28.0799	0.046258	0.002037	22.7119	-118.096	13.357	-0.012772	0.211406	-0.942067	-0.943443	-0.019702	22.7119	-0.941417	-3.683409E+12	5.348850E-15	NaN
247	1.000000	0.222756	7.36747e+06	-50989.1	955.817	-29754.1	0.000000	0.000000	6.222816	0.026925	NaN	0.000000	0.001639	0.001643	28.0797	0.096618	0.002013	48.0022	73.6997	-164.715	0.011125	0.221456	-0.932093	-0.933393	0.026925	48.0022	-0.932513	-2.793301E+12	-9.639027E-15	NaN
247	1.000000	0.232765	7.36747e+06	-50989.1	955.818	-29754.1	0.000000	0.000000	6.232821	-0.043298	NaN	0.000000	0.001595	0.001682	28.079	0.108319	0.001939	55.8581	-41.0758	14.8525	-0.060838	0.231398	-0.922084	-0.923451	-0.043298	55.8581	-0.921503	-1.983779E+12	2.182596E-14	NaN
247	1.000000	0.242781	7.36747e+06	-50989.1	955.818	-29754.1	0.000000	0.000000	6.242838	-0.028331	NaN	0.000000	0.001613	0.001615	28.0788	0.054696	0.001985	27.5556	-173.893	-168.055	-0.010954	0.241473	-0.912068	-0.913376	-0.028331	27.5556	-0.911297	-1.444378E+12	1.961472E-14	NaN
247	1.000000	0.252787	7.36747e+06	-50989.1	955.818	-29754.1	0.000000	0.000000	6.252845	0.000959	NaN	0.000000	0.001575	0.001637	28.0784	0.154785	0.002101	73.6621	-17.8021	13.4235	-0.041700	0.251455	-0.902062	-0.903394	0.000959	73.6621	-0.902072	-1.084091E+12	-8.844696E-16	NaN
247	1.000000	0.262773	7.36747e+06	-50989.1	955.819	-29754.1	0.000000	0.000000	6.262834	0.054059	NaN	0.000000	0.001567	0.001582	28.0788	0.189956	0.001914	99.2309	-56.947	-169.433	0.077124	0.261489	-0.892076	-0.893360	0.054059	99.2309	-0.892484	-8.044473E+11	-6.719959E-14	NaN
247	1.000000	0.272800	7.36747e+06	-50989.1	955.819	-29754.1	0.000000	0.000000	6.272858	0.012708	NaN	0.000000	0.001579	0.001611	28.0786	0.072349	0.002105	34.3769	-6.551177	15.0953	-0.051863	0.271374	-0.882049	-0.883475	0.012708	34.3769	-0.882327	-5.863669E+11	-2.167286E-14	NaN
247	1.000000	0.282765	7.36747e+06	-50989.1	955.818	-29754.1	0.000000	0.000000	6.282822	-0.027872	NaN	0.000000	0.001609	0.001604	28.0788	0.083284	0.001948	42.7444	-4.484401	-164.806	-0.001998	0.281439	-0.872084	-0.873410	-0.027872	42.7444	-0.871595	-4.197837E+11	6.639589E-14	NaN
247	1.000000	0.292755	7.36747e+06	-50989.1	955.817	-29754.1	0.000000	0.000000	6.292815	0.050668	NaN	0.000000	0.001621	0.001631	28.0784	0.073751	0.001863	39.5779	-130.837	15.9274	0.095175	0.291461	-0.862094	-0.863388	0.050668	39.5779	-0.863054	-3.217023E+11	-1.575003E-13	NaN
247	1.000000	0.302767	7.36747e+06	-50989.1	955.817	-29754.1	0.000000	0.000000	6.302826	0.009358	NaN	0.000000	0.001622	0.001608	28.079	0.064828	0.001897	34.1804	71.8594	-166.494	-0.015259	0.301479	-0.852082	-0.853370	0.009358	34.1804	-0.852287	-2.299896E+11	-4.068771E-14	NaN
247	1.000000	0.312765	7.36747e+06	-50989.1	955.819	-29754.1	0.000000	0.000000	6.312823	-0.012397	NaN	0.000000	0.001590	0.001591	28.0785	0.111040	0.001841	60.3122	-158.682	15.2217	-0.055527	0.311400	-0.842084	-0.843449	-0.012397	60.3122	-0.841930	-1.665091E+11	7.445428E-14	NaN
247	1.000000	0.322823	7.36747e+06	-50989.1	955.817	-29754.1	0.000000	0.000000	6.322878	-0.077804	NaN	0.000000	0.001618	0.001600	28.079	0.002857	0.001935	1.477083	-178.008	-166.813	-0.043801	0.321473	-0.832026	-0.833376	-0.077804	1.477083	-0.792520	-3.558826E+10	2.186233E-12	NaN
247	1.000000	0.332804	7.36747e+06	-50989.1	955.818	-29754.1	0.000000	0.000000	6.332861	-0.036141	NaN	0.000000	0.001597	0.001589	28.0785	0.041897	0.001990	21.0576	70.3787	10.1955	-0.127930	0.331411	-0.822045	-0.823438	-0.036141	21.0576	-0.820758	-8.599770E+10	4.202552E-13	NaN
247	1.000000	0.342788	7.36747e+06	-50989.1	955.818	-29754.1	0.000000	0.000000	6.342847	0.024765	NaN	0.000000	0.001583	0.001594	28.079	0.069661	0.002015	34.5643	1.622487	-162.842	0.042097	0.341517	-0.812061	-0.813332	0.024765	34.5643	-0.812599	-6.665404E+10	-3.715468E-13	NaN
247	1.000000	0.352832	7.36747e+06	-50989.1	955.818	-29754.1	0.000000	0.000000	6.352888	-0.057841	NaN	0.000000	0.001586	0.001594	28.0786	0.041600	0.001999	20.8061	-37.3379	15.0423	-0.054001	0.351457	-0.802017	-0.803392	-0.057841	20.8061	-0.799932	-4.486862E+10	1.289127E-12	NaN
247	1.000000	0.362825	7.36747e+06	-50989.1	955.817	-29754.1	0.000000	0.000000	6.362883	-0.021622	NaN	0.000000	0.001575	0.001588	28.08	0.041629	0.001883	22.1044	-62.7501	-165.804	-0.030134	0.361529	-0.792024	-0.793320	-0.021622	22.1044	-0.791290	-3.424540E+10	6.313938E-13	NaN
247	1.000000	0.372861	7.36747e+06	-50989.1	955.819	-29754.1	0.000000	0.000000	6.372920	0.026406	NaN	0.000000	0.001535	0.001613	28.0798	0.041971	0.001981	21.1883	129.01	11.1704	0.008226	0.371495	-0.781988	-0.783354	0.026406	21.1883	-0.782923	-2.635988E+10	-1.001757E-12	NaN
247	1.000000	0.382838	7.36747e+06	-50989.1	955.818	-29754.1	0.000000	0.000000	6.382893	-0.067561	NaN	0.000000	0.001570	0.001592	28.0795	0.097421	0.001906	51.1156	109.547	-167.482	-0.000748	0.381513	-0.772011	-0.773336	-0.067561	51.1156	-0.771020	-1.816227E+10	3.719831E-12	NaN
247	1.000000	0.392837	7.36747e+06	-50989.1	955.818	-29754.1	0.000000	0.000000	6.392894	-0.022228	NaN	0.000000	0.001545	0.001600	28.0795	0.052388	0.001925	27.2084	144.335	13.0887	-0.013572	0.391504	-0.762012	-0.763345	-0.022228	27.2084	-0.761399	-1.343814E+10	1.654080E-12	NaN
247	1.000000	0.402821	7.36747e+06	-50989.1	955.818	-29754.1	0.000000	0.000000	6.402878	-0.045420	NaN	0.000000	0.001562	0.001608	28.0796	0.152968	0.002002	76.3983	-53.0339	-166.035	0.031464	0.401496	-0.752028	-0.753353	-0.045420	76.3983	-0.751582	-9.879858E+9	4.597246E-12	NaN
247	1.000000	0.412845	7.36747e+06	-50989.1	955.818	-29754.1	0.000000	0.000000	6.412903	-0.016802	NaN	0.000000	0.001579	0.001592	28.0797	0.037520	0.001999	18.7661	-38.1897	15.1927	0.012997	0.411526	-0.742004	-0.743323	-0.016802	18.7661	-0.741332	-7.164753E+9	2.345111E-12	NaN
247	1.000000	0.422822	7.36747e+06	-50989.1	955.819	-29754.1	0.000000	0.000000	6.422880	-0.019811	NaN	0.000000	0.001579	0.001608	28.0795	0.045881	0.001822	25.1844	114.606	-165.519	-0.042138	0.421480	-0.732027	-0.733369	-0.019811	25.1844	-0.731437	-5.252762E+9	3.771612E-12	NaN
247	1.000000	0.432868	7.36747e+06	-50989.1	955.818	-29754.1	0.000000	0.000000	6.432928	0.049580	NaN	0.000000	0.001599	0.001578	28.0797	0.018674	0.002067	9.033006	63.6304	12.4366	-0.028257	0.431506	-0.721981	-0.723343	0.049580	9.033006	-0.726097	-4.442334E+9	-1.116076E-11	NaN
247	1.000000	0.442851	7.36747e+06	-50989.1	955.818	-29754.1	0.000000	0.000000	6.442910	0.021422	NaN	0.000000	0.001550	0.001561	28.0797	0.085047	0.002008	42.3641	133.52	-167.188	-0.025269	0.441502	-0.711998	-0.713347	0.021422	42.3641	-0.712377	-2.887251E+9	-7.419685E-12	NaN
247	1.000000	0.452833	7.36747e+06	-50989.1	955.817	-29754.1	0.000000	0.000000	6.452886	-0.118941	NaN	0.000000	0.001546	0.001590	28.0798	0.048396	0.002091	23.1492	39.2474	13.0981	-0.047490	0.451495	-0.702016	-0.703354	-0.118941	23.1492	-0.698162	-1.846858E+9	6.440190E-11	NaN
247	1.000000	0.462853	7.36747e+06	-50989.1	955.817	-29754.1	0.000000	0.000000	6.462911	0.008048	NaN	0.000000	0.001558	0.001615	28.0796	0.111214	0.001984	56.0505	57.2496	-168.482	-0.021924	0.461583	-0.691996	-0.693266	0.008048	56.0505	-0.692104	-1.526393E+9	-5.272791E-12	NaN
247	1.000000	0.472845	7.36747e+06	-50989.1	955.818	-29754.1	0.000000	0.000000	6.472906	0.059744	NaN	0.000000	0.001596	0.001634	28.0793	0.134841	0.002095	64.3605	-146.835	14.0966	0.083138	0.471529	-0.682004	-0.683320	0.059744	64.3605	-0.682700	-1.135351E+9	-5.262190E-11	NaN
247	1.000000	0.482913	7.36747e+06	-50989.1	955.819	-29754.1	0.000000	0.000000	6.482972	0.029517	NaN	0.000000	0.001582	0.001648	28.0796	0.085553	0.002016	42.4446	119.371	-168.471	0.015726	0.481604	-0.671936	-0.673245	0.029517	42.4446	-0.672458	-8.222968E+8	-3.589528E-11	NaN
247	1.000000	0.492856	7.36747e+06	-50989.1	955.818	-29754.1	0.000000	0.000000	6.492912	-0.050088	NaN	0.000000	0.001588	0.001624	28.0799	0.068255	0.001965	34.7367	132.583	14.2867	-0.076150	0.491560	-0.661993	-0.663289	-0.050088	34.7367	-0.660912	-5.714195E+8	8.765563E-11	NaN
247	1.000000	0.502892	7.36747e+06	-50989.1	955.818	-29754.1	0.000000	0.000000	6.502951	0.015400	NaN	0.000000	0.001669	0.001656	28.0785	0.070586	0.001884	37.4633	-22.2924	-168.871	0.051615	0.501593	-0.651957	-0.653256	0.015400	37.4633	-0.652265	-4.349952E+8	-3.540369E-11	NaN
247	1.000000	0.512879	7.36747e+06	-50989.1	955.818	-29754.1	0.000000	0.000000	6.512938	0.014734	NaN	0.000000	0.001678	0.001639	28.0786	0.045542	0.001909	23.8587	-135.933	12.6056	-0.000392	0.511520	-0.641970	-0.643329	0.014734	23.8587	-0.642433	-3.189127E+8	-4.619960E-11	NaN
247	1.000000	0.522881	7.36747e+06	-50989.1	955.819	-29754.1	0.000000	0.000000	6.522939	0.004488	NaN	0.000000	0.001647	0.001582	28.0787	0.063077	0.001927	32.7322	-175.912	-164.134	0.003197	0.521595	-0.631968	-0.633254	0.004488	32.7322	-0.632071	-2.298595E+8	-1.952441E-11	NaN
247	1.000000	0.532871	7.36747e+06	-50989.1	955.819	-29754.1	0.000000	0.000000	6.532929	0.003985	NaN	0.000000	0.001668	0.001601	28.0786	0.030132	0.002037	14.7941	162.862	14.6574	-0.114462	0.531502	-0.621978	-0.623347	0.003985	14.7941	-0.622180	-1.681102E+8	-2.370566E-11	NaN
247	1.000000	0.542913	7.36747e+06	-50989.1	955.817	-29754.1	0.000000	0.000000	6.542969	-0.063927	NaN	0.000000	0.001657	0.001612	28.0787	0.021022	0.002105	9.987415	-126.736	-162.395	-0.013936	0.541597	-0.611936	-0.613252	-0.063927	9.987415	-0.607135	-1.043978E+8	6.123381E-10	NaN
247	1.000000	0.552911	7.36747e+06	-50989.1	955.818	-29754.1	0.000000	0.000000	6.552968	-0.017733	NaN	0.000000	0.001653	0.001616	28.0789	0.027753	0.002046	13.5613	109.463	12.2651	-0.043628	0.551594	-0.601938	-0.603255	-0.017733	13.5613	-0.600958	-8.583199E+7	2.065975E-10	NaN
247	1.000000	0.562914	7.36747e+06	-50989.1	955.819	-29754.1	0.000000	0.000000	6.562970	-0.044969	NaN	0.000000	0.001678	0.001632	28.0787	0.056342	0.002010	28.0293	0.254759	-168.288	-0.114062	0.561571	-0.591935	-0.593278	-0.044969	28.0293	-0.590732	-6.205257E+7	7.246931E-10	NaN
247	1.000000	0.572919	7.36747e+06	-50989.1	955.818	-29754.1	0.000000	0.000000	6.572976	-0.034661	NaN	0.000000	0.001660	0.001614	28.0789	0.048688	0.001905	25.5546	105.324	16.5385	-0.071027	0.571561	-0.581930	-0.583288	-0.034661	25.5546	-0.580912	-4.542746E+7	7.629870E-10	NaN
247	1.000000	0.582941	7.36747e+06	-50989.1	955.818	-29754.1	0.000000	0.000000	6.583002	0.069062	NaN	0.000000	0.001662	0.001576	28.0787	0.080622	0.001968	40.9642	178.269	-168.044	0.055188	0.581584	-0.571908	-0.573265	0.069062	40.9642	-0.573173	-3.551922E+7	-1.944344E-9	NaN
247	1.000000	0.592928	7.36747e+06	-50989.1	955.817	-29754.1	0.000000	0.000000	6.592982	-0.100009	NaN	0.000000	0.001657	0.001597	28.079	0.015298	0.001939	7.890872	137.674	12.6865	-0.031116	0.591565	-0.561921	-0.563284	-0.100009	7.890872	-0.552416	-1.834037E+7	5.452971E-9	NaN
247	1.000000	0.602921	7.36747e+06	-50989.1	955.819	-29754.1	0.000000	0.000000	6.602980	0.023814	NaN	0.000000	0.001662	0.001595	28.0788	0.054716	0.002020	27.0937	-84.3433	-163.827	-0.021283	0.601664	-0.551928	-0.553185	0.023814	27.0937	-0.552588	-1.844131E+7	-1.291338E-9	NaN
247	1.000000	0.612929	7.36747e+06	-50989.1	955.819	-29754.1	0.000000	0.000000	6.612989	0.044910	NaN	0.000000	0.001646	0.001601	28.0789	0.037220	0.001946	19.1303	68.6765	10.7454	0.078462	0.611562	-0.541920	-0.543286	0.044910	19.1303	-0.543681	-1.388018E+7	-3.235554E-9	NaN
247	1.000000	0.622936	7.36747e+06	-50989.1	955.818	-29754.1	0.000000	0.000000	6.622994	0.009741	NaN	0.000000	0.001681	0.001621	28.0786	0.028237	0.002058	13.7182	45.8551	-170.968	-0.015818	0.621632	-0.531913	-0.533217	0.009741	13.7182	-0.532446	-9.69473e+06	-1.004775E-9	NaN
247	1.000000	0.632954	7.36747e+06	-50989.1	955.818	-29754.1	0.000000	0.000000	6.633009	-0.073846	NaN	0.000000	0.001666	0.001585	28.0792	0.119313	0.002063	57.8247	-118.68	13.4939	-0.022784	0.631565	-0.521895	-0.523284	-0.073846	57.8247	-0.520938	-6.70866e+06	1.100764E-8	NaN
247	1.000000	0.642953	7.36747e+06	-50989.1	955.817	-29754.1	0.000000	0.000000	6.643012	0.032912	NaN	0.000000	0.001564	0.001663	28.0799	0.099170	0.001875	52.903	-2.029600	-168.416	-0.068716	0.641617	-0.511896	-0.513232	0.032912	52.903	-0.512363	-5.09707e+06	-6.457094E-9	NaN
247	1.000000	0.652954	7.36747e+06	-50989.1	955.819	-29754.1	0.000000	0.000000	6.653009	-0.073036	NaN	0.000000	0.001587	0.001592	28.0798	0.065326	0.001959	33.3549	-143.946	14.2208	-0.065663	0.651590	-0.501895	-0.503259	-0.073036	33.3549	-0.500253	-3.45575e+06	2.113460E-8	NaN
247	1.000000	0.662955	7.36747e+06	-50989.1	955.818	-29754.1	0.000000	0.000000	6.663013	-0.010509	NaN	0.000000	0.001613	0.001605	28.0796	0.039791	0.002062	19.3015	-45.0945	-165.312	-0.015906	0.661595	-0.491894	-0.493254	-0.010509	19.3015	-0.491486	-2.60708e+06	4.031106E-9	NaN
247	1.000000	0.672945	7.36747e+06	-50989.1	955.818	-29754.1	0.000000	0.000000	6.673002	-0.023149	NaN	0.000000	0.001628	0.001604	28.0798	0.047596	0.002066	23.0345	142.5	13.3511	-0.042275	0.671636	-0.481904	-0.483213	-0.023149	23.0345	-0.481151	-1.86911e+06	1.238521E-8	NaN
247	1.000000	0.682967	7.36747e+06	-50989.1	955.817	-29754.1	0.000000	0.000000	6.683026	0.014081	NaN	0.000000	0.001622	0.001583	28.0797	0.070730	0.002092	33.8069	132.137	-166.536	-0.015099	0.681641	-0.471882	-0.473208	0.014081	33.8069	-0.472195	-1.40017e+06	-1.005684E-8	NaN
247	1.000000	0.692953	7.36747e+06	-50989.1	955.819	-29754.1	0.000000	0.000000	6.693009	-0.049287	NaN	0.000000	0.001609	0.001611	28.0796	0.046584	0.001848	25.2055	-5.322102	13.3136	-0.081870	0.691599	-0.461896	-0.463250	-0.049287	25.2055	-0.460430	-957320	5.148437E-8	NaN
247	1.000000	0.702953	7.36747e+06	-50989.1	955.818	-29754.1	0.000000	0.000000	6.703008	-0.092417	NaN	0.000000	0.001647	0.001602	28.0798	0.132386	0.002031	65.1985	-75.3818	-168.577	-0.108146	0.701631	-0.451896	-0.453218	-0.092417	65.1985	-0.450833	-701565	1.317298E-7	NaN
247	1.000000	0.712969	7.36747e+06	-50989.1	955.818	-29754.1	0.000000	0.000000	6.713025	-0.048100	NaN	0.000000	0.001643	0.001581	28.0799	0.011933	0.002082	5.731509	96.2116	11.8171	-0.042111	0.711624	-0.441880	-0.443225	-0.048100	5.731509	-0.435586	-427598	1.124881E-7	NaN
247	1.000000	0.722974	7.36747e+06	-50989.1	955.819	-29754.1	0.000000	0.000000	6.723031	-0.031717	NaN	0.000000	0.001682	0.001565	28.0796	0.075813	0.001829	41.4559	88.1032	-169.717	0.057203	0.721674	-0.431875	-0.433175	-0.031717	41.4559	-0.431301	-371931	8.527743E-8	NaN
247	1.000000	0.733032	7.36747e+06	-50989.1	955.818	-29754.1	0.000000	0.000000	6.733090	-0.013507	NaN	0.000000	0.001674	0.001566	28.0797	0.151048	0.002027	74.5079	-37.2225	15.3989	0.040545	0.731609	-0.421817	-0.423240	-0.013507	74.5079	-0.421681	-271798	4.969408E-8	NaN
247	1.000000	0.742956	7.36747e+06	-50989.1	955.817	-29754.1	0.000000	0.000000	6.743017	0.061988	NaN	0.000000	0.001667	0.001561	28.0799	0.070635	0.002123	33.2742	-34.2324	-170.17	0.040282	0.741680	-0.411893	-0.413169	0.061988	33.2742	-0.413290	-206615	-3.000173E-7	NaN
247	1.000000	0.752967	7.36747e+06	-50989.1	955.818	-29754.1	0.000000	0.000000	6.753022	-0.059712	NaN	0.000000	0.001657	0.001587	28.0799	0.103765	0.001923	53.953	104.266	12.8591	-0.059426	0.751596	-0.401882	-0.403253	-0.059712	53.953	-0.401052	-138356	4.315839E-7	NaN
247	1.000000	0.762976	7.36747e+06	-50989.1	955.818	-29754.1	0.000000	0.000000	6.763035	0.020657	NaN	0.000000	0.001611	0.001603	28.0797	0.076144	0.002157	35.3038	134.212	-166.197	-0.003741	0.761684	-0.391873	-0.393165	0.020657	35.3038	-0.392312	-103806	-1.989985E-7	NaN
247	1.000000	0.772993	7.36747e+06	-50989.1	955.817	-29754.1	0.000000	0.000000	6.773050	-0.012873	NaN	0.000000	0.001602	0.001588	28.0785	0.062591	0.001979	31.6233	172.848	12.9566	0.001484	0.771632	-0.381856	-0.383217	-0.012873	31.6233	-0.381551	-72802.3	1.768205E-7	NaN
247	1.000000	0.783005	7.36747e+06	-50989.1	955.818	-29754.1	0.000000	0.000000	6.783063	-0.004674	NaN	0.000000	0.001647	0.001608	28.0789	0.021839	0.001968	11.0974	-34.7533	-165.065	-0.060524	0.781668	-0.371844	-0.373181	-0.004674	11.0974	-0.371528	-52254.6	8.944417E-8	NaN
247	1.000000	0.793006	7.36747e+06	-50989.1	955.818	-29754.1	0.000000	0.000000	6.793061	-0.079702	NaN	0.000000	0.001621	0.001618	28.0785	0.038207	0.002012	18.9866	64.5008	12.0656	-0.090568	0.791621	-0.361843	-0.363228	-0.079702	18.9866	-0.358694	-34116.6	2.336164E-6	NaN
247	1.000000	0.803005	7.36747e+06	-50989.1	955.819	-29754.1	0.000000	0.000000	6.803062	-0.017746	NaN	0.000000	0.001629	0.001627	28.0785	0.062970	0.002046	30.7763	128.475	-166.144	0.053184	0.801697	-0.351844	-0.353152	-0.017746	30.7763	-0.351412	-26760	6.631641E-7	NaN
247	1.000000	0.813038	7.36747e+06	-50989.1	955.818	-29754.1	0.000000	0.000000	6.813096	-0.024178	NaN	0.000000	0.001644	0.001610	28.0784	0.123252	0.002068	59.6106	21.6962	12.2773	-0.018118	0.811628	-0.341811	-0.343221	-0.024178	59.6106	-0.341506	-19209	1.258682E-6	NaN
247	1.000000	0.823018	7.36747e+06	-50989.1	955.818	-29754.1	0.000000	0.000000	6.823077	0.022940	NaN	0.000000	0.001624	0.001598	28.0788	0.085712	0.001979	43.305	-79.4419	-165.9	-0.030035	0.821702	-0.331831	-0.333147	0.022940	43.305	-0.332228	-14062.5	-1.631307E-6	NaN
247	1.000000	0.833059	7.36747e+06	-50989.1	955.818	-29754.1	0.000000	0.000000	6.833115	-0.041472	NaN	0.000000	0.001605	0.001651	28.0788	0.101892	0.002152	47.338	88.4506	10.5285	-0.012782	0.831608	-0.321790	-0.323241	-0.041472	47.338	-0.321133	-9667.44	4.289866E-6	NaN
247	1.000000	0.843007	7.36747e+06	-50989.1	955.818	-29754.1	0.000000	0.000000	6.843067	0.039798	NaN	0.000000	0.001619	0.001678	28.079	0.164831	0.001880	87.6956	-126.538	-166.807	0.017337	0.841742	-0.311842	-0.313107	0.039798	87.6956	-0.312182	-7133.88	-5.578724E-6	NaN
247	1.000000	0.853033	7.36747e+06	-50989.1	955.818	-29754.1	0.000000	0.000000	6.853090	-0.022823	NaN	0.000000	0.001643	0.001669	28.0788	0.074552	0.001941	38.4098	134.749	13.9092	-0.034275	0.851670	-0.301816	-0.303179	-0.022823	38.4098	-0.301370	-4932.06	4.627572E-6	NaN
247	1.000000	0.863029	7.36747e+06	-50989.1	955.819	-29754.1	0.000000	0.000000	6.863087	-0.012296	NaN	0.000000	0.001610	0.001713	28.0792	0.086390	0.001814	47.633	-118.076	-166.282	-1.842607E-5	0.861680	-0.291820	-0.293169	-0.012296	47.633	-0.291626	-3528.99	3.484254E-6	NaN
247	1.000000	0.873057	7.36747e+06	-50989.1	955.819	-29754.1	0.000000	0.000000	6.873114	-0.036308	NaN	0.000000	0.001584	0.001664	28.0785	0.085824	0.001868	45.9476	-70.8106	13.8142	-0.023079	0.871670	-0.281792	-0.283179	-0.036308	45.9476	-0.281199	-2460.69	1.475517E-5	NaN
247	1.000000	0.883016	7.36747e+06	-50989.1	955.818	-29754.1	0.000000	0.000000	6.883073	-0.029167	NaN	0.000000	0.001566	0.001656	28.0791	0.030138	0.002078	14.5068	93.7921	-170.233	-0.043327	0.881768	-0.271833	-0.273081	-0.029167	14.5068	-0.270325	-1684.57	1.731441E-5	NaN
247	1.000000	0.893063	7.36747e+06	-50989.1	955.819	-29754.1	0.000000	0.000000	6.893123	0.040481	NaN	0.000000	0.001585	0.001724	28.0783	0.102078	0.002005	50.9105	-98.7466	11.1149	0.057235	0.891700	-0.261786	-0.263149	0.040481	50.9105	-0.262382	-1274.66	-3.175819E-5	NaN
247	1.000000	0.903033	7.36747e+06	-50989.1	955.818	-29754.1	0.000000	0.000000	6.903090	-0.026425	NaN	0.000000	0.001645	0.001699	28.0789	0.065140	0.002067	31.5213	136.741	-167.845	-0.094884	0.901705	-0.251816	-0.253144	-0.026425	31.5213	-0.251187	-857.668	3.081042E-5	NaN
247	1.000000	0.913071	7.36747e+06	-50989.1	955.818	-29754.1	0.000000	0.000000	6.913130	0.002773	NaN	0.000000	0.001655	0.001669	28.0794	0.137014	0.001933	70.8863	90.3162	11.4051	-0.061465	0.911682	-0.241778	-0.243167	0.002773	70.8863	-0.241807	-613.41	-4.520791E-6	NaN
247	1.000000	0.923051	7.36747e+06	-50989.1	955.817	-29754.1	0.000000	0.000000	6.923107	-0.054044	NaN	0.000000	0.001630	0.001688	28.0798	0.036938	0.001938	19.0568	-147.392	-166.968	-0.028374	0.921823	-0.231798	-0.233026	-0.054044	19.0568	-0.229671	-395.664	0.000137	NaN
247	1.000000	0.933045	7.36747e+06	-50989.1	955.819	-29754.1	0.000000	0.000000	6.933102	-0.027348	NaN	0.000000	0.001635	0.001710	28.0796	0.052500	0.001989	26.3905	159.821	12.4442	-0.071845	0.931698	-0.221804	-0.223151	-0.027348	26.3905	-0.221027	-288.452	9.480909E-5	NaN
247	1.000000	0.943053	7.36747e+06	-50989.1	955.819	-29754.1	0.000000	0.000000	6.943111	0.010880	NaN	0.000000	0.001599	0.001684	28.0796	0.040054	0.002177	18.3983	26.9397	-165.395	0.007485	0.941745	-0.211796	-0.213104	0.010880	18.3983	-0.212240	-208.466	-5.219320E-5	NaN
247	1.000000	0.953062	7.36747e+06	-50989.1	955.818	-29754.1	0.000000	0.000000	6.953120	0.004281	NaN	0.000000	0.001615	0.001702	28.0794	0.040593	0.002004	20.2598	44.6585	16.6323	0.017919	0.951683	-0.201787	-0.203166	0.004281	20.2598	-0.201945	-141.783	-3.019422E-5	NaN
247	1.000000	0.963065	7.36747e+06	-50989.1	955.818	-29754.1	0.000000	0.000000	6.963124	0.014204	NaN	0.000000	0.001611	0.001760	28.0795	0.113390	0.001984	57.1647	-169.562	-167.009	-0.058388	0.961787	-0.191784	-0.193062	0.014204	57.1647	-0.191971	-97.0269	-0.000146	NaN
247	1.000000	0.973062	7.36747e+06	-50989.1	955.817	-29754.1	0.000000	0.000000	6.973121	0.011918	NaN	0.000000	0.001604	0.001650	28.0796	0.068793	0.001908	36.0462	155.262	10.4322	0.056614	0.971697	-0.181787	-0.183152	0.011918	36.0462	-0.182035	-66.072	-0.000180	NaN
247	1.000000	0.983094	7.36747e+06	-50989.1	955.818	-29754.1	0.000000	0.000000	6.983150	-0.045837	NaN	0.000000	0.001604	0.001682	28.0794	0.052902	0.002074	25.5042	48.5758	-165.642	-0.015450	0.981768	-0.171755	-0.173081	-0.045837	25.5042	-0.170407	-41.7525	0.001098	NaN
247	1.000000	0.993086	7.36747e+06	-50989.1	955.818	-29754.1	0.000000	0.000000	6.993142	-0.041517	NaN	0.000000	0.001632	0.001700	28.0793	0.075492	0.002141	35.2552	-160.76	14.8361	-0.032364	0.991710	-0.161763	-0.163139	-0.041517	35.2552	-0.160880	-28.4191	0.001461	NaN
247	1.000000	1.003068	7.36747e+06	-50989.1	955.818	-29754.1	0.000000	0.000000	7.003122	-0.092087	NaN	0.000000	0.001625	0.001709	28.0794	0.094529	0.001901	49.732	-60.4992	-163.879	-0.135299	1.001769	-0.151781	-0.153080	-0.092087	49.732	-0.150393	-18.4145	0.005001	NaN
247	1.000000	1.013082	7.36747e+06	-50989.1	955.82	-29754.1	0.000000	0.000000	7.013138	-0.049373	NaN	0.000000	0.001624	0.001674	28.0796	0.026127	0.001901	13.7458	-96.0516	18.0088	-0.026514	1.011763	-0.141767	-0.143086	-0.049373	13.7458	-0.139073	-11.3639	0.004345	NaN
247	1.000000	1.023136	7.36747e+06	-50989.1	955.819	-29754.1	0.000000	0.000000	7.023194	0.005142	NaN	0.000000	0.001651	0.001717	28.0794	0.061652	0.002011	30.6611	95.9619	-165.431	-0.041059	1.021805	-0.131713	-0.133044	0.005142	30.6611	-0.131839	-8.272203	-0.000622	NaN
247	1.000000	1.033151	7.36747e+06	-50989.1	955.818	-29754.1	0.000000	0.000000	7.033211	0.050307	NaN	0.000000	0.001590	0.001681	28.0796	0.057140	0.001934	29.5458	-24.7056	13.138	0.026196	1.031732	-0.121698	-0.123117	0.050307	29.5458	-0.122975	-5.543293	-0.009075	NaN
247	1.000000	1.043099	7.36747e+06	-50989.1	955.819	-29754.1	0.000000	0.000000	7.043154	-0.089075	NaN	0.000000	0.001627	0.001724	28.0792	0.161571	0.002090	77.3102	74.4061	-168.203	-0.060502	1.041796	-0.111750	-0.113053	-0.089075	77.3102	-0.110886	-3.136963	0.028395	NaN
247	1.000000	1.053120	7.36747e+06	-50989.1	955.818	-29754.1	0.000000	0.000000	7.053173	-0.103202	NaN	0.000000	0.001633	0.001682	28.0782	0.088489	0.002047	43.2372	152.421	14.062	-0.089536	1.051752	-0.101729	-0.103097	-0.103202	43.2372	-0.099939	-1.821493	0.056658	NaN
247	1.000000	1.063103	7.36747e+06	-50989.1	955.819	-29754.1	0.000000	0.000000	7.063158	-0.074566	NaN	0.000000	0.001596	0.001669	28.0781	0.027456	0.002005	13.6915	-5.253484	-167.253	-0.094296	1.061825	-0.091746	-0.093024	-0.074566	13.6915	-0.087662	-0.951824	0.078340	NaN
247	1.000000	1.073141	7.36747e+06	-50989.1	955.818	-29754.1	0.000000	0.000000	7.073194	-0.142287	NaN	0.000000	0.001646	0.001695	28.0781	0.118517	0.001897	62.4773	35.6321	17.1092	-0.077726	1.071719	-0.081708	-0.083130	-0.142287	62.4773	-0.080000	-0.618978	0.229873	NaN
247	1.000000	1.083120	7.36747e+06	-50989.1	955.817	-29754.1	0.000000	0.000000	7.083180	0.043713	NaN	0.000000	0.001678	0.001713	28.0783	0.043360	0.001996	21.7231	-119.969	-169.134	0.036846	1.081824	-0.071729	-0.073025	0.043713	21.7231	-0.073239	-0.415597	-0.105181	NaN
247	1.000000	1.093119	7.36747e+06	-50989.1	955.818	-29754.1	0.000000	0.000000	7.093176	-0.034782	NaN	0.000000	0.001693	0.001621	28.0783	0.114321	0.002019	56.6346	160.079	10.6152	-0.028196	1.091793	-0.061730	-0.063056	-0.034782	56.6346	-0.061269	-0.195772	0.177668	NaN
247	1.000000	1.103159	7.36747e+06	-50989.1	955.817	-29754.1	0.000000	0.000000	7.103215	-0.044129	NaN	0.000000	0.001608	0.001641	28.0781	0.113609	0.002000	56.7901	129.112	-166.94	-0.121757	1.101823	-0.051690	-0.053026	-0.044129	56.7901	-0.051108	-0.098551	0.447775	NaN
247	1.000000	1.113147	7.36747e+06	-50989.1	955.819	-29754.1	0.000000	0.000000	7.113203	-0.044866	NaN	0.000000	0.001640	0.001572	28.0786	0.015538	0.001985	7.826749	-96.4142	10.7076	-0.026805	1.111741	-0.041702	-0.043108	-0.044866	7.826749	-0.037403	-0.037751	1.188493	NaN
247	1.000000	1.123154	7.36747e+06	-50989.1	955.818	-29754.1	0.000000	0.000000	7.123209	-0.079752	NaN	0.000000	0.001616	0.001629	28.0783	0.033055	0.002100	15.7422	-109.985	-167.174	-0.036940	1.121807	-0.031695	-0.033042	-0.079752	15.7422	-0.027895	-0.020143	3.959302	NaN
247	1.000000	1.133167	7.36747e+06	-50989.1	955.818	-29754.1	0.000000	0.000000	7.133224	-0.038966	NaN	0.000000	0.001628	0.001644	28.0783	0.049745	0.001965	25.3177	-118.999	13.1545	-0.017883	1.131798	-0.021682	-0.023051	-0.038966	25.3177	-0.020527	-0.012955	3.007861	NaN
247	1.000000	1.143157	7.36747e+06	-50989.1	955.818	-29754.1	0.000000	0.000000	7.143215	0.005356	NaN	0.000000	0.001648	0.001637	28.0782	0.029720	0.002111	14.0782	38.605	-165.439	0.009096	1.141806	-0.011692	-0.013043	0.005356	14.0782	-0.011977	-0.007516	-0.712685	NaN
247	1.000000	1.153146	7.36747e+06	-50989.1	955.818	-29754.1	0.000000	0.000000	7.153201	-0.074940	NaN	0.000000	0.001630	0.001659	28.0784	0.043604	0.002023	21.5547	71.4694	12.2794	-0.001940	1.151825	-0.001703	-0.003024	-0.074940	21.5547	0.000904	0.000688	-108.945	750.864
247	1.000000	1.163127	7.36747e+06	-50989.1	955.818	-29754.1	0.000000	0.000000	7.163396	5.125678	NaN	0.000000	0.001617	0.001613	28.0782	5.723114	0.001754	3263.8	15.6806	-172.908	4.062632	1.161797	0.008278	0.006948	5.125678	3263.8	0.007100	0.006133	835.768	38077
247	2.000000	1.168269	7.36747e+06	-50989.1	955.819	-29754.1	0.000000	0.000000	7.168754	10.3651	NaN	0.000000	0.001626	0.001678	28.0783	10.013	0.001584	6320.95	9.276456	4.841977	9.843258	1.167892	0.013420	0.013043	10.3651	6320.95	0.012190	0.011719	884.473	53347.1
247	2.000000	1.170714	7.36747e+06	-50989.1	955.818	-29754.1	0.000000	0.000000	7.171344	13.9014	NaN	0.000000	0.001615	0.001685	28.0795	12.4447	0.001807	6885.98	5.364196	-172.38	12.948	1.170418	0.015865	0.015569	13.9014	6885.98	0.014351	0.014430	963.374	52373
247	2.000000	1.173233	7.36747e+06	-50989.1	955.818	-29754.1	0.000000	0.000000	7.173986	16.8985	NaN	0.000000	0.001590	0.001707	28.0798	15.9792	0.001871	8542.73	9.362860	0.522803	16.2608	1.172822	0.018384	0.017973	16.8985	8542.73	0.016900	0.017904	943.852	58330.8
247	2.000000	1.175647	7.36747e+06	-50989.1	955.818	-29754.1	0.000000	0.000000	7.176623	22.3219	NaN	0.000000	0.001613	0.001689	28.0794	18.2567	0.001852	9859.03	8.023730	-178.658	21.1272	1.175382	0.020798	0.020533	22.3219	9859.03	0.019100	0.021147	1055.55	61941.3
247	2.000000	1.178159	7.36747e+06	-50989.1	955.817	-29754.1	0.000000	0.000000	7.179376	28.1859	NaN	0.000000	0.001585	0.001684	28.0798	20.6405	0.001740	11865.3	8.718961	-0.051723	26.5967	1.177780	0.023310	0.022931	28.1859	11865.3	0.021528	0.025001	1127.38	68559.9
247	2.000000	1.180687	7.36747e+06	-50989.1	955.819	-29754.1	0.000000	0.000000	7.182130	33.6784	NaN	0.000000	0.001605	0.001711	28.0796	22.9877	0.001686	13634.6	5.352243	-177.437	34.7304	1.180381	0.025838	0.025532	33.6784	13634.6	0.023985	0.029195	1153.56	72905.4
247	2.000000	1.183173	7.36747e+06	-50989.1	955.817	-29754.1	0.000000	0.000000	7.184855	39.4931	NaN	0.000000	0.001613	0.001683	28.08	26.0593	0.001896	13741.4	7.178082	-0.055028	39.0933	1.182753	0.028324	0.027904	39.4931	13741.4	0.026168	0.033175	1190.45	68928.5
247	2.000000	1.185629	7.36747e+06	-50989.1	955.818	-29754.1	0.000000	0.000000	7.187636	47.3965	NaN	0.000000	0.001644	0.001717	28.0794	28.2392	0.001798	15708.3	10.0225	175.944	47.0911	1.185318	0.030780	0.030469	47.3965	15708.3	0.028517	0.037725	1256.35	73890
247	2.000000	1.188204	7.36747e+06	-50989.1	955.818	-29754.1	0.000000	0.000000	7.190528	55.0984	NaN	0.000000	0.001671	0.001667	28.0796	30.4149	0.001784	17048.1	7.915657	-3.236453	54.7858	1.187768	0.033355	0.032919	55.0984	17048.1	0.030931	0.042695	1290.51	75380.9
247	2.000000	1.190622	7.36747e+06	-50989.1	955.818	-29754.1	0.000000	0.000000	7.193315	64.0891	NaN	0.000000	0.001646	0.001679	28.0795	33.1485	0.001771	18721.9	7.277411	175.852	63.095	1.190314	0.035773	0.035465	64.0891	18721.9	0.033205	0.047649	1345.01	78360
247	2.000000	1.193111	7.36747e+06	-50989.1	955.819	-29754.1	0.000000	0.000000	7.196173	73.0519	NaN	0.000000	0.001645	0.001739	28.0797	34.5764	0.001658	20852.9	1.603084	0.235182	70.1929	1.192795	0.038262	0.037946	73.0519	20852.9	0.035635	0.053234	1372.27	82574.3
247	2.000000	1.195589	7.36747e+06	-50989.1	955.82	-29754.1	0.000000	0.000000	7.199032	82.3133	NaN	0.000000	0.001622	0.001712	28.0795	38.658	0.001743	22182.2	6.750879	174.122	80.5617	1.195361	0.040740	0.040512	82.3133	22182.2	0.037957	0.058855	1398.58	83538.6
247	2.000000	1.198133	7.36747e+06	-50989.1	955.819	-29754.1	0.000000	0.000000	7.202146	96.1608	NaN	0.000000	0.001648	0.001732	28.0795	39.9315	0.001782	22411.9	5.427011	-2.714539	94.8178	1.197783	0.043284	0.042934	96.1608	22411.9	0.040066	0.064199	1497.86	80814.4
247	2.000000	1.200626	7.36747e+06	-50989.1	955.818	-29754.1	0.000000	0.000000	7.204964	104.065	NaN	0.000000	0.001598	0.001711	28.0796	41.9325	0.001683	24909.4	5.194842	175.594	104.361	1.200319	0.045777	0.045470	104.065	24909.4	0.042644	0.071039	1464.91	85386.4
247	2.000000	1.203067	7.36747e+06	-50989.1	955.819	-29754.1	0.000000	0.000000	7.207784	113.285	NaN	0.000000	0.001616	0.001695	28.0795	44.3681	0.001728	25676.2	2.231996	-2.139365	109.921	1.202780	0.048218	0.047931	113.285	25676.2	0.044909	0.077329	1464.98	84359.5
247	2.000000	1.205617	7.36747e+06	-50989.1	955.819	-29754.1	0.000000	0.000000	7.210897	126.994	NaN	0.000000	0.001645	0.001707	28.0782	49.6912	0.001886	26351.6	8.924152	171.98	126.917	1.205269	0.050768	0.050420	126.994	26351.6	0.047153	0.083818	1515.12	83159.6
247	2.000000	1.208139	7.36747e+06	-50989.1	955.82	-29754.1	0.000000	0.000000	7.213881	138.21	NaN	0.000000	0.001644	0.001676	28.0782	50.8362	0.001785	28485.8	5.446387	-5.126902	136.665	1.207689	0.053290	0.052840	138.21	28485.8	0.049651	0.091338	1513.17	86114.2
247	2.000000	1.210544	7.36747e+06	-50989.1	955.82	-29754.1	0.000000	0.000000	7.216914	153.485	NaN	0.000000	0.001632	0.001706	28.0784	52.9599	0.001842	28745.1	4.788697	175.216	149.724	1.210204	0.055695	0.055355	153.485	28745.1	0.051691	0.097710	1570.81	84016.9
247	2.000000	1.213061	7.36747e+06	-50989.1	955.82	-29754.1	0.000000	0.000000	7.219959	166.336	NaN	0.000000	0.001603	0.001658	28.0779	54.9992	0.001808	30424.8	2.161693	-2.183229	161.983	1.212757	0.058212	0.057908	166.336	30424.8	0.054111	0.105543	1576	85563.1
247	2.000000	1.215578	7.36747e+06	-50989.1	955.819	-29754.1	0.000000	0.000000	7.223105	181.613	NaN	0.000000	0.001609	0.001678	28.0783	58.0672	0.001735	33472.6	6.232319	172.225	179.702	1.215272	0.060729	0.060423	181.613	33472.6	0.056660	0.114105	1591.64	90533.7
247	2.000000	1.218079	7.36747e+06	-50989.1	955.821	-29754.1	0.000000	0.000000	7.226271	197.789	NaN	0.000000	0.001627	0.001746	28.0782	59.6838	0.001734	34411.8	4.697269	-5.615981	194.747	1.217751	0.063230	0.062902	197.789	34411.8	0.058919	0.121961	1621.73	90026.3
247	2.000000	1.220545	7.36747e+06	-50989.1	955.819	-29754.1	0.000000	0.000000	7.229263	210.571	NaN	0.000000	0.001630	0.001674	28.0784	61.7948	0.001858	33258.2	4.100086	174.194	206.971	1.220272	0.065696	0.065423	210.571	33258.2	0.060948	0.129228	1629.45	84526.5
247	2.000000	1.223056	7.36747e+06	-50989.1	955.818	-29754.1	0.000000	0.000000	7.232571	229.949	NaN	0.000000	0.001650	0.001663	28.0781	64.8333	0.001829	35438.5	4.831688	-6.308751	226.73	1.222690	0.068207	0.067841	229.949	35438.5	0.063341	0.138059	1665.58	87139.7
247	2.000000	1.225560	7.36747e+06	-50989.1	955.82	-29754.1	0.000000	0.000000	7.235414	238.209	NaN	0.000000	0.001664	0.001663	28.0782	67.4356	0.001768	38134.8	3.996144	173.081	236.247	1.225274	0.070711	0.070425	238.209	38134.8	0.066026	0.148300	1606.26	90473.9
247	2.000000	1.228138	7.36747e+06	-50989.1	955.82	-29754.1	0.000000	0.000000	7.238708	255.603	NaN	0.000000	0.001655	0.001697	28.0782	69.4452	0.001842	37706.6	5.065443	-6.364736	257.355	1.227690	0.073289	0.072841	255.603	37706.6	0.068205	0.156863	1629.47	86982.1
247	2.000000	1.230619	7.36747e+06	-50989.1	955.82	-29754.1	0.000000	0.000000	7.241743	269.098	NaN	0.000000	0.001615	0.001586	28.0781	70.5865	0.001795	39314.7	0.819814	176.992	271.469	1.230278	0.075770	0.075429	269.098	39314.7	0.070636	0.166686	1614.4	87978.9
247	2.000000	1.233004	7.36747e+06	-50989.1	955.819	-29754.1	0.000000	0.000000	7.244863	286.964	NaN	0.000000	0.001632	0.001610	28.0785	73.5803	0.001793	41031.8	3.663798	-6.318426	282.373	1.232730	0.078155	0.077881	286.964	41031.8	0.072910	0.176126	1629.31	89327
247	2.000000	1.235557	7.36747e+06	-50989.1	955.82	-29754.1	0.000000	0.000000	7.248053	302.43	NaN	0.000000	0.001606	0.001603	28.0782	76.6915	0.001845	41572.8	4.073474	173.206	301.19	1.235167	0.080709	0.080318	302.43	41572.8	0.075252	0.186108	1625.02	88043.9
247	2.000000	1.238055	7.36747e+06	-50989.1	955.819	-29754.1	0.000000	0.000000	7.251360	322.134	NaN	0.000000	0.001617	0.001611	28.0789	78.8837	0.001859	42433.3	8.381002	-10.9779	317.255	1.237624	0.083206	0.082775	322.134	42433.3	0.077512	0.195981	1643.7	87573.6
247	2.000000	1.240562	7.36747e+06	-50989.1	955.819	-29754.1	0.000000	0.000000	7.254649	341.132	NaN	0.000000	0.001607	0.001649	28.0795	80.6169	0.001806	44639.3	4.360317	172.626	340.213	1.240270	0.085713	0.085421	341.132	44639.3	0.079982	0.207045	1647.62	89631
247	2.000000	1.243037	7.36747e+06	-50989.1	955.82	-29754.1	0.000000	0.000000	7.257453	349.152	NaN	0.000000	0.001647	0.001678	28.0794	84.0118	0.001895	44329.4	5.963471	-9.643538	344.881	1.242799	0.088188	0.087950	349.152	44329.4	0.082281	0.217600	1604.56	86823.1
247	2.000000	1.245618	7.36747e+06	-50989.1	955.82	-29754.1	0.000000	0.000000	7.260981	372.171	NaN	0.000000	0.001640	0.001680	28.0797	85.3339	0.001708	49972.2	3.343200	172.165	374.292	1.245339	0.090769	0.090490	372.171	49972.2	0.085184	0.231279	1609.19	94936.7
247	2.000000	1.248085	7.36747e+06	-50989.1	955.821	-29754.1	0.000000	0.000000	7.264052	386.872	NaN	0.000000	0.001662	0.001707	28.0795	86.9913	0.001816	47908.9	3.153354	-7.197906	385.207	1.247851	0.093236	0.093002	386.872	47908.9	0.087179	0.240908	1605.89	89179.2
247	2.000000	1.250497	7.36747e+06	-50989.1	955.821	-29754.1	0.000000	0.000000	7.267257	406.145	NaN	0.000000	0.001645	0.001746	28.0799	89.7975	0.001879	47793.1	4.644198	171.119	402.829	1.250272	0.095648	0.095423	406.145	47793.1	0.089274	0.251213	1616.73	87120
247	2.000000	1.253018	7.36747e+06	-50989.1	955.82	-29754.1	0.000000	0.000000	7.270794	430.841	NaN	0.000000	0.001668	0.001734	28.0793	92.5686	0.001909	48503.1	7.455376	-11.0067	427.349	1.252612	0.098169	0.097763	430.841	48503.1	0.091507	0.262417	1641.82	86506.1
247	2.000000	1.255593	7.36747e+06	-50989.1	955.82	-29754.1	0.000000	0.000000	7.273468	433.246	NaN	0.000000	0.001623	0.001705	28.0797	93.8735	0.001716	54711	4.807063	169.806	433.807	1.255368	0.100744	0.100519	433.246	54711	0.094805	0.279386	1550.71	94568.2
247	2.000000	1.258164	7.36747e+06	-50989.1	955.82	-29754.1	0.000000	0.000000	7.277484	468.379	NaN	0.000000	0.001610	0.001727	28.0793	94.972	0.001659	57237.9	6.556957	-10.7716	471.432	1.257502	0.103315	0.102653	468.379	57237.9	0.097178	0.291902	1604.58	96791.7
247	2.000000	1.260502	7.36747e+06	-50989.1	955.819	-29754.1	0.000000	0.000000	7.280572	486.628	NaN	0.000000	0.001585	0.001700	28.0796	98.1976	0.001793	54757.1	7.189212	168.348	482.729	1.260076	0.105653	0.105227	486.628	54757.1	0.098987	0.301617	1613.4	91093.2
247	2.000000	1.263058	7.36747e+06	-50989.1	955.82	-29754.1	0.000000	0.000000	7.283885	505.058	NaN	0.000000	0.001598	0.001713	28.0792	100.934	0.001922	52507.6	6.091449	-10.3968	502.006	1.262726	0.108209	0.107877	505.058	52507.6	0.100995	0.312569	1615.83	85806.9
247	2.000000	1.265107	7.36747e+06	-50989.1	955.819	-29754.1	0.000000	0.000000	7.286325	514.563	NaN	0.000000	0.001610	0.001700	28.0795	102.481	0.001761	58198.4	5.548375	-11.0081	515.231	1.264884	0.110258	0.110035	514.563	58198.4	0.103627	0.327207	1572.59	92955