File: remote_trans/data/nanoindenter/0828-1/data/Data_2025-08-06,11h17m57s/2025-07-22_16-23-58_1_588.txt
2025-07-22, 16:23:58, 1
Index	Phase	Displacement	Time	Pos X	Pos Y	Pos Z	Rot A	Rot B	Piezo Z	Force A	Force B	Gripper	Voltage A	Voltage B	Temperature	Amplitude force	Amplitude pos	Stiffness	Phase shift	Phase excitation	Force A raw	Displacement raw	HMax	HMax raw	Real Force	Real Stiffness	Contact Depth	Area	Hardness	Reduced Mod.
[#]	[#]	[um]	[s]	[um]	[um]	[um]	[m°]	[m°]	[um]	[uN]	[uN]	[V]	[V]	[V]	[°C]	[uN]	[um]	[N/m]	[°]	[°]	[uN]	[um]	[um]	[um]	[uN]	[N/m]	[um]	[um^2]	[MPa]	[MPa]
588	1.000000	0.002406	7.3708e+06	-47689.1	1005.82	-29764.9	0.000000	0.000000	6.002790	0.047537	NaN	0.000000	0.001579	0.001768	28.0792	0.090687	0.000973	93.164	168.08	-167.443	0.101250	0.001152	-1.160736	-1.161990	0.047537	93.164	-1.161118	-3.310223E+15	-1.436073E-17	NaN
588	1.000000	0.012476	7.3708e+06	-47689.1	1005.82	-29764.9	0.000000	0.000000	6.012861	0.085427	NaN	0.000000	0.001559	0.001764	28.0794	0.039505	0.001250	31.6065	121.708	15.1456	0.080830	0.010993	-1.150666	-1.152149	0.085427	31.6065	-1.152693	-2.552244E+15	-3.347114E-17	NaN
588	1.000000	0.022385	7.3708e+06	-47689.1	1005.82	-29764.9	0.000000	0.000000	6.022767	0.004520	NaN	0.000000	0.001532	0.001717	28.0792	0.138363	0.001695	81.6441	70.1917	-165.444	0.032413	0.020979	-1.140757	-1.142163	0.004520	81.6441	-1.140798	-1.767842E+15	-2.556707E-18	NaN
588	1.000000	0.032371	7.3708e+06	-47689.1	1005.82	-29764.9	0.000000	0.000000	6.032756	0.074553	NaN	0.000000	0.001540	0.001780	28.0793	0.075943	0.001921	39.5287	-33.7949	15.8092	0.035782	0.031019	-1.130771	-1.132123	0.074553	39.5287	-1.132185	-1.354977E+15	-5.502126E-17	NaN
588	1.000000	0.042382	7.3708e+06	-47689.1	1005.82	-29764.9	0.000000	0.000000	6.042764	0.010162	NaN	0.000000	0.001556	0.001743	28.0796	0.058459	0.001980	29.5209	137.552	-168.875	-0.030065	0.041036	-1.120760	-1.122105	0.010162	29.5209	-1.121018	-9.596925E+14	-1.058870E-17	NaN
588	1.000000	0.052366	7.3708e+06	-47689.1	1005.82	-29764.9	0.000000	0.000000	6.052745	-0.064251	NaN	0.000000	0.001554	0.001730	28.0795	0.099493	0.001931	51.5129	128.051	16.8913	-0.082831	0.051033	-1.110776	-1.112108	-0.064251	51.5129	-1.109841	-6.794358E+14	9.456506E-17	NaN
588	1.000000	0.062388	7.3708e+06	-47689.1	1005.82	-29765	0.000000	0.000000	6.062768	-0.032124	NaN	0.000000	0.001546	0.001747	28.0796	0.009603	0.002005	4.790140	-48.3759	-167.365	0.035986	0.061078	-1.100754	-1.102063	-0.032124	4.790140	-1.095724	-4.392059E+14	7.314210E-17	NaN
588	1.000000	0.072412	7.3708e+06	-47689.1	1005.82	-29765	0.000000	0.000000	6.072795	0.043227	NaN	0.000000	0.001569	0.001700	28.0795	0.144211	0.002066	69.8132	138.607	11.7736	-0.011881	0.070978	-1.090730	-1.092164	0.043227	69.8132	-1.091194	-3.818107E+14	-1.132148E-16	NaN
588	1.000000	0.082364	7.3708e+06	-47689.1	1005.82	-29765	0.000000	0.000000	6.082745	-0.014489	NaN	0.000000	0.001612	0.001715	28.0811	0.101061	0.001979	51.0778	-71.8166	-164.498	0.022455	0.081093	-1.080778	-1.082049	-0.014489	51.0778	-1.080565	-2.748614E+14	5.271213E-17	NaN
588	1.000000	0.092373	7.3708e+06	-47689.1	1005.82	-29765	0.000000	0.000000	6.092756	0.048487	NaN	0.000000	0.001554	0.001647	28.0806	0.035403	0.002095	16.8977	-17.1441	16.5702	0.030313	0.091032	-1.070769	-1.072110	0.048487	16.8977	-1.072921	-2.169860E+14	-2.234574E-16	NaN
588	1.000000	0.102407	7.3708e+06	-47689.1	1005.82	-29765	0.000000	0.000000	6.102791	0.060124	NaN	0.000000	0.001544	0.001717	28.0808	0.068159	0.002091	32.5903	-72.681	-161.946	-0.000823	0.101040	-1.060735	-1.062102	0.060124	32.5903	-1.062119	-1.553425E+14	-3.870431E-16	NaN
588	1.000000	0.112397	7.3708e+06	-47689.1	1005.82	-29765	0.000000	0.000000	6.112779	0.016399	NaN	0.000000	0.001570	0.001730	28.0807	0.035733	0.002076	17.2102	124.227	16.8132	0.035830	0.111048	-1.050745	-1.052094	0.016399	17.2102	-1.051460	-1.116961E+14	-1.468202E-16	NaN
588	1.000000	0.122381	7.3708e+06	-47689.1	1005.82	-29765	0.000000	0.000000	6.122766	0.076425	NaN	0.000000	0.001544	0.001747	28.0808	0.020615	0.002029	10.1583	163.6	-163.906	0.053043	0.121121	-1.040760	-1.042021	0.076425	10.1583	-1.046403	-9.551181E+13	-8.001626E-16	NaN
588	1.000000	0.132384	7.3708e+06	-47689.1	1005.82	-29765	0.000000	0.000000	6.132766	0.006611	NaN	0.000000	0.001577	0.001739	28.0809	0.038366	0.002009	19.0932	170.486	13.2898	-0.011963	0.131053	-1.030758	-1.032089	0.006611	19.0932	-1.031018	-5.931597E+13	-1.114603E-16	NaN
588	1.000000	0.142405	7.3708e+06	-47689.1	1005.82	-29765	0.000000	0.000000	6.142788	0.020046	NaN	0.000000	0.001576	0.001763	28.0809	0.102821	0.002016	51.0061	135.514	-167.111	0.148921	0.141071	-1.020737	-1.022070	0.020046	51.0061	-1.021032	-4.353427E+13	-4.604691E-16	NaN
588	1.000000	0.152410	7.3708e+06	-47689.1	1005.82	-29765	0.000000	0.000000	6.152792	0.022125	NaN	0.000000	0.001558	0.001752	28.0808	0.062988	0.001938	32.5084	143.097	14.7466	0.001972	0.151048	-1.010732	-1.012094	0.022125	32.5084	-1.011243	-3.214459E+13	-6.883045E-16	NaN
588	1.000000	0.162413	7.3708e+06	-47689.1	1005.82	-29765	0.000000	0.000000	6.162798	0.076664	NaN	0.000000	0.001569	0.001716	28.0807	0.110188	0.001997	55.1641	111.247	-164.031	-0.060817	0.161098	-1.000729	-1.002044	0.076664	55.1641	-1.001771	-2.396709E+13	-3.198715E-15	NaN
588	1.000000	0.172417	7.3708e+06	-47689.1	1005.82	-29765	0.000000	0.000000	6.172798	-0.020476	NaN	0.000000	0.001565	0.001708	28.0805	0.096181	0.001987	48.4057	-143.501	12.4947	-0.011297	0.171097	-0.990725	-0.992045	-0.020476	48.4057	-0.990408	-1.685015E+13	1.215186E-15	NaN
588	1.000000	0.182415	7.3708e+06	-47689.1	1005.82	-29765	0.000000	0.000000	6.182797	0.012258	NaN	0.000000	0.001550	0.001730	28.0804	0.043512	0.002049	21.2354	81.743	-167.965	0.063123	0.181118	-0.980727	-0.982024	0.012258	21.2354	-0.981160	-1.264838E+13	-9.691407E-16	NaN
588	1.000000	0.192402	7.3708e+06	-47689.1	1005.82	-29765	0.000000	0.000000	6.192785	0.035238	NaN	0.000000	0.001549	0.001721	28.0807	0.042037	0.002005	20.9658	157.127	14.7981	-0.012932	0.191081	-0.970740	-0.972061	0.035238	20.9658	-0.972000	-9.519647E+12	-3.701643E-15	NaN
588	1.000000	0.202430	7.3708e+06	-47689.1	1005.82	-29765	0.000000	0.000000	6.202813	0.028245	NaN	0.000000	0.001516	0.001739	28.0802	0.054964	0.001849	29.7256	-143.608	-166.224	-0.010197	0.201159	-0.960712	-0.961982	0.028245	29.7256	-0.961424	-6.856004E+12	-4.119689E-15	NaN
588	1.000000	0.212447	7.3708e+06	-47689.1	1005.82	-29765	0.000000	0.000000	6.212827	-0.027923	NaN	0.000000	0.001540	0.001727	28.0805	0.044924	0.001856	24.2055	-92.0093	14.669	-0.000758	0.211102	-0.950695	-0.952040	-0.027923	24.2055	-0.949830	-4.783387E+12	5.837411E-15	NaN
588	1.000000	0.222420	7.3708e+06	-47689.1	1005.82	-29765	0.000000	0.000000	6.222804	0.060300	NaN	0.000000	0.001571	0.001731	28.0791	0.046938	0.001884	24.9106	-92.4662	-168.328	0.084454	0.221086	-0.940722	-0.942056	0.060300	24.9106	-0.942538	-3.813945E+12	-1.581048E-14	NaN
588	1.000000	0.232413	7.3708e+06	-47689.1	1005.82	-29765	0.000000	0.000000	6.232794	-0.006902	NaN	0.000000	0.001534	0.001758	28.0794	0.037826	0.002050	18.4558	102.837	14.4828	0.081041	0.231079	-0.930729	-0.932063	-0.006902	18.4558	-0.930449	-2.619718E+12	2.634820E-15	NaN
588	1.000000	0.242448	7.3708e+06	-47689.1	1005.82	-29765	0.000000	0.000000	6.242831	0.019188	NaN	0.000000	0.001538	0.001779	28.0792	0.032682	0.001997	16.3652	-6.891663	-162.752	0.028359	0.241212	-0.920694	-0.921930	0.019188	16.3652	-0.921573	-1.988126E+12	-9.651548E-15	NaN
588	1.000000	0.252450	7.3708e+06	-47689.1	1005.82	-29765	0.000000	0.000000	6.252832	0.016239	NaN	0.000000	0.001523	0.001786	28.0793	0.006538	0.002033	3.215987	112.632	13.1535	0.013293	0.251088	-0.910692	-0.912054	0.016239	3.215987	-0.914479	-1.594613E+12	-1.018358E-14	NaN
588	1.000000	0.262446	7.3708e+06	-47689.1	1005.82	-29765	0.000000	0.000000	6.262829	0.049966	NaN	0.000000	0.001557	0.001774	28.0796	0.046209	0.001942	23.7996	-87.2137	-168.478	0.006753	0.261179	-0.900696	-0.901963	0.049966	23.7996	-0.902271	-1.090809E+12	-4.580600E-14	NaN
588	1.000000	0.272431	7.3708e+06	-47689.1	1005.82	-29765	0.000000	0.000000	6.272811	-0.038516	NaN	0.000000	0.001542	0.001807	28.0794	0.111354	0.002122	52.475	-73.9306	14.0083	0.095631	0.271086	-0.890711	-0.892056	-0.038516	52.475	-0.890161	-7.483161E+11	5.147077E-14	NaN
588	1.000000	0.282460	7.3708e+06	-47689.1	1005.82	-29765	0.000000	0.000000	6.282841	0.006064	NaN	0.000000	0.001518	0.001799	28.0797	0.056693	0.002056	27.5739	-133.856	-163.926	0.009016	0.281104	-0.880682	-0.882038	0.006064	27.5739	-0.880847	-5.599694E+11	-1.082892E-14	NaN
588	1.000000	0.292465	7.3708e+06	-47689.1	1005.82	-29765	0.000000	0.000000	6.292848	0.047455	NaN	0.000000	0.001491	0.001806	28.0794	0.066149	0.001857	35.6209	-59.1042	18.8512	0.016083	0.291108	-0.870677	-0.872034	0.047455	35.6209	-0.871676	-4.208476E+11	-1.127601E-13	NaN
588	1.000000	0.302496	7.3708e+06	-47689.1	1005.82	-29765	0.000000	0.000000	6.302882	0.099689	NaN	0.000000	0.001531	0.001780	28.0797	0.104977	0.002074	50.6158	-5.435145	-164.081	0.068814	0.301114	-0.860646	-0.862028	0.099689	50.6158	-0.862123	-3.125024E+11	-3.190023E-13	NaN
588	1.000000	0.312482	7.3708e+06	-47689.1	1005.82	-29765	0.000000	0.000000	6.312862	-0.031137	NaN	0.000000	0.001534	0.001815	28.0794	0.056862	0.001975	28.7878	88.2959	12.1733	-0.026106	0.311131	-0.850660	-0.852011	-0.031137	28.7878	-0.849849	-2.131541E+11	1.460794E-13	NaN
588	1.000000	0.322477	7.3708e+06	-47689.1	1005.82	-29765	0.000000	0.000000	6.322859	0.004346	NaN	0.000000	0.001541	0.001785	28.0795	0.060717	0.001977	30.7188	114.052	-162.435	-0.033533	0.321183	-0.840665	-0.841959	0.004346	30.7188	-0.840771	-1.605957E+11	-2.706162E-14	NaN
588	1.000000	0.332481	7.3708e+06	-47689.1	1005.82	-29765	0.000000	0.000000	6.332864	0.034946	NaN	0.000000	0.001577	0.001790	28.0796	0.089650	0.002062	43.4862	127.715	14.3079	0.026882	0.331015	-0.830661	-0.832127	0.034946	43.4862	-0.831263	-1.193735E+11	-2.927417E-13	NaN
588	1.000000	0.342505	7.3708e+06	-47689.1	1005.82	-29765	0.000000	0.000000	6.342885	-0.036470	NaN	0.000000	0.001544	0.001799	28.0796	0.115304	0.002020	57.0935	-88.2765	-167.875	0.009246	0.341188	-0.820637	-0.821954	-0.036470	57.0935	-0.820158	-8.440198E+10	4.320943E-13	NaN
588	1.000000	0.352511	7.3708e+06	-47689.1	1005.82	-29765	0.000000	0.000000	6.352896	0.079625	NaN	0.000000	0.001579	0.001793	28.0807	0.084829	0.001897	44.7111	47.6212	13.656	0.066289	0.351150	-0.810631	-0.811992	0.079625	44.7111	-0.811966	-6.535060E+10	-1.218432E-12	NaN
588	1.000000	0.362494	7.3708e+06	-47689.1	1005.82	-29765	0.000000	0.000000	6.362877	0.034893	NaN	0.000000	0.001560	0.001807	28.0808	0.099646	0.001847	53.9478	167.746	-164.727	0.064990	0.361258	-0.800648	-0.801883	0.034893	53.9478	-0.801133	-4.658455E+10	-7.490351E-13	NaN
588	1.000000	0.372492	7.3708e+06	-47689.1	1005.82	-29765	0.000000	0.000000	6.372873	-0.014772	NaN	0.000000	0.001585	0.001761	28.0811	0.072737	0.002101	34.6145	29.6943	16.4185	-0.040780	0.371078	-0.790650	-0.792063	-0.014772	34.6145	-0.790330	-3.323268E+10	4.444964E-13	NaN
588	1.000000	0.382464	7.3708e+06	-47689.1	1005.82	-29765	0.000000	0.000000	6.382845	-0.019697	NaN	0.000000	0.001560	0.001783	28.0807	0.025277	0.002045	12.3614	-52.4822	-164.705	-0.037552	0.381220	-0.780678	-0.781922	-0.019697	12.3614	-0.779482	-2.367001E+10	8.321594E-13	NaN
588	1.000000	0.392522	7.3708e+06	-47689.1	1005.82	-29765	0.000000	0.000000	6.392903	-0.015648	NaN	0.000000	0.001593	0.001801	28.0807	0.062185	0.002083	29.8571	38.7671	16.383	-0.029977	0.391132	-0.770620	-0.772010	-0.015648	29.8571	-0.770227	-1.771717E+10	8.832155E-13	NaN
588	1.000000	0.402514	7.3708e+06	-47689.1	1005.82	-29765	0.000000	0.000000	6.402896	-0.009363	NaN	0.000000	0.001581	0.001773	28.0806	0.031880	0.001955	16.3055	26.3268	-166.035	-0.040696	0.401240	-0.760627	-0.761901	-0.009363	16.3055	-0.760197	-1.294131E+10	7.234908E-13	NaN
588	1.000000	0.412511	7.3708e+06	-47689.1	1005.82	-29765	0.000000	0.000000	6.412894	0.046522	NaN	0.000000	0.001611	0.001817	28.0818	0.097986	0.002011	48.7246	153.97	8.627392	0.086671	0.411152	-0.750631	-0.751989	0.046522	48.7246	-0.751347	-9.807481E+9	-4.743477E-12	NaN
588	1.000000	0.422550	7.3708e+06	-47689.1	1005.82	-29765	0.000000	0.000000	6.422930	-0.039833	NaN	0.000000	0.001587	0.001740	28.0806	0.113325	0.002028	55.8764	172.73	-163.483	0.010282	0.421245	-0.740591	-0.741896	-0.039833	55.8764	-0.740057	-6.883828E+9	5.786456E-12	NaN
588	1.000000	0.432553	7.3708e+06	-47689.1	1005.82	-29765	0.000000	0.000000	6.432936	0.032701	NaN	0.000000	0.001606	0.001779	28.0807	0.075229	0.001920	39.1854	170.896	16.3008	0.085095	0.431176	-0.730588	-0.731966	0.032701	39.1854	-0.731214	-5.216237E+9	-6.269008E-12	NaN
588	1.000000	0.442522	7.3708e+06	-47689.1	1005.82	-29765	0.000000	0.000000	6.442902	-0.018072	NaN	0.000000	0.001569	0.001782	28.0809	0.046279	0.001977	23.4099	-40.0047	-166.426	-0.045997	0.441278	-0.720620	-0.721864	-0.018072	23.4099	-0.720041	-3.673132E+9	4.919933E-12	NaN
588	1.000000	0.452531	7.3708e+06	-47689.1	1005.82	-29765	0.000000	0.000000	6.452912	-0.016394	NaN	0.000000	0.001599	0.001763	28.0808	0.097567	0.002046	47.6838	-87.7269	16.5376	0.043193	0.451152	-0.710611	-0.711990	-0.016394	47.6838	-0.710353	-2.709342E+9	6.050966E-12	NaN
588	1.000000	0.462526	7.3708e+06	-47689.1	1005.82	-29765	0.000000	0.000000	6.462911	0.090193	NaN	0.000000	0.001574	0.001742	28.0808	0.021374	0.002022	10.572	-124.43	-165.813	0.003579	0.461217	-0.700616	-0.701925	0.090193	10.572	-0.707014	-2.439481E+9	-3.697210E-11	NaN
588	1.000000	0.472537	7.3708e+06	-47689.1	1005.82	-29765	0.000000	0.000000	6.472921	0.064910	NaN	0.000000	0.001613	0.001798	28.0808	0.094022	0.001980	47.4773	164.801	12.8622	0.039610	0.471189	-0.690605	-0.691953	0.064910	47.4773	-0.691631	-1.503837E+9	-4.316317E-11	NaN
588	1.000000	0.482556	7.3708e+06	-47689.1	1005.82	-29765	0.000000	0.000000	6.482940	0.076852	NaN	0.000000	0.001594	0.001806	28.0812	0.052291	0.001984	26.3603	8.984022	-165.427	0.007383	0.481280	-0.680586	-0.681862	0.076852	26.3603	-0.682773	-1.137952E+9	-6.753535E-11	NaN
588	1.000000	0.492537	7.3708e+06	-47689.1	1005.82	-29765	0.000000	0.000000	6.492918	-0.017716	NaN	0.000000	0.001631	0.001801	28.0796	0.028537	0.002053	13.9012	151.615	13.4032	0.041622	0.491214	-0.670605	-0.671928	-0.017716	13.9012	-0.669649	-7.526372E+8	2.353849E-11	NaN
588	1.000000	0.502544	7.3708e+06	-47689.1	1005.82	-29765	0.000000	0.000000	6.502926	0.008358	NaN	0.000000	0.001596	0.001772	28.0798	0.095499	0.002061	46.3444	-133.741	-164.649	-0.015545	0.501285	-0.660598	-0.661856	0.008358	46.3444	-0.660734	-5.682198E+8	-1.470951E-11	NaN
588	1.000000	0.512554	7.3708e+06	-47689.1	1005.82	-29765	0.000000	0.000000	6.512937	0.025921	NaN	0.000000	0.001583	0.001784	28.0797	0.035299	0.002017	17.5015	-7.339502	16.5346	0.040632	0.511186	-0.650588	-0.651956	0.025921	17.5015	-0.651699	-4.272909E+8	-6.066365E-11	NaN
588	1.000000	0.522574	7.3708e+06	-47689.1	1005.82	-29765	0.000000	0.000000	6.522955	-0.022432	NaN	0.000000	0.001574	0.001813	28.0793	0.050740	0.001972	25.7337	57.3682	-165.188	0.044761	0.521222	-0.640568	-0.641919	-0.022432	25.7337	-0.639914	-2.945142E+8	7.616729E-11	NaN
588	1.000000	0.532567	7.3708e+06	-47689.1	1005.82	-29765	0.000000	0.000000	6.532950	0.018490	NaN	0.000000	0.001543	0.001805	28.0794	0.019151	0.001957	9.786311	-106.042	17.7297	-0.056348	0.531211	-0.630575	-0.631931	0.018490	9.786311	-0.631992	-2.292825E+8	-8.064126E-11	NaN
588	1.000000	0.542559	7.3708e+06	-47689.1	1005.82	-29765	0.000000	0.000000	6.542940	-0.011734	NaN	0.000000	0.001579	0.001793	28.0794	0.018051	0.001896	9.518327	162.581	-162.234	0.048278	0.541267	-0.620583	-0.621875	-0.011734	9.518327	-0.619658	-1.552151E+8	7.559514E-11	NaN
588	1.000000	0.552596	7.3708e+06	-47689.1	1005.82	-29765	0.000000	0.000000	6.552977	-0.009851	NaN	0.000000	0.001581	0.001797	28.0794	0.018543	0.002086	8.888157	5.222170	15.8857	-0.020163	0.551250	-0.610546	-0.611892	-0.009851	8.888157	-0.609715	-1.132892E+8	8.695080E-11	NaN
588	1.000000	0.562609	7.3708e+06	-47689.1	1005.82	-29765	0.000000	0.000000	6.562990	0.001286	NaN	0.000000	0.001586	0.001789	28.0791	0.148423	0.001894	78.3494	-59.0757	-171.31	0.025466	0.561281	-0.600533	-0.601861	0.001286	78.3494	-0.600546	-8.471766E+7	-1.518260E-11	NaN
588	1.000000	0.572609	7.3708e+06	-47689.1	1005.82	-29765	0.000000	0.000000	6.572992	0.027292	NaN	0.000000	0.001614	0.001789	28.0791	0.063486	0.001973	32.1776	-116.547	12.2254	0.071432	0.571174	-0.590532	-0.591968	0.027292	32.1776	-0.591169	-6.291818E+7	-4.337716E-10	NaN
588	1.000000	0.582569	7.3708e+06	-47689.1	1005.82	-29765	0.000000	0.000000	6.582949	-0.024597	NaN	0.000000	0.001605	0.001789	28.0792	0.051711	0.002027	25.5074	-39.9933	-167.861	-0.087342	0.581266	-0.580573	-0.581876	-0.024597	25.5074	-0.579850	-4.391916E+7	5.600416E-10	NaN
588	1.000000	0.592579	7.3708e+06	-47689.1	1005.82	-29765	0.000000	0.000000	6.592960	-0.015537	NaN	0.000000	0.001600	0.001759	28.0794	0.066580	0.001982	33.5913	137.55	15.8837	0.019119	0.591292	-0.570562	-0.571850	-0.015537	33.5913	-0.570216	-3.233032E+7	4.805690E-10	NaN
588	1.000000	0.602596	7.3708e+06	-47689.1	1005.82	-29765	0.000000	0.000000	6.602981	0.069058	NaN	0.000000	0.001577	0.001775	28.0789	0.087739	0.001992	44.0558	-123.684	-164.944	0.012519	0.601274	-0.560545	-0.561868	0.069058	44.0558	-0.561721	-2.467079E+7	-2.799180E-9	NaN
588	1.000000	0.612623	7.3708e+06	-47689.1	1005.82	-29765	0.000000	0.000000	6.613004	-0.001482	NaN	0.000000	0.001588	0.001769	28.079	0.051401	0.002059	24.9633	75.9108	14.3494	0.036432	0.611271	-0.550519	-0.551871	-0.001482	24.9633	-0.550475	-1.723974E+7	8.599227E-11	NaN
588	1.000000	0.622618	7.3708e+06	-47689.1	1005.82	-29765	0.000000	0.000000	6.622999	-0.024741	NaN	0.000000	0.001631	0.001771	28.0793	0.134318	0.001929	69.6303	-28.8603	-161.981	0.003792	0.621276	-0.540524	-0.541866	-0.024741	69.6303	-0.540257	-1.244293E+7	1.988384E-9	NaN
588	1.000000	0.632621	7.3708e+06	-47689.1	1005.82	-29765	0.000000	0.000000	6.633003	0.006778	NaN	0.000000	0.001601	0.001799	28.0802	0.021751	0.001908	11.4028	72.5511	15.8533	-0.046267	0.631246	-0.530521	-0.531896	0.006778	11.4028	-0.530967	-9.24706e+06	-7.329450E-10	NaN
588	1.000000	0.642597	7.3708e+06	-47689.1	1005.82	-29765	0.000000	0.000000	6.642979	0.016633	NaN	0.000000	0.001619	0.001768	28.0802	0.037264	0.002049	18.1832	107.693	-167.611	0.015793	0.641307	-0.520545	-0.521835	0.016633	18.1832	-0.521231	-6.77199e+06	-2.456178E-9	NaN
588	1.000000	0.652592	7.3708e+06	-47689.1	1005.82	-29765	0.000000	0.000000	6.652974	-0.011866	NaN	0.000000	0.001661	0.001777	28.0803	0.048864	0.002054	23.7862	-68.1305	13.4329	0.034178	0.651268	-0.510549	-0.511874	-0.011866	23.7862	-0.510175	-4.75178e+06	2.497232E-9	NaN
588	1.000000	0.662624	7.3708e+06	-47689.1	1005.82	-29765	0.000000	0.000000	6.663007	0.035830	NaN	0.000000	0.001670	0.001796	28.0803	0.085659	0.001930	44.3807	-72.6692	-166.889	-0.026442	0.661348	-0.500518	-0.501794	0.035830	44.3807	-0.501123	-3.55374e+06	-1.008220E-8	NaN
588	1.000000	0.672614	7.3708e+06	-47689.1	1005.82	-29765	0.000000	0.000000	6.672997	0.034184	NaN	0.000000	0.001635	0.001783	28.0806	0.072058	0.002072	34.7806	-101.461	16.8877	0.026879	0.671243	-0.490528	-0.491899	0.034184	34.7806	-0.491265	-2.58861e+06	-1.320534E-8	NaN
588	1.000000	0.682654	7.3708e+06	-47689.1	1005.82	-29765	0.000000	0.000000	6.683037	0.035841	NaN	0.000000	0.001634	0.001776	28.08	0.108663	0.002014	53.9425	-32.377	-166.894	0.056941	0.681358	-0.480488	-0.481784	0.035841	53.9425	-0.480986	-1.85924e+06	-1.927750E-8	NaN
588	1.000000	0.692642	7.3708e+06	-47689.1	1005.82	-29765	0.000000	0.000000	6.693024	0.003348	NaN	0.000000	0.001642	0.001747	28.0804	0.052348	0.002004	26.1256	33.9424	16.1882	-0.017304	0.691274	-0.470500	-0.471868	0.003348	26.1256	-0.470596	-1.32972e+06	-2.517996E-9	NaN
588	1.000000	0.702612	7.3708e+06	-47689.1	1005.82	-29765	0.000000	0.000000	6.702991	-0.053079	NaN	0.000000	0.001648	0.001753	28.0804	0.015100	0.002075	7.276757	49.5717	-167.577	-0.024379	0.701370	-0.460530	-0.461771	-0.053079	7.276757	-0.455059	-804542	6.597448E-8	NaN
588	1.000000	0.712635	7.3708e+06	-47689.1	1005.82	-29765	0.000000	0.000000	6.713016	-0.017890	NaN	0.000000	0.001621	0.001779	28.0826	0.132849	0.002074	64.0411	-24.2769	16.3867	-0.021925	0.711309	-0.450507	-0.451833	-0.017890	64.0411	-0.450297	-689490	2.594720E-8	NaN
588	1.000000	0.722669	7.3708e+06	-47689.1	1005.82	-29765	0.000000	0.000000	6.723051	0.015310	NaN	0.000000	0.001648	0.001790	28.0826	0.058477	0.002008	29.1255	-177.409	-167.948	0.023847	0.721312	-0.440473	-0.441830	0.015310	29.1255	-0.440868	-507699	-3.015530E-8	NaN
588	1.000000	0.732629	7.3708e+06	-47689.1	1005.82	-29765	0.000000	0.000000	6.733010	-0.010708	NaN	0.000000	0.001637	0.001768	28.0808	0.041590	0.002050	20.2858	94.224	14.0653	0.051443	0.731273	-0.430513	-0.431869	-0.010708	20.2858	-0.430117	-357868	2.992051E-8	NaN
588	1.000000	0.742664	7.3708e+06	-47689.1	1005.82	-29765	0.000000	0.000000	6.743046	0.001458	NaN	0.000000	0.001661	0.001756	28.0806	0.022854	0.002033	11.243	142.754	-164.957	0.159128	0.741315	-0.420478	-0.421827	0.001458	11.243	-0.420575	-262163	-5.562750E-9	NaN
588	1.000000	0.752680	7.3708e+06	-47689.1	1005.82	-29765	0.000000	0.000000	6.753062	0.027137	NaN	0.000000	0.001597	0.001746	28.0805	0.063670	0.001844	34.5353	-35.9208	13.3056	0.018251	0.751285	-0.410462	-0.411857	0.027137	34.5353	-0.411052	-192023	-1.413200E-7	NaN
588	1.000000	0.762682	7.3708e+06	-47689.1	1005.82	-29765	0.000000	0.000000	6.763063	-0.028911	NaN	0.000000	0.001663	0.001782	28.0794	0.012612	0.002050	6.151678	112.481	-165.754	-0.025718	0.761322	-0.400460	-0.401820	-0.028911	6.151678	-0.396935	-120854	2.392222E-7	NaN
588	1.000000	0.772664	7.3708e+06	-47689.1	1005.82	-29765	0.000000	0.000000	6.773044	-0.028768	NaN	0.000000	0.001626	0.001742	28.079	0.072283	0.002049	35.2833	45.8428	14.2358	-0.056314	0.771286	-0.390478	-0.391856	-0.028768	35.2833	-0.389867	-95776.5	3.003617E-7	NaN
588	1.000000	0.782651	7.3708e+06	-47689.1	1005.82	-29765	0.000000	0.000000	6.783033	0.021829	NaN	0.000000	0.001629	0.001755	28.0794	0.064001	0.001974	32.4157	-125.761	-165.207	0.024910	0.781377	-0.380491	-0.381765	0.021829	32.4157	-0.380996	-71480.2	-3.053836E-7	NaN
588	1.000000	0.792672	7.3708e+06	-47689.1	1005.82	-29765	0.000000	0.000000	6.793054	-0.001149	NaN	0.000000	0.001633	0.001736	28.0792	0.072064	0.002008	35.8899	74.0249	14.178	-0.054036	0.791315	-0.370470	-0.371827	-0.001149	35.8899	-0.370446	-50413.1	2.278403E-8	NaN
588	1.000000	0.802663	7.3708e+06	-47689.1	1005.82	-29765	0.000000	0.000000	6.803047	0.044281	NaN	0.000000	0.001654	0.001741	28.0792	0.087297	0.001931	45.2194	-19.5067	-168.093	0.082378	0.801397	-0.360479	-0.361745	0.044281	45.2194	-0.361213	-37100.1	-1.193557E-6	NaN
588	1.000000	0.812658	7.3708e+06	-47689.1	1005.82	-29765	0.000000	0.000000	6.813042	0.069614	NaN	0.000000	0.001678	0.001763	28.0791	0.074219	0.001984	37.4045	154.419	13.8593	0.163548	0.811302	-0.350484	-0.351840	0.069614	37.4045	-0.351880	-27181.4	-2.561071E-6	NaN
588	1.000000	0.822699	7.3708e+06	-47689.1	1005.82	-29765	0.000000	0.000000	6.823080	-0.027450	NaN	0.000000	0.001690	0.001725	28.0792	0.077585	0.002003	38.7387	115.388	-165.118	-0.045923	0.821343	-0.340443	-0.341798	-0.027450	38.7387	-0.339911	-18207.9	1.507565E-6	NaN
588	1.000000	0.832700	7.3708e+06	-47689.1	1005.82	-29765	0.000000	0.000000	6.833082	0.017139	NaN	0.000000	0.001655	0.001746	28.0795	0.083429	0.002046	40.7856	-11.4451	14.6844	0.000868	0.831296	-0.330442	-0.331846	0.017139	40.7856	-0.330757	-13382.6	-1.280686E-6	NaN
588	1.000000	0.842703	7.3708e+06	-47689.1	1005.82	-29765	0.000000	0.000000	6.843082	-0.062142	NaN	0.000000	0.001673	0.001763	28.0795	0.128324	0.001940	66.145	177.887	-165.604	-0.013759	0.841364	-0.320439	-0.321778	-0.062142	66.145	-0.319735	-9220.04	6.739931E-6	NaN
588	1.000000	0.852695	7.3708e+06	-47689.1	1005.82	-29765	0.000000	0.000000	6.853076	-0.003746	NaN	0.000000	0.001664	0.001758	28.0795	0.035361	0.002038	17.3529	-66.2236	16.223	-0.045636	0.851349	-0.310447	-0.311793	-0.003746	17.3529	-0.310285	-6687.68	5.601790E-7	NaN
588	1.000000	0.862707	7.3708e+06	-47689.1	1005.82	-29765	0.000000	0.000000	6.863087	-0.036524	NaN	0.000000	0.001683	0.001748	28.0791	0.073275	0.001949	37.6007	-155.029	-166.978	-0.099565	0.861402	-0.300435	-0.301740	-0.036524	37.6007	-0.299707	-4658.72	7.839923E-6	NaN
588	1.000000	0.872715	7.3708e+06	-47689.1	1005.82	-29765	0.000000	0.000000	6.873096	-0.031977	NaN	0.000000	0.001681	0.001746	28.0792	0.063588	0.002099	30.2974	-164.995	11.9987	-0.069735	0.871302	-0.290427	-0.291840	-0.031977	30.2974	-0.289635	-3294.84	9.705034E-6	NaN
588	1.000000	0.882709	7.3708e+06	-47689.1	1005.82	-29765	0.000000	0.000000	6.883089	-0.034739	NaN	0.000000	0.001673	0.001774	28.0794	0.082912	0.001969	42.114	-83.5891	-162.827	0.015909	0.881411	-0.280433	-0.281731	-0.034739	42.114	-0.279814	-2345.12	1.481316E-5	NaN
588	1.000000	0.892720	7.3708e+06	-47689.1	1005.82	-29765	0.000000	0.000000	6.893102	0.007926	NaN	0.000000	0.001632	0.001753	28.0793	0.027642	0.002099	13.1668	-83.2684	13.3978	0.006986	0.891397	-0.270422	-0.271745	0.007926	13.1668	-0.270874	-1717.2	-4.615619E-6	NaN
588	1.000000	0.902743	7.3708e+06	-47689.1	1005.82	-29765	0.000000	0.000000	6.903124	0.001252	NaN	0.000000	0.001663	0.001762	28.0806	0.040946	0.002041	20.0618	102.78	-169.054	0.038899	0.901428	-0.260399	-0.261714	0.001252	20.0618	-0.260446	-1190.55	-1.051948E-6	NaN
588	1.000000	0.912716	7.3708e+06	-47689.1	1005.82	-29765	0.000000	0.000000	6.913096	-0.022892	NaN	0.000000	0.001613	0.001776	28.0804	0.027362	0.002087	13.1092	11.4943	15.5129	0.052807	0.911399	-0.250426	-0.251743	-0.022892	13.1092	-0.249116	-796.702	2.873341E-5	NaN
588	1.000000	0.922737	7.3708e+06	-47689.1	1005.82	-29765	0.000000	0.000000	6.923121	0.042983	NaN	0.000000	0.001577	0.001774	28.0808	0.124849	0.001974	63.2426	-134.32	-164.877	0.025305	0.921391	-0.240405	-0.241751	0.042983	63.2426	-0.240914	-594.055	-7.235582E-5	NaN
588	1.000000	0.932768	7.3708e+06	-47689.1	1005.82	-29765	0.000000	0.000000	6.933149	-0.017627	NaN	0.000000	0.001597	0.001765	28.08	0.016255	0.001971	8.247931	-96.6888	15.1826	0.010163	0.931377	-0.230374	-0.231765	-0.017627	8.247931	-0.228771	-382.91	4.603327E-5	NaN
588	1.000000	0.942723	7.3708e+06	-47689.1	1005.82	-29765	0.000000	0.000000	6.943106	0.045201	NaN	0.000000	0.001570	0.001746	28.0806	0.043661	0.002188	19.9547	24.4276	-166.467	0.042971	0.941418	-0.220419	-0.221723	0.045201	19.9547	-0.222118	-300.245	-0.000151	NaN
588	1.000000	0.952769	7.3708e+06	-47689.1	1005.82	-29765	0.000000	0.000000	6.953152	0.027954	NaN	0.000000	0.001629	0.001755	28.0802	0.120605	0.002070	58.2625	145.881	12.0783	0.079058	0.951389	-0.210373	-0.211752	0.027954	58.2625	-0.210733	-197.095	-0.000142	NaN
588	1.000000	0.962759	7.3708e+06	-47689.1	1005.82	-29765	0.000000	0.000000	6.963141	0.016788	NaN	0.000000	0.001654	0.001775	28.0805	0.087371	0.001895	46.0994	-137.485	-164.19	-0.074174	0.961469	-0.200383	-0.201672	0.016788	46.0994	-0.200656	-135.044	-0.000124	NaN
588	1.000000	0.972734	7.3708e+06	-47689.1	1005.82	-29765	0.000000	0.000000	6.973118	0.064204	NaN	0.000000	0.001638	0.001739	28.0803	0.066159	0.001854	35.6924	-74.3422	12.4293	-0.042515	0.971412	-0.190408	-0.191730	0.064204	35.6924	-0.191757	-96.2365	-0.000667	NaN
588	1.000000	0.982755	7.3708e+06	-47689.1	1005.82	-29765	0.000000	0.000000	6.983136	0.006482	NaN	0.000000	0.001649	0.001758	28.0802	0.045605	0.002024	22.5347	174.848	-164.855	0.075897	0.981440	-0.180387	-0.181701	0.006482	22.5347	-0.180603	-62.4769	-0.000104	NaN
588	1.000000	0.992776	7.3708e+06	-47689.1	1005.82	-29765	0.000000	0.000000	6.993159	0.048298	NaN	0.000000	0.001613	0.001751	28.0804	0.098761	0.001825	54.1078	142.903	13.0296	0.101045	0.991351	-0.170366	-0.171791	0.048298	54.1078	-0.171036	-42.8131	-0.001128	NaN
588	1.000000	1.002732	7.3708e+06	-47689.1	1005.82	-29765	0.000000	0.000000	7.003113	-0.010776	NaN	0.000000	0.001588	0.001742	28.0803	0.032258	0.001960	16.459	14.6263	-164.088	0.028795	1.001427	-0.160410	-0.161715	-0.010776	16.459	-0.159919	-27.3244	0.000394	NaN
588	1.000000	1.012769	7.3708e+06	-47689.1	1005.82	-29765	0.000000	0.000000	7.013151	0.033118	NaN	0.000000	0.001597	0.001774	28.0799	0.035567	0.002229	15.959	-169.468	17.5111	-0.014993	1.011431	-0.150373	-0.151711	0.033118	15.959	-0.151930	-19.6384	-0.001686	NaN
588	1.000000	1.022768	7.3708e+06	-47689.1	1005.82	-29765	0.000000	0.000000	7.023147	-0.043109	NaN	0.000000	0.001562	0.001763	28.0803	0.063165	0.002090	30.2225	-151.038	-165.597	-0.015874	1.021495	-0.140374	-0.141647	-0.043109	30.2225	-0.139305	-11.4786	0.003756	NaN
588	1.000000	1.032748	7.3708e+06	-47689.1	1005.82	-29765	0.000000	0.000000	7.033133	0.066035	NaN	0.000000	0.001532	0.001749	28.0803	0.059510	0.001957	30.4047	166.944	12.619	0.065058	1.031404	-0.130393	-0.131738	0.066035	30.4047	-0.132022	-8.339781	-0.007918	NaN
588	1.000000	1.042800	7.3708e+06	-47689.1	1005.82	-29765	0.000000	0.000000	7.043180	-0.029926	NaN	0.000000	0.001649	0.001730	28.079	0.149310	0.001857	80.42	132.853	-165.74	-0.002074	1.041447	-0.120342	-0.121695	-0.029926	80.42	-0.120063	-4.845670	0.006176	NaN
588	1.000000	1.052798	7.3708e+06	-47689.1	1005.82	-29765	0.000000	0.000000	7.053178	-0.035551	NaN	0.000000	0.001605	0.001743	28.0791	0.140134	0.001955	71.6867	-47.5312	14.8814	0.030625	1.051439	-0.110344	-0.111703	-0.035551	71.6867	-0.109972	-3.001127	0.011846	NaN
588	1.000000	1.062747	7.3708e+06	-47689.1	1005.82	-29765	0.000000	0.000000	7.063130	0.034790	NaN	0.000000	0.001612	0.001760	28.0792	0.072011	0.001909	37.7232	-43.4014	-169.533	-0.002178	1.061513	-0.100395	-0.101629	0.034790	37.7232	-0.101086	-1.931017	-0.018017	NaN
588	1.000000	1.072791	7.3708e+06	-47689.1	1005.82	-29765	0.000000	0.000000	7.073171	-0.022672	NaN	0.000000	0.001613	0.001750	28.0791	0.072198	0.002066	34.9405	-29.6772	15.2223	0.011247	1.071355	-0.090351	-0.091787	-0.022672	34.9405	-0.089865	-1.073092	0.021128	NaN
588	1.000000	1.082789	7.3708e+06	-47689.1	1005.82	-29765	0.000000	0.000000	7.083171	0.001621	NaN	0.000000	0.001620	0.001775	28.0793	0.028162	0.002034	13.8431	40.7963	-168.757	-0.037379	1.081517	-0.080353	-0.081625	0.001621	13.8431	-0.080441	-0.634879	-0.002554	NaN
588	1.000000	1.092812	7.3708e+06	-47689.1	1005.82	-29765	0.000000	0.000000	7.093196	0.063101	NaN	0.000000	0.001620	0.001783	28.0789	0.047691	0.002012	23.6979	141.05	18.8881	-0.031742	1.091452	-0.070330	-0.071689	0.063101	23.6979	-0.072327	-0.393302	-0.160439	NaN
588	1.000000	1.102821	7.3708e+06	-47689.1	1005.82	-29765	0.000000	0.000000	7.103201	-0.036917	NaN	0.000000	0.001601	0.001760	28.079	0.024312	0.002050	11.8577	149.59	-170.138	-0.059760	1.101484	-0.060321	-0.061658	-0.036917	11.8577	-0.057986	-0.157523	0.234362	NaN
588	1.000000	1.112784	7.3708e+06	-47689.1	1005.82	-29765	0.000000	0.000000	7.113165	-0.002627	NaN	0.000000	0.001613	0.001763	28.079	0.118195	0.001920	61.5631	-11.6013	12.4443	-0.027890	1.111431	-0.050358	-0.051711	-0.002627	61.5631	-0.050326	-0.093345	0.028142	NaN
588	1.000000	1.122836	7.3708e+06	-47689.1	1005.82	-29765	0.000000	0.000000	7.123219	0.030208	NaN	0.000000	0.001625	0.001777	28.0792	0.152648	0.002077	73.4865	-153.582	-166.192	0.049646	1.121493	-0.040306	-0.041649	0.030208	73.4865	-0.040614	-0.047210	-0.639880	NaN
588	1.000000	1.132797	7.3708e+06	-47689.1	1005.82	-29765	0.000000	0.000000	7.133175	-0.073057	NaN	0.000000	0.001607	0.001748	28.0792	0.067337	0.002034	33.1009	-12.3501	13.2073	0.061047	1.131415	-0.030345	-0.031727	-0.073057	33.1009	-0.028690	-0.021173	3.450518	NaN
588	1.000000	1.142811	7.3708e+06	-47689.1	1005.82	-29765	0.000000	0.000000	7.143192	-0.030369	NaN	0.000000	0.001634	0.001761	28.0792	0.104113	0.001999	52.0825	-168.99	-163.962	0.080731	1.141559	-0.020331	-0.021582	-0.030369	52.0825	-0.019893	-0.012483	2.432883	NaN
588	1.000000	1.152806	7.3708e+06	-47689.1	1005.82	-29765	0.000000	0.000000	7.153189	0.037954	NaN	0.000000	0.001611	0.001766	28.079	0.116335	0.002021	57.5524	-151.035	16.7733	0.016540	1.151413	-0.010336	-0.011729	0.037954	57.5524	-0.010831	-0.006861	-5.531406	NaN
588	1.000000	1.162792	7.3708e+06	-47689.1	1005.82	-29765	0.000000	0.000000	7.163282	2.626023	NaN	0.000000	0.001606	0.001777	28.0791	3.573538	0.001842	1940.12	7.092554	-168.48	1.119196	1.161510	-0.000350	-0.001632	2.626023	1940.12	-0.001365	-0.000994	-2642.55	NaN
588	2.000000	1.168008	7.3708e+06	-47689.1	1005.82	-29765	0.000000	0.000000	7.168786	9.659087	NaN	0.000000	0.001625	0.001753	28.0806	9.103137	0.001712	5316.09	8.732949	5.177058	9.001401	1.167653	0.004866	0.004511	9.659087	5316.09	0.003503	0.002808	3440.09	91660.6
588	2.000000	1.170431	7.3708e+06	-47689.1	1005.82	-29765	0.000000	0.000000	7.171317	12.269	NaN	0.000000	0.001620	0.001818	28.0803	11.6223	0.001869	6217.54	7.831894	-174.364	11.1408	1.170130	0.007289	0.006988	12.269	6217.54	0.005809	0.004884	2512.08	81283.9
588	2.000000	1.172936	7.3708e+06	-47689.1	1005.82	-29765	0.000000	0.000000	7.174020	17.0951	NaN	0.000000	0.001622	0.001793	28.0803	14.0193	0.001602	8750.84	4.826156	6.969749	17.4581	1.172579	0.009794	0.009437	17.0951	8750.84	0.008329	0.007383	2315.58	93050.3
588	2.000000	1.175437	7.3708e+06	-47689.1	1005.82	-29765	0.000000	0.000000	7.176581	18.5638	NaN	0.000000	0.001597	0.001793	28.0804	17.1399	0.001771	9678.73	5.592040	-174.844	18.9296	1.175161	0.012295	0.012019	18.5638	9678.73	0.010856	0.010149	1829.2	87778.5
588	2.000000	1.177913	7.3708e+06	-47689.1	1005.82	-29765	0.000000	0.000000	7.179404	26.9841	NaN	0.000000	0.001626	0.001780	28.0806	20.1834	0.001828	11042.9	7.933959	0.609307	25.2631	1.177536	0.014771	0.014394	26.9841	11042.9	0.012938	0.012633	2135.96	89763.4
588	2.000000	1.180365	7.3708e+06	-47689.1	1005.82	-29765	0.000000	0.000000	7.181996	30.3809	NaN	0.000000	0.001603	0.001774	28.0803	21.8691	0.001810	12085.4	1.833150	-173.459	28.2544	1.180083	0.017223	0.016941	30.3809	12085.4	0.015338	0.015739	1930.32	88013.4
588	2.000000	1.182908	7.3708e+06	-47689.1	1005.82	-29765	0.000000	0.000000	7.184818	37.1642	NaN	0.000000	0.001591	0.001779	28.0804	24.7248	0.001788	13824.7	6.240853	1.503555	37.5792	1.182573	0.019766	0.019432	37.1642	13824.7	0.017750	0.019129	1942.77	91322.3
588	2.000000	1.185349	7.3708e+06	-47689.1	1005.82	-29765	0.000000	0.000000	7.187581	45.0059	NaN	0.000000	0.001615	0.001804	28.0806	27.5147	0.001825	15072.7	3.881071	-178.795	42.7662	1.185058	0.022207	0.021916	45.0059	15072.7	0.019968	0.022492	2001	91823.2
588	2.000000	1.187856	7.3708e+06	-47689.1	1005.82	-29765	0.000000	0.000000	7.190529	55.7167	NaN	0.000000	0.001612	0.001792	28.0805	29.2693	0.001732	16902.7	3.330728	2.588903	53.238	1.187504	0.024714	0.024362	55.7167	16902.7	0.022242	0.026189	2127.5	95427
588	2.000000	1.190361	7.37081e+06	-47689.1	1005.82	-29765	0.000000	0.000000	7.193335	63.055	NaN	0.000000	0.001602	0.001769	28.0802	31.6911	0.001761	17999.8	7.490576	177.851	62.9945	1.189929	0.027219	0.026787	63.055	17999.8	0.024592	0.030278	2082.55	94509.9
588	2.000000	1.192871	7.37081e+06	-47689.1	1005.82	-29765	0.000000	0.000000	7.196161	70.7441	NaN	0.000000	0.001630	0.001771	28.0804	34.531	0.001704	20268.6	7.565895	-3.690733	69.1424	1.192454	0.029729	0.029312	70.7441	20268.6	0.027112	0.034969	2023.02	99026.5
588	2.000000	1.195379	7.37081e+06	-47689.1	1005.82	-29765	0.000000	0.000000	7.199012	79.0866	NaN	0.000000	0.001624	0.001759	28.0807	37.8084	0.001869	20224.9	6.918734	177.399	79.3928	1.195062	0.032237	0.031920	79.0866	20224.9	0.029304	0.039314	2011.65	93193.2
588	2.000000	1.197847	7.37081e+06	-47689.1	1005.82	-29765	0.000000	0.000000	7.201949	90.4986	NaN	0.000000	0.001605	0.001764	28.0808	39.5038	0.001849	21363	6.384803	-3.555170	87.7499	1.197431	0.034705	0.034289	90.4986	21363	0.031528	0.043970	2058.21	93080.5
588	2.000000	1.200308	7.37081e+06	-47689.1	1005.82	-29765	0.000000	0.000000	7.204684	97.1565	NaN	0.000000	0.001584	0.001772	28.0805	40.4668	0.001737	23297	1.264702	-178.802	96.1126	1.200084	0.037166	0.036942	97.1565	23297	0.034038	0.049531	1961.54	95639
588	2.000000	1.202795	7.37081e+06	-47689.1	1005.82	-29765	0.000000	0.000000	7.207498	105.106	NaN	0.000000	0.001613	0.001765	28.0806	43.9943	0.001870	23521.6	4.182581	-1.405616	100.644	1.202428	0.039654	0.039287	105.106	23521.6	0.036302	0.054822	1917.23	91783.5
588	2.000000	1.205257	7.37081e+06	-47689.1	1005.82	-29765	0.000000	0.000000	7.210611	120.954	NaN	0.000000	0.001605	0.001783	28.0791	46.1688	0.001772	26050.7	4.996032	176.333	116.195	1.204999	0.042115	0.041857	120.954	26050.7	0.038633	0.060542	1997.85	96730.5
588	2.000000	1.207835	7.37081e+06	-47689.1	1005.82	-29765	0.000000	0.000000	7.213678	132.831	NaN	0.000000	0.001645	0.001775	28.0795	48.4077	0.001843	26271.1	6.671296	-4.687916	130.112	1.207550	0.044693	0.044409	132.831	26271.1	0.040901	0.066378	2001.14	93162.3
588	2.000000	1.210379	7.37081e+06	-47689.1	1005.82	-29765	0.000000	0.000000	7.216727	145.122	NaN	0.000000	0.001578	0.001769	28.0792	50.7713	0.001817	27936.7	6.200595	175.457	146.581	1.209965	0.047237	0.046823	145.122	27936.7	0.043341	0.072948	1989.38	94502
588	2.000000	1.212816	7.37081e+06	-47689.1	1005.82	-29765	0.000000	0.000000	7.219719	158.618	NaN	0.000000	0.001610	0.001780	28.0799	53.3487	0.001757	30363.1	9.202666	-8.125202	156.315	1.212406	0.049674	0.049265	158.618	30363.1	0.045756	0.079749	1988.97	98232.8
588	2.000000	1.215301	7.37081e+06	-47689.1	1005.82	-29765	0.000000	0.000000	7.222593	168.102	NaN	0.000000	0.001596	0.001764	28.0793	56.3088	0.001921	29311.4	5.401183	176.198	166.366	1.215080	0.052159	0.051938	168.102	29311.4	0.047858	0.085906	1956.81	91368.9
588	2.000000	1.217758	7.37081e+06	-47689.1	1005.82	-29765	0.000000	0.000000	7.225788	186.038	NaN	0.000000	0.001585	0.001767	28.0795	57.5422	0.001799	31986.6	3.884639	-3.675898	180.916	1.217413	0.054616	0.054271	186.038	31986.6	0.050254	0.093200	1996.12	95726.9
588	2.000000	1.220273	7.37081e+06	-47689.1	1005.82	-29765	0.000000	0.000000	7.228831	198.878	NaN	0.000000	0.001574	0.001799	28.079	59.7144	0.001780	33548.2	5.814970	173.674	196.526	1.219978	0.057131	0.056836	198.878	33548.2	0.052685	0.100891	1971.21	96497.2
588	2.000000	1.222729	7.37081e+06	-47689.1	1005.82	-29765	0.000000	0.000000	7.231934	214.617	NaN	0.000000	0.001610	0.001799	28.0794	62.0018	0.001767	35081.3	1.996180	-2.980338	209.445	1.222492	0.059587	0.059350	214.617	35081.3	0.054999	0.108489	1978.24	97309.6
588	2.000000	1.225247	7.37081e+06	-47689.1	1005.82	-29765	0.000000	0.000000	7.235112	230.666	NaN	0.000000	0.001593	0.001753	28.0791	64.7799	0.001774	36524	5.129327	173.913	227.429	1.224947	0.062105	0.061805	230.666	36524	0.057369	0.116543	1979.24	97748.2
588	2.000000	1.227696	7.37081e+06	-47689.1	1005.82	-29765	0.000000	0.000000	7.238159	245.199	NaN	0.000000	0.001584	0.001740	28.0793	66.5735	0.001779	37429	3.509993	-4.534891	236.596	1.227436	0.064554	0.064294	245.199	37429	0.059641	0.124524	1969.1	96907.2
588	2.000000	1.230319	7.37081e+06	-47689.1	1005.82	-29765	0.000000	0.000000	7.241409	260.442	NaN	0.000000	0.001619	0.001772	28.0793	69.0513	0.001788	38618.8	2.814275	175.484	259.56	1.230096	0.067177	0.066955	260.442	38618.8	0.062120	0.133518	1950.6	96561
588	2.000000	1.232838	7.37081e+06	-47689.1	1005.82	-29765	0.000000	0.000000	7.244625	277.411	NaN	0.000000	0.001593	0.001753	28.0792	71.7252	0.001886	38028.3	2.028688	-2.796935	277.503	1.232384	0.069696	0.069242	277.411	38028.3	0.064225	0.141392	1962	92399.3
588	2.000000	1.235233	7.37081e+06	-47689.1	1005.82	-29765	0.000000	0.000000	7.247888	298.517	NaN	0.000000	0.001578	0.001788	28.0793	74.2602	0.001809	41056.2	6.431261	172.468	294.99	1.234857	0.072091	0.071716	298.517	41056.2	0.066638	0.150681	1981.12	96632.2
588	2.000000	1.237726	7.37081e+06	-47689.1	1005.82	-29765	0.000000	0.000000	7.251160	317.477	NaN	0.000000	0.001605	0.001757	28.0807	76.1421	0.001763	43182.7	8.438048	-10.4463	309.511	1.237500	0.074584	0.074358	317.477	43182.7	0.069071	0.160327	1980.18	98532.3
588	2.000000	1.240236	7.37081e+06	-47689.1	1005.82	-29765	0.000000	0.000000	7.254517	338.065	NaN	0.000000	0.001567	0.001758	28.0804	77.7078	0.001768	43954	3.294388	174.747	333.988	1.239911	0.077095	0.076769	338.065	43954	0.071326	0.169524	1994.2	97534
588	2.000000	1.242748	7.37081e+06	-47689.1	1005.82	-29765	0.000000	0.000000	7.257928	359.954	NaN	0.000000	0.001610	0.001771	28.0804	80.9786	0.001769	45770.3	2.487742	-4.838866	355.259	1.242361	0.079606	0.079219	359.954	45770.3	0.073708	0.179496	2005.36	98702.8
588	2.000000	1.245209	7.37081e+06	-47689.1	1005.82	-29765	0.000000	0.000000	7.261066	376.416	NaN	0.000000	0.001593	0.001792	28.0803	82.9021	0.001674	49518	-0.345011	177.347	372.396	1.244944	0.082067	0.081803	376.416	49518	0.076366	0.190944	1971.34	103534
588	2.000000	1.247777	7.37081e+06	-47689.1	1005.82	-29765	0.000000	0.000000	7.264569	399.133	NaN	0.000000	0.001583	0.001828	28.0807	86.2956	0.001764	48921.3	6.797097	-8.771806	394.874	1.247257	0.084635	0.084115	399.133	48921.3	0.078516	0.200447	1991.22	99832.4
588	2.000000	1.250220	7.37081e+06	-47689.1	1005.82	-29765	0.000000	0.000000	7.267688	415.596	NaN	0.000000	0.001558	0.001738	28.0804	89.2456	0.001829	48802.4	8.087789	169.334	411.846	1.249941	0.087078	0.086799	415.596	48802.4	0.080691	0.210276	1976.43	97234.3
588	2.000000	1.252736	7.37081e+06	-47689.1	1005.82	-29765	0.000000	0.000000	7.271048	436.121	NaN	0.000000	0.001609	0.001743	28.0806	91.7074	0.001807	50748.9	5.533606	-8.590679	432.918	1.252409	0.089594	0.089267	436.121	50748.9	0.083149	0.221651	1967.6	98483.9
588	2.000000	1.255245	7.37081e+06	-47689.1	1005.82	-29765	0.000000	0.000000	7.274528	459.743	NaN	0.000000	0.001557	0.001782	28.0804	95.1163	0.001844	51569.2	7.073860	170.122	459.882	1.254885	0.092103	0.091743	459.743	51569.2	0.085417	0.232393	1978.3	97735.5
588	2.000000	1.257814	7.37081e+06	-47689.1	1005.82	-29765	0.000000	0.000000	7.278015	482.079	NaN	0.000000	0.001650	0.001799	28.0805	96.2043	0.001719	55957.8	4.763011	-8.276777	477.962	1.257348	0.094672	0.094206	482.079	55957.8	0.088211	0.245956	1960.02	103087
588	2.000000	1.260236	7.37081e+06	-47689.1	1005.82	-29765	0.000000	0.000000	7.281041	496.761	NaN	0.000000	0.001617	0.001765	28.0801	98.1071	0.001846	53146.7	2.742437	173.544	494.648	1.260080	0.097094	0.096938	496.761	53146.7	0.090084	0.255250	1946.17	96109.5
588	2.000000	1.262723	7.37081e+06	-47689.1	1005.82	-29765	0.000000	0.000000	7.284956	531.484	NaN	0.000000	0.001655	0.001738	28.0805	100.38	0.001762	56978.8	4.499668	-8.224254	526.061	1.262333	0.099581	0.099191	531.484	56978.8	0.092585	0.267909	1983.82	100576
588	2.000000	1.264896	7.37081e+06	-47689.1	1005.82	-29765	0.000000	0.000000	7.287599	542.94	NaN	0.000000	0.001675	0.001754	28.0804	102.613	0.001776	57763.3	1.016587	-4.502688	545.591	1.264478	0.101754	0.101336	542.94	57763.3	0.094704	0.278860	1947	99938.5