File: remote_trans/data/nanoindenter/0828-1/data/Data_2025-08-06,11h17m57s/2025-07-22_16-23-58_1_769.txt
2025-07-22, 16:23:58, 1
Index	Phase	Displacement	Time	Pos X	Pos Y	Pos Z	Rot A	Rot B	Piezo Z	Force A	Force B	Gripper	Voltage A	Voltage B	Temperature	Amplitude force	Amplitude pos	Stiffness	Phase shift	Phase excitation	Force A raw	Displacement raw	HMax	HMax raw	Real Force	Real Stiffness	Contact Depth	Area	Hardness	Reduced Mod.
[#]	[#]	[um]	[s]	[um]	[um]	[um]	[m°]	[m°]	[um]	[uN]	[uN]	[V]	[V]	[V]	[°C]	[uN]	[um]	[N/m]	[°]	[°]	[uN]	[um]	[um]	[um]	[uN]	[N/m]	[um]	[um^2]	[MPa]	[MPa]
769	1.000000	0.002854	7.37258e+06	-38639.1	1005.82	-29793.6	0.000000	0.000000	6.002802	0.040472	NaN	0.000000	0.001763	0.001745	28.0833	0.083942	0.000860	97.6468	172.185	-166.015	-0.055004	0.001575	-1.388997	-1.390275	0.040472	97.6468	-1.389308	-3.722436E+18	-1.087238E-20	NaN
769	1.000000	0.012924	7.37258e+06	-38639.1	1005.82	-29793.6	0.000000	0.000000	6.012871	0.009493	NaN	0.000000	0.001713	0.001709	28.0829	0.017799	0.001243	14.3207	43.8113	17.0407	-0.027594	0.011464	-1.378927	-1.380386	0.009493	14.3207	-1.379424	-2.747580E+18	-3.455216E-21	NaN
769	1.000000	0.022824	7.37258e+06	-38639.1	1005.82	-29793.6	0.000000	0.000000	6.022769	-0.041913	NaN	0.000000	0.001711	0.001735	28.0831	0.094249	0.001718	54.8534	49.7403	-166.103	-0.073212	0.021500	-1.369027	-1.370351	-0.041913	54.8534	-1.368454	-1.961358E+18	2.136938E-20	NaN
769	1.000000	0.032806	7.37258e+06	-38639.1	1005.82	-29793.6	0.000000	0.000000	6.032753	0.009797	NaN	0.000000	0.001750	0.001758	28.0818	0.046670	0.001850	25.2247	-31.0944	14.7929	-0.010364	0.031443	-1.359045	-1.360408	0.009797	25.2247	-1.359336	-1.482058E+18	-6.610220E-21	NaN
769	1.000000	0.042809	7.37258e+06	-38639.1	1005.82	-29793.6	0.000000	0.000000	6.042753	-0.045028	NaN	0.000000	0.001749	0.001722	28.0827	0.048556	0.001845	26.3136	-115.832	-163.095	0.048737	0.041480	-1.349042	-1.350371	-0.045028	26.3136	-1.347759	-1.038257E+18	4.336844E-20	NaN
769	1.000000	0.052777	7.37258e+06	-38639.1	1005.82	-29793.6	0.000000	0.000000	6.052723	-0.026882	NaN	0.000000	0.001761	0.001721	28.0817	0.114121	0.002011	56.7617	-138.332	15.816	-0.019175	0.051438	-1.339074	-1.340412	-0.026882	56.7617	-1.338718	-7.863198E+17	3.418658E-20	NaN
769	1.000000	0.062821	7.37258e+06	-38639.1	1005.82	-29793.6	0.000000	0.000000	6.062767	-0.010714	NaN	0.000000	0.001743	0.001754	28.0821	0.069096	0.001946	35.4979	-90.3736	-164.676	0.008282	0.061511	-1.329030	-1.330339	-0.010714	35.4979	-1.328803	-5.796798E+17	1.848194E-20	NaN
769	1.000000	0.072836	7.37258e+06	-38639.1	1005.82	-29793.6	0.000000	0.000000	6.072783	0.020320	NaN	0.000000	0.001726	0.001747	28.0817	0.129718	0.002074	62.5372	165.815	15.5693	0.018430	0.071404	-1.319015	-1.320447	0.020320	62.5372	-1.319258	-4.322140E+17	-4.701400E-20	NaN
769	1.000000	0.082833	7.37258e+06	-38639.1	1005.82	-29793.6	0.000000	0.000000	6.082777	-0.045346	NaN	0.000000	0.001733	0.001780	28.0822	0.071653	0.002003	35.7758	79.4378	-165.688	0.041331	0.081520	-1.309018	-1.310331	-0.045346	35.7758	-1.308067	-3.063316E+17	1.480303E-19	NaN
769	1.000000	0.092833	7.37258e+06	-38639.1	1005.82	-29793.6	0.000000	0.000000	6.092780	0.014482	NaN	0.000000	0.001696	0.001775	28.0816	0.179015	0.001898	94.3131	-114.447	16.223	0.074309	0.091487	-1.299018	-1.300364	0.014482	94.3131	-1.299133	-2.327084E+17	-6.223265E-20	NaN
769	1.000000	0.102830	7.37258e+06	-38639.1	1005.82	-29793.6	0.000000	0.000000	6.102773	-0.083185	NaN	0.000000	0.001707	0.001788	28.0818	0.175567	0.001993	88.1014	169.598	-166.46	-0.073202	0.101515	-1.289021	-1.290335	-0.083185	88.1014	-1.288312	-1.668011E+17	4.987075E-19	NaN
769	1.000000	0.112824	7.37258e+06	-38639.1	1005.82	-29793.6	0.000000	0.000000	6.112769	-0.027988	NaN	0.000000	0.001737	0.001774	28.082	0.070056	0.002024	34.611	172.695	14.3023	-0.125513	0.111474	-1.279027	-1.280377	-0.027988	34.611	-1.278420	-1.230183E+17	2.275084E-19	NaN
769	1.000000	0.122840	7.37258e+06	-38639.1	1005.82	-29793.6	0.000000	0.000000	6.122786	-0.002348	NaN	0.000000	0.001699	0.001766	28.0817	0.016596	0.002085	7.959264	44.2543	-164.231	-0.106610	0.121536	-1.269011	-1.270314	-0.002348	7.959264	-1.268790	-9.145540E+16	2.567620E-20	NaN
769	1.000000	0.132853	7.37258e+06	-38639.1	1005.82	-29793.6	0.000000	0.000000	6.132799	-0.013079	NaN	0.000000	0.001713	0.001760	28.0818	0.106463	0.002070	51.4398	85.3065	16.4605	-0.018502	0.131390	-1.258998	-1.260461	-0.013079	51.4398	-1.258807	-6.725312E+16	1.944688E-19	NaN
769	1.000000	0.142822	7.37258e+06	-38639.1	1005.82	-29793.6	0.000000	0.000000	6.142770	0.023325	NaN	0.000000	0.001716	0.001740	28.0819	0.034850	0.002132	16.3441	8.115876	-164.089	0.089819	0.141555	-1.249028	-1.250295	0.023325	16.3441	-1.250099	-5.143304E+16	-4.535115E-19	NaN
769	1.000000	0.152863	7.37258e+06	-38639.1	1005.82	-29793.6	0.000000	0.000000	6.152810	0.007963	NaN	0.000000	0.001759	0.001733	28.0821	0.049261	0.002038	24.1681	-79.0926	15.1673	-0.025462	0.151484	-1.238987	-1.240367	0.007963	24.1681	-1.239234	-3.680441E+16	-2.163700E-19	NaN
769	1.000000	0.162859	7.37258e+06	-38639.1	1005.82	-29793.6	0.000000	0.000000	6.162806	0.010398	NaN	0.000000	0.001723	0.001743	28.082	0.065598	0.001999	32.8196	148.532	-163.161	0.012109	0.161546	-1.228992	-1.230305	0.010398	32.8196	-1.229230	-2.704152E+16	-3.845137E-19	NaN
769	1.000000	0.172879	7.37258e+06	-38639.1	1005.82	-29793.6	0.000000	0.000000	6.172826	-0.004176	NaN	0.000000	0.001683	0.001748	28.083	0.113036	0.002036	55.5316	174.503	14.0655	-0.037479	0.171488	-1.218972	-1.220363	-0.004176	55.5316	-1.218915	-1.967817E+16	2.122267E-19	NaN
769	1.000000	0.182835	7.37258e+06	-38639.1	1005.82	-29793.6	0.000000	0.000000	6.182781	-0.009001	NaN	0.000000	0.001649	0.001745	28.0833	0.074965	0.001949	38.4602	38.452	-164.185	-0.065630	0.181493	-1.209016	-1.210357	-0.009001	38.4602	-1.208840	-1.442494E+16	6.239553E-19	NaN
769	1.000000	0.192835	7.37258e+06	-38639.1	1005.82	-29793.6	0.000000	0.000000	6.192779	-0.060399	NaN	0.000000	0.001624	0.001742	28.0831	0.045736	0.001921	23.8131	123.529	16.1283	-0.083328	0.191527	-1.199016	-1.200324	-0.060399	23.8131	-1.197114	-1.004838E+16	6.010780E-18	NaN
769	1.000000	0.202874	7.37258e+06	-38639.1	1005.82	-29793.6	0.000000	0.000000	6.202817	-0.067576	NaN	0.000000	0.001634	0.001722	28.0831	0.103014	0.002005	51.3723	88.0889	-164.034	-0.003788	0.201530	-1.188977	-1.190321	-0.067576	51.3723	-1.187991	-7.584203E+15	8.910163E-18	NaN
769	1.000000	0.212867	7.37258e+06	-38639.1	1005.82	-29793.6	0.000000	0.000000	6.212816	0.059097	NaN	0.000000	0.001658	0.001717	28.0832	0.051817	0.002108	24.5842	-46.3219	14.0439	0.012369	0.211506	-1.178984	-1.180345	0.059097	24.5842	-1.180787	-6.073095E+15	-9.730975E-18	NaN
769	1.000000	0.222910	7.37258e+06	-38639.1	1005.82	-29793.6	0.000000	0.000000	6.222856	-0.019661	NaN	0.000000	0.001627	0.001709	28.0836	0.076787	0.001985	38.6861	20.371	-166.087	0.016395	0.221543	-1.168941	-1.170307	-0.019661	38.6861	-1.168560	-4.164732E+15	4.720829E-18	NaN
769	1.000000	0.232880	7.37258e+06	-38639.1	1005.82	-29793.6	0.000000	0.000000	6.232826	0.001088	NaN	0.000000	0.001649	0.001717	28.0832	0.056414	0.002069	27.2657	43.1146	16.098	-0.030909	0.231541	-1.158971	-1.160309	0.001088	27.2657	-1.159001	-3.100835E+15	-3.510337E-19	NaN
769	1.000000	0.242881	7.37258e+06	-38639.1	1005.82	-29793.6	0.000000	0.000000	6.242828	-0.003374	NaN	0.000000	0.001681	0.001740	28.0835	0.058663	0.001919	30.5648	96.394	-164.16	0.045362	0.241552	-1.148969	-1.150298	-0.003374	30.5648	-1.148887	-2.269308E+15	1.486950E-18	NaN
769	1.000000	0.252916	7.37258e+06	-38639.1	1005.82	-29793.6	0.000000	0.000000	6.252861	-0.051899	NaN	0.000000	0.001639	0.001780	28.0836	0.048799	0.002014	24.2322	6.905805	15.33	-0.046782	0.251541	-1.138934	-1.140310	-0.051899	24.2322	-1.137328	-1.588204E+15	3.267780E-17	NaN
769	1.000000	0.262890	7.37258e+06	-38639.1	1005.82	-29793.6	0.000000	0.000000	6.262836	-0.017786	NaN	0.000000	0.001650	0.001774	28.083	0.033397	0.001883	17.7375	176.678	-167.19	-0.056673	0.261573	-1.128960	-1.130278	-0.017786	17.7375	-1.128208	-1.198371E+15	1.484152E-17	NaN
769	1.000000	0.272889	7.37258e+06	-38639.1	1005.82	-29793.6	0.000000	0.000000	6.272833	-0.061154	NaN	0.000000	0.001634	0.001797	28.0834	0.076206	0.002030	37.5459	54.3044	17.6458	-0.025088	0.271527	-1.118962	-1.120324	-0.061154	37.5459	-1.117740	-8.672693E+14	7.051359E-17	NaN
769	1.000000	0.282876	7.37258e+06	-38639.1	1005.82	-29793.6	0.000000	0.000000	6.282821	-0.038074	NaN	0.000000	0.001663	0.001751	28.0833	0.102794	0.002090	49.1907	-108.352	-163.29	-0.033594	0.281556	-1.108975	-1.110295	-0.038074	49.1907	-1.108394	-6.497419E+14	5.859821E-17	NaN
769	1.000000	0.292932	7.37258e+06	-38639.1	1005.82	-29793.6	0.000000	0.000000	6.292878	-0.020246	NaN	0.000000	0.001668	0.001761	28.0833	0.041248	0.002090	19.7398	46.8821	19.1351	-0.000657	0.291495	-1.098919	-1.100356	-0.020246	19.7398	-1.098149	-4.733956E+14	4.276786E-17	NaN
769	1.000000	0.302897	7.37258e+06	-38639.1	1005.82	-29793.6	0.000000	0.000000	6.302843	-0.009865	NaN	0.000000	0.001707	0.001779	28.0821	0.026056	0.002056	12.6729	88.908	-164.902	-0.026809	0.301600	-1.088954	-1.090250	-0.009865	12.6729	-1.088370	-3.498812E+14	2.819487E-17	NaN
769	1.000000	0.312934	7.37258e+06	-38639.1	1005.82	-29793.6	0.000000	0.000000	6.312879	-0.033109	NaN	0.000000	0.001696	0.001773	28.0822	0.073600	0.001945	37.8376	-17.6692	14.0504	0.016841	0.311509	-1.078917	-1.080341	-0.033109	37.8376	-1.078260	-2.559496E+14	1.293561E-16	NaN
769	1.000000	0.322926	7.37258e+06	-38639.1	1005.82	-29793.6	0.000000	0.000000	6.322870	-0.047624	NaN	0.000000	0.001653	0.001759	28.0821	0.076204	0.002120	35.9382	-98.1241	-162.954	-0.003614	0.321638	-1.068925	-1.070212	-0.047624	35.9382	-1.067931	-1.859489E+14	2.561137E-16	NaN
769	1.000000	0.332907	7.37258e+06	-38639.1	1005.82	-29793.6	0.000000	0.000000	6.332853	-0.020137	NaN	0.000000	0.001657	0.001799	28.0819	0.073586	0.002033	36.1902	-69.8261	16.785	-0.014208	0.331591	-1.058944	-1.060260	-0.020137	36.1902	-1.058526	-1.390008E+14	1.448719E-16	NaN
769	1.000000	0.342932	7.37258e+06	-38639.1	1005.82	-29793.6	0.000000	0.000000	6.342878	-0.015571	NaN	0.000000	0.001688	0.001818	28.0817	0.028446	0.002028	14.0285	-38.2005	-166.058	-0.081728	0.341605	-1.048919	-1.050246	-0.015571	14.0285	-1.048086	-1.006203E+14	1.547513E-16	NaN
769	1.000000	0.352909	7.37258e+06	-38639.1	1005.82	-29793.6	0.000000	0.000000	6.352857	0.039836	NaN	0.000000	0.001695	0.001821	28.0819	0.111055	0.001843	60.2691	81.6811	12.6408	-0.041720	0.351612	-1.038942	-1.040238	0.039836	60.2691	-1.039438	-7.698542E+13	-5.174523E-16	NaN
769	1.000000	0.362946	7.37258e+06	-38639.1	1005.82	-29793.6	0.000000	0.000000	6.362893	0.004717	NaN	0.000000	0.001710	0.001823	28.082	0.033539	0.002083	16.1002	-10.5055	-164.904	0.013951	0.361639	-1.028905	-1.030212	0.004717	16.1002	-1.029124	-5.593750E+13	-8.432613E-17	NaN
769	1.000000	0.372946	7.37258e+06	-38639.1	1005.82	-29793.6	0.000000	0.000000	6.372892	-0.007359	NaN	0.000000	0.001692	0.001841	28.0818	0.041332	0.001868	22.1291	-85.9868	12.8533	-0.059648	0.371571	-1.018905	-1.020279	-0.007359	22.1291	-1.018655	-4.044427E+13	1.819615E-16	NaN
769	1.000000	0.382955	7.37258e+06	-38639.1	1005.82	-29793.6	0.000000	0.000000	6.382900	-0.039781	NaN	0.000000	0.001698	0.001776	28.082	0.044580	0.002004	22.249	-97.8731	-163.435	0.012981	0.381643	-1.008896	-1.010208	-0.039781	22.249	-1.007555	-2.867277E+13	1.387417E-15	NaN
769	1.000000	0.392966	7.37258e+06	-38639.1	1005.82	-29793.6	0.000000	0.000000	6.392913	0.018960	NaN	0.000000	0.001713	0.001810	28.0821	0.051497	0.001941	26.5292	71.0477	12.8181	0.088312	0.391547	-0.998885	-1.000304	0.018960	26.5292	-0.999421	-2.228288E+13	-8.508714E-16	NaN
769	1.000000	0.402954	7.37258e+06	-38639.1	1005.82	-29793.6	0.000000	0.000000	6.402904	0.097298	NaN	0.000000	0.001716	0.001802	28.0821	0.040635	0.002135	19.0341	176.971	-166.174	0.015939	0.401605	-0.988897	-0.990246	0.097298	19.0341	-0.992731	-1.810880E+13	-5.372993E-15	NaN
769	1.000000	0.412937	7.37258e+06	-38639.1	1005.82	-29793.6	0.000000	0.000000	6.412884	0.020307	NaN	0.000000	0.001683	0.001813	28.082	0.091681	0.001972	46.485	67.5295	15.2126	-0.069725	0.411571	-0.978914	-0.980280	0.020307	46.485	-0.979242	-1.191769E+13	-1.703977E-15	NaN
769	1.000000	0.422955	7.37258e+06	-38639.1	1005.82	-29793.6	0.000000	0.000000	6.422900	-0.040513	NaN	0.000000	0.001687	0.001793	28.082	0.021255	0.001825	11.6442	4.753042	-164.773	-0.025842	0.421671	-0.968896	-0.970179	-0.040513	11.6442	-0.966287	-7.972838E+12	5.081316E-15	NaN
769	1.000000	0.432950	7.37258e+06	-38639.1	1005.82	-29793.6	0.000000	0.000000	6.432896	0.001504	NaN	0.000000	0.001694	0.001830	28.0821	0.071304	0.001944	36.6743	-107.481	16.0262	0.018815	0.431605	-0.958901	-0.960245	0.001504	36.6743	-0.958932	-6.345507E+12	-2.369447E-16	NaN
769	1.000000	0.442976	7.37258e+06	-38639.1	1005.82	-29793.6	0.000000	0.000000	6.442923	0.006419	NaN	0.000000	0.001701	0.001827	28.0832	0.101023	0.001974	51.1704	87.3284	-161.888	-0.070896	0.441643	-0.948875	-0.950208	0.006419	51.1704	-0.948969	-4.657183E+12	-1.378323E-15	NaN
769	1.000000	0.452995	7.37258e+06	-38639.1	1005.82	-29793.6	0.000000	0.000000	6.452940	-0.022962	NaN	0.000000	0.001698	0.001827	28.0831	0.080127	0.002000	40.0547	-136.47	12.1743	0.020682	0.451588	-0.938856	-0.940262	-0.022962	40.0547	-0.938426	-3.356613E+12	6.840825E-15	NaN
769	1.000000	0.462948	7.37258e+06	-38639.1	1005.82	-29793.6	0.000000	0.000000	6.462895	0.015069	NaN	0.000000	0.001709	0.001819	28.0834	0.071174	0.001954	36.4201	-106.283	-167.061	0.041841	0.461675	-0.928903	-0.930176	0.015069	36.4201	-0.929213	-2.521032E+12	-5.977129E-15	NaN
769	1.000000	0.472975	7.37258e+06	-38639.1	1005.82	-29793.6	0.000000	0.000000	6.472920	-0.042222	NaN	0.000000	0.001687	0.001817	28.0832	0.009137	0.001983	4.606707	-138.388	11.3698	-0.001042	0.471636	-0.918876	-0.920214	-0.042222	4.606707	-0.912002	-1.476387E+12	2.859840E-14	NaN
769	1.000000	0.483000	7.37258e+06	-38639.1	1005.82	-29793.6	0.000000	0.000000	6.482945	-0.051864	NaN	0.000000	0.001696	0.001789	28.0833	0.039106	0.001961	19.9436	-114.912	-166.069	-0.090644	0.481652	-0.908850	-0.910199	-0.051864	19.9436	-0.906900	-1.259759E+12	4.117013E-14	NaN
769	1.000000	0.493008	7.37258e+06	-38639.1	1005.82	-29793.6	0.000000	0.000000	6.492952	-0.053756	NaN	0.000000	0.001675	0.001794	28.0832	0.078803	0.002025	38.9098	-116.463	13.0542	-0.013887	0.491593	-0.898843	-0.900258	-0.053756	38.9098	-0.897807	-9.493532E+11	5.662355E-14	NaN
769	1.000000	0.503001	7.37258e+06	-38639.1	1005.82	-29793.6	0.000000	0.000000	6.502949	0.031339	NaN	0.000000	0.001693	0.001804	28.0836	0.057249	0.002095	27.331	73.1561	-167.564	-0.009498	0.501688	-0.888850	-0.890163	0.031339	27.331	-0.889710	-7.378935E+11	-4.247027E-14	NaN
769	1.000000	0.512996	7.37258e+06	-38639.1	1005.82	-29793.6	0.000000	0.000000	6.512942	-0.005257	NaN	0.000000	0.001665	0.001807	28.0831	0.068804	0.001919	35.8631	-133.076	15.7178	-0.053803	0.511657	-0.878855	-0.880193	-0.005257	35.8631	-0.878745	-5.244916E+11	1.002245E-14	NaN
769	1.000000	0.522994	7.37258e+06	-38639.1	1005.82	-29793.6	0.000000	0.000000	6.522936	-0.098352	NaN	0.000000	0.001690	0.001830	28.0834	0.105752	0.001979	53.4442	134.123	-163.885	-0.105721	0.521612	-0.868857	-0.870239	-0.098352	53.4442	-0.867477	-3.692356E+11	2.663662E-13	NaN
769	1.000000	0.533010	7.37258e+06	-38639.1	1005.82	-29793.6	0.000000	0.000000	6.532955	-0.041352	NaN	0.000000	0.001703	0.001810	28.0834	0.092930	0.001886	49.2635	112.536	15.7421	-0.052997	0.531672	-0.858840	-0.860178	-0.041352	49.2635	-0.858211	-2.766332E+11	1.494831E-13	NaN
769	1.000000	0.543025	7.37258e+06	-38639.1	1005.82	-29793.6	0.000000	0.000000	6.542972	0.005395	NaN	0.000000	0.001704	0.001826	28.0835	0.115056	0.001988	57.8852	-18.3218	-163.848	0.097675	0.541650	-0.848826	-0.850201	0.005395	57.8852	-0.848896	-2.069101E+11	-2.607312E-14	NaN
769	1.000000	0.553030	7.37258e+06	-38639.1	1005.82	-29793.6	0.000000	0.000000	6.552974	-0.043301	NaN	0.000000	0.001713	0.001768	28.0831	0.066453	0.002013	33.0149	-154.251	17.108	-0.058315	0.551689	-0.838821	-0.840162	-0.043301	33.0149	-0.837837	-1.465526E+11	2.954623E-13	NaN
769	1.000000	0.563012	7.37258e+06	-38639.1	1005.82	-29793.6	0.000000	0.000000	6.562958	0.003254	NaN	0.000000	0.001669	0.001725	28.0831	0.094049	0.002069	45.4461	170.407	-164.868	-0.000497	0.561731	-0.828839	-0.830119	0.003254	45.4461	-0.828893	-1.108607E+11	-2.935405E-14	NaN
769	1.000000	0.573028	7.37258e+06	-38639.1	1005.82	-29793.6	0.000000	0.000000	6.572976	0.015773	NaN	0.000000	0.001699	0.001750	28.0831	0.101086	0.002086	48.4631	-162.939	17.4333	-0.029696	0.571616	-0.818822	-0.820235	0.015773	48.4631	-0.819066	-8.157370E+10	-1.933649E-13	NaN
769	1.000000	0.583024	7.37258e+06	-38639.1	1005.82	-29793.6	0.000000	0.000000	6.582971	0.020366	NaN	0.000000	0.001664	0.001779	28.0818	0.102222	0.001986	51.4673	119.253	-163.508	-0.060493	0.581688	-0.808827	-0.810163	0.020366	51.4673	-0.809124	-5.979733E+10	-3.405847E-13	NaN
769	1.000000	0.593017	7.37258e+06	-38639.1	1005.82	-29793.6	0.000000	0.000000	6.592965	0.045044	NaN	0.000000	0.001691	0.001713	28.0817	0.049904	0.001979	25.2203	76.3599	10.6712	0.025977	0.591703	-0.798834	-0.800148	0.045044	25.2203	-0.800174	-4.520843E+10	-9.963584E-13	NaN
769	1.000000	0.603017	7.37258e+06	-38639.1	1005.82	-29793.6	0.000000	0.000000	6.602964	0.011779	NaN	0.000000	0.001684	0.001709	28.0818	0.010881	0.002043	5.324723	-68.8452	-160.665	-0.005555	0.601729	-0.788833	-0.790122	0.011779	5.324723	-0.790492	-3.340189E+10	-3.526310E-13	NaN
769	1.000000	0.613028	7.37258e+06	-38639.1	1005.82	-29793.6	0.000000	0.000000	6.612976	0.039576	NaN	0.000000	0.001714	0.001730	28.083	0.036206	0.001969	18.3847	-98.0319	15.1601	-0.064800	0.611648	-0.778822	-0.780203	0.039576	18.3847	-0.780437	-2.438764E+10	-1.622775E-12	NaN
769	1.000000	0.623051	7.37258e+06	-38639.1	1005.82	-29793.6	0.000000	0.000000	6.622997	-0.002778	NaN	0.000000	0.001685	0.001745	28.082	0.024721	0.001911	12.9333	59.1539	-164.04	-0.006327	0.621726	-0.768800	-0.770125	-0.002778	12.9333	-0.768639	-1.685757E+10	1.648190E-13	NaN
769	1.000000	0.633063	7.37258e+06	-38639.1	1005.82	-29793.6	0.000000	0.000000	6.633010	0.006505	NaN	0.000000	0.001692	0.001759	28.0821	0.020093	0.002014	9.977734	-154.146	11.4687	0.009999	0.631696	-0.758787	-0.760155	0.006505	9.977734	-0.759276	-1.257350E+10	-5.173638E-13	NaN
769	1.000000	0.643058	7.37258e+06	-38639.1	1005.82	-29793.6	0.000000	0.000000	6.643003	-0.044210	NaN	0.000000	0.001684	0.001760	28.0821	0.130683	0.001966	66.4788	-69.7553	-165.744	-0.069313	0.641717	-0.748793	-0.750133	-0.044210	66.4788	-0.748294	-8.912494E+9	4.960464E-12	NaN
769	1.000000	0.653066	7.37258e+06	-38639.1	1005.82	-29793.6	0.000000	0.000000	6.653012	-0.018569	NaN	0.000000	0.001670	0.001755	28.0823	0.071249	0.001892	37.6486	37.2137	15.942	0.009785	0.651678	-0.738785	-0.740173	-0.018569	37.6486	-0.738415	-6.538304E+9	2.840016E-12	NaN
769	1.000000	0.663067	7.37258e+06	-38639.1	1005.82	-29793.6	0.000000	0.000000	6.663012	-0.041187	NaN	0.000000	0.001684	0.001745	28.0822	0.017178	0.002120	8.104075	-8.844647	-163.579	-0.029595	0.661746	-0.728784	-0.730105	-0.041187	8.104075	-0.724972	-4.288146E+9	9.604784E-12	NaN
769	1.000000	0.673050	7.37258e+06	-38639.1	1005.82	-29793.6	0.000000	0.000000	6.672999	0.050206	NaN	0.000000	0.001679	0.001771	28.0822	0.088153	0.002016	43.7359	21.3234	12.3916	-0.006795	0.671681	-0.718801	-0.720170	0.050206	43.7359	-0.719662	-3.629583E+9	-1.383237E-11	NaN
769	1.000000	0.683059	7.37258e+06	-38639.1	1005.82	-29793.6	0.000000	0.000000	6.683004	-0.030199	NaN	0.000000	0.001671	0.001757	28.0823	0.069869	0.002004	34.8677	107.417	-165.49	-0.000863	0.681777	-0.708792	-0.710074	-0.030199	34.8677	-0.708142	-2.527531E+9	1.194804E-11	NaN
769	1.000000	0.693079	7.37258e+06	-38639.1	1005.82	-29793.6	0.000000	0.000000	6.693024	-0.045760	NaN	0.000000	0.001689	0.001767	28.0819	0.028416	0.001937	14.6714	155.631	13.241	0.020033	0.691748	-0.698771	-0.700102	-0.045760	14.6714	-0.696432	-1.749042E+9	2.616309E-11	NaN
769	1.000000	0.703101	7.37258e+06	-38639.1	1005.82	-29793.6	0.000000	0.000000	6.703048	0.011695	NaN	0.000000	0.001692	0.001760	28.0821	0.062272	0.002000	31.1388	167.963	-163.694	-0.052170	0.701778	-0.688750	-0.690073	0.011695	31.1388	-0.689032	-1.385753E+9	-8.439116E-12	NaN
769	1.000000	0.713097	7.37258e+06	-38639.1	1005.82	-29793.6	0.000000	0.000000	6.713040	-0.098249	NaN	0.000000	0.001726	0.001758	28.0833	0.031468	0.002033	15.4821	9.471614	14.4014	-0.058341	0.711699	-0.678753	-0.680151	-0.098249	15.4821	-0.673994	-8.630697E+8	1.138361E-10	NaN
769	1.000000	0.723072	7.37258e+06	-38639.1	1005.82	-29793.6	0.000000	0.000000	6.723016	-0.076012	NaN	0.000000	0.001729	0.001769	28.0834	0.039873	0.001981	20.1294	116.882	-160.855	0.028758	0.721750	-0.668778	-0.670100	-0.076012	20.1294	-0.665946	-6.697308E+8	1.134969E-10	NaN
769	1.000000	0.733066	7.37258e+06	-38639.1	1005.82	-29793.6	0.000000	0.000000	6.733011	-0.024485	NaN	0.000000	0.001720	0.001771	28.0833	0.070716	0.001979	35.7362	145.075	15.8584	0.024376	0.731747	-0.658785	-0.660103	-0.024485	35.7362	-0.658271	-5.257593E+8	4.657095E-11	NaN
769	1.000000	0.743110	7.37258e+06	-38639.1	1005.82	-29793.6	0.000000	0.000000	6.743057	-0.011359	NaN	0.000000	0.001713	0.001776	28.0833	0.037725	0.002014	18.7339	-10.1709	-163.829	-0.037155	0.741774	-0.648740	-0.650077	-0.011359	18.7339	-0.648285	-3.836456E+8	2.960874E-11	NaN
769	1.000000	0.753080	7.37258e+06	-38639.1	1005.82	-29793.6	0.000000	0.000000	6.753026	-0.016464	NaN	0.000000	0.001716	0.001745	28.0834	0.107301	0.002023	53.0405	108.181	13.5883	0.018031	0.751726	-0.638771	-0.640125	-0.016464	53.0405	-0.638538	-2.819843E+8	5.838471E-11	NaN
769	1.000000	0.763100	7.37258e+06	-38639.1	1005.82	-29793.6	0.000000	0.000000	6.763044	-0.065266	NaN	0.000000	0.001722	0.001749	28.0831	0.056469	0.001886	29.9381	81.0642	-166.289	-0.021526	0.761769	-0.628751	-0.630081	-0.065266	29.9381	-0.627116	-1.965230E+8	3.321031E-10	NaN
769	1.000000	0.773131	7.37258e+06	-38639.1	1005.82	-29793.6	0.000000	0.000000	6.773074	-0.078428	NaN	0.000000	0.001732	0.001757	28.0833	0.079392	0.001973	40.2458	-16.1624	16.9703	-0.139208	0.771763	-0.618720	-0.620088	-0.078428	40.2458	-0.617258	-1.438617E+8	5.451643E-10	NaN
769	1.000000	0.783133	7.37258e+06	-38639.1	1005.82	-29793.6	0.000000	0.000000	6.783078	-0.026392	NaN	0.000000	0.001724	0.001750	28.0832	0.086235	0.002028	42.5177	96.3488	-162.834	0.012403	0.781766	-0.608718	-0.610084	-0.026392	42.5177	-0.608252	-1.081601E+8	2.440052E-10	NaN
769	1.000000	0.793108	7.37258e+06	-38639.1	1005.82	-29793.6	0.000000	0.000000	6.793057	0.047890	NaN	0.000000	0.001702	0.001758	28.0835	0.043620	0.002038	21.4018	-159.512	17.3391	-0.054586	0.791742	-0.598743	-0.600108	0.047890	21.4018	-0.600421	-8.438381E+7	-5.675310E-10	NaN
769	1.000000	0.803124	7.37258e+06	-38639.1	1005.82	-29793.6	0.000000	0.000000	6.803070	-0.025530	NaN	0.000000	0.001726	0.001737	28.0833	0.126801	0.001840	68.9275	-152.284	-162.812	-0.008380	0.801831	-0.588727	-0.590019	-0.025530	68.9275	-0.588449	-5.771371E+7	4.423574E-10	NaN
769	1.000000	0.813144	7.37258e+06	-38639.1	1005.82	-29793.6	0.000000	0.000000	6.813088	-0.062425	NaN	0.000000	0.001737	0.001737	28.0834	0.026149	0.001874	13.9554	-96.7516	20.006	-0.121814	0.811729	-0.578707	-0.580122	-0.062425	13.9554	-0.575352	-3.806773E+7	1.639849E-9	NaN
769	1.000000	0.823150	7.37258e+06	-38639.1	1005.82	-29793.6	0.000000	0.000000	6.823095	-0.040615	NaN	0.000000	0.001679	0.001744	28.0835	0.028339	0.001980	14.3142	-169.133	-166.082	-0.044631	0.821850	-0.568701	-0.570000	-0.040615	14.3142	-0.566573	-2.879173E+7	1.410660E-9	NaN
769	1.000000	0.833142	7.37258e+06	-38639.1	1005.82	-29793.6	0.000000	0.000000	6.833091	0.073126	NaN	0.000000	0.001692	0.001717	28.0833	0.118531	0.001813	65.3779	-82.0166	13.2873	0.032285	0.831764	-0.558709	-0.560086	0.073126	65.3779	-0.559548	-2.302084E+7	-3.176524E-9	NaN
769	1.000000	0.843153	7.37258e+06	-38639.1	1005.82	-29793.6	0.000000	0.000000	6.843099	-0.025698	NaN	0.000000	0.001661	0.001718	28.084	0.020114	0.002024	9.938158	77.3303	-164.289	-0.096563	0.841842	-0.548697	-0.550008	-0.025698	9.938158	-0.546758	-1.531237E+7	1.678226E-9	NaN
769	1.000000	0.853110	7.37258e+06	-38639.1	1005.82	-29793.6	0.000000	0.000000	6.853055	-0.033258	NaN	0.000000	0.001654	0.001721	28.0819	0.101276	0.001954	51.8241	159.387	16.7688	0.043710	0.851723	-0.538741	-0.540128	-0.033258	51.8241	-0.538259	-1.167388E+7	2.848939E-9	NaN
769	1.000000	0.863109	7.37258e+06	-38639.1	1005.82	-29793.6	0.000000	0.000000	6.863052	-0.101986	NaN	0.000000	0.001689	0.001714	28.0822	0.107754	0.002157	49.9582	66.0936	-163.793	-0.130253	0.861842	-0.528741	-0.530008	-0.101986	49.9582	-0.527210	-8.20021e+06	1.243700E-8	NaN
769	1.000000	0.873143	7.37258e+06	-38639.1	1005.82	-29793.6	0.000000	0.000000	6.873086	-0.075483	NaN	0.000000	0.001642	0.001714	28.0817	0.060344	0.002020	29.8694	-19.1212	16.6053	-0.078938	0.871772	-0.518708	-0.520078	-0.075483	29.8694	-0.516813	-5.87839e+06	1.284080E-8	NaN
769	1.000000	0.883144	7.37258e+06	-38639.1	1005.82	-29793.6	0.000000	0.000000	6.883093	0.035488	NaN	0.000000	0.001683	0.001769	28.0819	0.066061	0.002035	32.4555	-41.572	-165.327	0.016355	0.881841	-0.508706	-0.510009	0.035488	32.4555	-0.509526	-4.6539e+06	-7.625473E-9	NaN
769	1.000000	0.893163	7.37258e+06	-38639.1	1005.82	-29793.6	0.000000	0.000000	6.893110	0.005271	NaN	0.000000	0.001641	0.001722	28.0818	0.083780	0.002004	41.8117	-32.3487	15.4243	0.027035	0.891739	-0.498687	-0.500112	0.005271	41.8117	-0.498782	-3.29626e+06	-1.599136E-9	NaN
769	1.000000	0.903164	7.37258e+06	-38639.1	1005.82	-29793.6	0.000000	0.000000	6.903111	0.017634	NaN	0.000000	0.001666	0.001710	28.0821	0.049070	0.001955	25.102	-119.888	-163.966	0.022671	0.901826	-0.488687	-0.490025	0.017634	25.102	-0.489214	-2.42329e+06	-7.277072E-9	NaN
769	1.000000	0.913171	7.37258e+06	-38639.1	1005.82	-29793.6	0.000000	0.000000	6.913120	0.041034	NaN	0.000000	0.001649	0.001700	28.0817	0.073872	0.001977	37.3661	153.809	17.1626	0.091015	0.911792	-0.478679	-0.480058	0.041034	37.3661	-0.479503	-1.77243e+06	-2.315110E-8	NaN
769	1.000000	0.923171	7.37258e+06	-38639.1	1005.82	-29793.6	0.000000	0.000000	6.923118	0.015911	NaN	0.000000	0.001682	0.001767	28.0819	0.039587	0.002093	18.913	56.7105	-164.546	0.062782	0.921848	-0.468680	-0.470002	0.015911	18.913	-0.469311	-1.27567e+06	-1.247233E-8	NaN
769	1.000000	0.933172	7.37258e+06	-38639.1	1005.82	-29793.6	0.000000	0.000000	6.933118	-0.006666	NaN	0.000000	0.001672	0.001721	28.082	0.118515	0.001940	61.0783	36.25	13.8364	0.030245	0.931763	-0.458679	-0.460088	-0.006666	61.0783	-0.458597	-902186	7.388756E-9	NaN
769	1.000000	0.943159	7.37258e+06	-38639.1	1005.82	-29793.6	0.000000	0.000000	6.943105	-0.016403	NaN	0.000000	0.001695	0.001709	28.0818	0.135681	0.001970	68.8836	90.5194	-164.356	-0.018354	0.941855	-0.448692	-0.449996	-0.016403	68.8836	-0.448513	-650727	2.520683E-8	NaN
769	1.000000	0.953197	7.37258e+06	-38639.1	1005.82	-29793.6	0.000000	0.000000	6.953144	-0.002574	NaN	0.000000	0.001655	0.001744	28.0819	0.047091	0.001982	23.7558	168.789	15.3295	-0.044044	0.951854	-0.438653	-0.439997	-0.002574	23.7558	-0.438572	-471204	5.462487E-9	NaN
769	1.000000	0.963210	7.37258e+06	-38639.1	1005.82	-29793.6	0.000000	0.000000	6.963157	0.021567	NaN	0.000000	0.001711	0.001690	28.0821	0.104736	0.001985	52.7671	138.347	-165.627	0.029170	0.961931	-0.428641	-0.429920	0.021567	52.7671	-0.428948	-344485	-6.260640E-8	NaN
769	1.000000	0.973184	7.37258e+06	-38639.1	1005.82	-29793.6	0.000000	0.000000	6.973129	-0.028890	NaN	0.000000	0.001719	0.001706	28.082	0.028357	0.001941	14.6117	73.668	14.3381	0.066328	0.971793	-0.418667	-0.420058	-0.028890	14.6117	-0.417184	-234671	1.231106E-7	NaN
769	1.000000	0.983176	7.37258e+06	-38639.1	1005.82	-29793.6	0.000000	0.000000	6.983120	-0.057651	NaN	0.000000	0.001694	0.001707	28.0819	0.135385	0.002075	65.2574	-106.279	-165.217	-0.032540	0.981853	-0.408675	-0.409997	-0.057651	65.2574	-0.408012	-173832	3.316506E-7	NaN
769	1.000000	0.993233	7.37258e+06	-38639.1	1005.82	-29793.6	0.000000	0.000000	6.993178	-0.056459	NaN	0.000000	0.001657	0.001688	28.0832	0.049900	0.001907	26.1729	-73.9991	15.1626	-0.069568	0.991834	-0.398617	-0.400016	-0.056459	26.1729	-0.396999	-121111	4.661765E-7	NaN
769	1.000000	1.003203	7.37258e+06	-38639.1	1005.82	-29793.6	0.000000	0.000000	7.003148	-0.048538	NaN	0.000000	0.001667	0.001681	28.0834	0.099742	0.002013	49.5558	-10.8607	-167.037	-0.060357	1.001892	-0.388648	-0.389959	-0.048538	49.5558	-0.387913	-89805.6	5.404781E-7	NaN
769	1.000000	1.013202	7.37258e+06	-38639.1	1005.82	-29793.6	0.000000	0.000000	7.013146	-0.070743	NaN	0.000000	0.001655	0.001687	28.0833	0.103855	0.002089	49.7232	-173.505	15.2569	-0.045287	1.011862	-0.378648	-0.379989	-0.070743	49.7232	-0.377581	-63850.4	1.107949E-6	NaN
769	1.000000	1.023203	7.37258e+06	-38639.1	1005.82	-29793.6	0.000000	0.000000	7.023147	-0.051152	NaN	0.000000	0.001687	0.001710	28.0834	0.083975	0.002036	41.2392	-165.126	-163.959	-0.024401	1.021924	-0.368648	-0.369927	-0.051152	41.2392	-0.367717	-46051.3	1.110754E-6	NaN
769	1.000000	1.033210	7.37258e+06	-38639.1	1005.82	-29793.6	0.000000	0.000000	7.033156	-0.005380	NaN	0.000000	0.001775	0.001659	28.0832	0.152332	0.001912	79.6871	-137.162	14.8061	0.044140	1.031864	-0.358641	-0.359986	-0.005380	79.6871	-0.358590	-33998.5	1.582506E-7	NaN
769	1.000000	1.043203	7.37258e+06	-38639.1	1005.82	-29793.6	0.000000	0.000000	7.043149	-0.007317	NaN	0.000000	0.001696	0.001666	28.0839	0.023074	0.001940	11.896	126.472	-164.236	0.004757	1.041905	-0.348648	-0.349946	-0.007317	11.896	-0.348187	-24025.5	3.045567E-7	NaN
769	1.000000	1.053197	7.37258e+06	-38639.1	1005.82	-29793.6	0.000000	0.000000	7.053145	0.028650	NaN	0.000000	0.001714	0.001648	28.0831	0.113026	0.001894	59.6912	-33.1554	14.4626	0.011396	1.051850	-0.338653	-0.340000	0.028650	59.6912	-0.339013	-17667.2	-1.621670E-6	NaN
769	1.000000	1.063221	7.37258e+06	-38639.1	1005.82	-29793.6	0.000000	0.000000	7.063168	0.025482	NaN	0.000000	0.001710	0.001686	28.0834	0.048748	0.001993	24.4617	164.325	-162.067	0.034435	1.061903	-0.328630	-0.329948	0.025482	24.4617	-0.329411	-12788.8	-1.992535E-6	NaN
769	1.000000	1.073216	7.37258e+06	-38639.1	1005.82	-29793.6	0.000000	0.000000	7.073160	-0.065709	NaN	0.000000	0.001719	0.001675	28.0831	0.159332	0.001976	80.6214	-125.813	15.5897	-0.017533	1.071822	-0.318635	-0.320028	-0.065709	80.6214	-0.318024	-8700.27	7.552507E-6	NaN
769	1.000000	1.083229	7.37258e+06	-38639.1	1005.82	-29793.6	0.000000	0.000000	7.083175	-0.009033	NaN	0.000000	0.001693	0.001650	28.0836	0.083217	0.002158	38.5665	-104.208	-167.043	0.014705	1.081945	-0.308622	-0.309906	-0.009033	38.5665	-0.308446	-6281.26	1.438045E-6	NaN
769	1.000000	1.093211	7.37258e+06	-38639.1	1005.82	-29793.6	0.000000	0.000000	7.093157	-0.015052	NaN	0.000000	0.001692	0.001667	28.0831	0.123835	0.001987	62.3248	-5.642034	16.9821	-0.035722	1.091874	-0.298640	-0.299977	-0.015052	62.3248	-0.298459	-4463.53	3.372244E-6	NaN
769	1.000000	1.103266	7.37258e+06	-38639.1	1005.82	-29793.6	0.000000	0.000000	7.103213	-0.009910	NaN	0.000000	0.001703	0.001665	28.0832	0.106382	0.002066	51.4816	-99.5475	-161.787	0.046785	1.101969	-0.288584	-0.289882	-0.009910	51.4816	-0.288440	-3161.67	3.134275E-6	NaN
769	1.000000	1.113232	7.37258e+06	-38639.1	1005.82	-29793.6	0.000000	0.000000	7.113177	-0.059703	NaN	0.000000	0.001672	0.001697	28.0831	0.093084	0.001912	48.6747	154.855	14.3519	-0.001399	1.111906	-0.278618	-0.279945	-0.059703	48.6747	-0.277698	-2178.8	2.740172E-5	NaN
769	1.000000	1.123233	7.37258e+06	-38639.1	1005.82	-29793.6	0.000000	0.000000	7.123182	0.053367	NaN	0.000000	0.001707	0.001653	28.082	0.138368	0.002054	67.3676	-4.144433	-164.303	0.068663	1.121936	-0.268617	-0.269915	0.053367	67.3676	-0.269212	-1620.15	-3.293953E-5	NaN
769	1.000000	1.133256	7.37258e+06	-38639.1	1005.82	-29793.6	0.000000	0.000000	7.133199	-0.068223	NaN	0.000000	0.001676	0.001695	28.0817	0.068144	0.002041	33.382	-0.090814	19.9384	-0.136571	1.131891	-0.258595	-0.259960	-0.068223	33.382	-0.257062	-1056.42	6.457987E-5	NaN
769	1.000000	1.143243	7.37258e+06	-38639.1	1005.82	-29793.6	0.000000	0.000000	7.143190	0.003549	NaN	0.000000	0.001676	0.001669	28.0819	0.056142	0.001928	29.1231	-130.853	-165.443	-0.009968	1.141976	-0.248608	-0.249875	0.003549	29.1231	-0.248699	-784.941	-4.521886E-6	NaN
769	1.000000	1.153250	7.37258e+06	-38639.1	1005.82	-29793.6	0.000000	0.000000	7.153197	0.024723	NaN	0.000000	0.001675	0.001717	28.0821	0.060492	0.001987	30.4449	161.335	16.5076	-0.010010	1.151884	-0.238601	-0.239966	0.024723	30.4449	-0.239210	-558.742	-4.424736E-5	NaN
769	1.000000	1.163239	7.37258e+06	-38639.1	1005.82	-29793.6	0.000000	0.000000	7.163184	-0.050746	NaN	0.000000	0.001726	0.001687	28.0819	0.057047	0.001949	29.2717	-164.348	-165.882	-0.044775	1.161945	-0.228611	-0.229905	-0.050746	29.2717	-0.227311	-363.071	0.000140	NaN
769	1.000000	1.173301	7.37258e+06	-38639.1	1005.82	-29793.6	0.000000	0.000000	7.173247	-0.012711	NaN	0.000000	0.001706	0.001733	28.082	0.062779	0.001979	31.7208	-38.2152	14.388	-0.079925	1.171858	-0.218550	-0.219992	-0.012711	31.7208	-0.218249	-260.413	4.881183E-5	NaN
769	1.000000	1.183265	7.37258e+06	-38639.1	1005.82	-29793.6	0.000000	0.000000	7.183209	-0.067540	NaN	0.000000	0.001725	0.001654	28.0819	0.080212	0.002186	36.701	-49.5475	-166.048	-0.035392	1.181967	-0.208586	-0.209884	-0.067540	36.701	-0.207206	-172.774	0.000391	NaN
769	1.000000	1.193287	7.37258e+06	-38639.1	1005.82	-29793.6	0.000000	0.000000	7.193235	0.019450	NaN	0.000000	0.001698	0.001663	28.0817	0.127473	0.001856	68.687	139.937	17.1555	0.009326	1.191947	-0.198564	-0.199903	0.019450	68.687	-0.198776	-125.766	-0.000155	NaN
769	1.000000	1.203263	7.37258e+06	-38639.1	1005.82	-29793.6	0.000000	0.000000	7.203207	-0.061722	NaN	0.000000	0.001710	0.001678	28.0819	0.038133	0.002010	18.9707	-108.281	-163.068	0.085069	1.202032	-0.188588	-0.189819	-0.061722	18.9707	-0.186148	-77.5281	0.000796	NaN
769	1.000000	1.213305	7.37258e+06	-38639.1	1005.82	-29793.6	0.000000	0.000000	7.213252	0.024686	NaN	0.000000	0.001654	0.001714	28.0818	0.030265	0.002067	14.6389	13.9506	16.6388	-0.037236	1.211895	-0.178546	-0.179956	0.024686	14.6389	-0.179811	-60.5685	-0.000408	NaN
769	1.000000	1.223295	7.37258e+06	-38639.1	1005.82	-29793.6	0.000000	0.000000	7.223239	-0.065360	NaN	0.000000	0.001693	0.001693	28.0823	0.010498	0.001974	5.317619	22.2618	-166.204	-0.050925	1.221960	-0.168556	-0.169891	-0.065360	5.317619	-0.159337	-26.6809	0.002450	NaN
769	1.000000	1.233284	7.37258e+06	-38639.1	1005.82	-29793.6	0.000000	0.000000	7.233230	-0.026771	NaN	0.000000	0.001665	0.001672	28.082	0.061533	0.002077	29.6239	-83.0826	13.0558	0.095696	1.231974	-0.158566	-0.159876	-0.026771	29.6239	-0.157889	-25.1402	0.001065	NaN
769	1.000000	1.243266	7.37258e+06	-38639.1	1005.82	-29793.6	0.000000	0.000000	7.243213	-0.006211	NaN	0.000000	0.001651	0.001687	28.082	0.117139	0.001954	59.9614	-51.8636	-165.466	0.008932	1.241964	-0.148584	-0.149887	-0.006211	59.9614	-0.148506	-17.0102	0.000365	NaN
769	1.000000	1.253311	7.37258e+06	-38639.1	1005.82	-29793.6	0.000000	0.000000	7.253256	-0.053612	NaN	0.000000	0.001659	0.001696	28.0819	0.063456	0.001957	32.4201	-42.608	16.9465	-0.095800	1.251949	-0.138539	-0.139902	-0.053612	32.4201	-0.137299	-10.52	0.005096	NaN
769	1.000000	1.263274	7.37258e+06	-38639.1	1005.82	-29793.6	0.000000	0.000000	7.263224	0.069215	NaN	0.000000	0.001690	0.001687	28.0833	0.043229	0.002001	21.5992	30.5073	-166.016	0.080705	1.261988	-0.128576	-0.129863	0.069215	21.5992	-0.130980	-7.961781	-0.008693	NaN
769	1.000000	1.273308	7.37258e+06	-38639.1	1005.82	-29793.6	0.000000	0.000000	7.273255	0.001365	NaN	0.000000	0.001687	0.001694	28.083	0.070976	0.001967	36.0816	-116.086	15.1701	-0.065642	1.271936	-0.118542	-0.119915	0.001365	36.0816	-0.118571	-4.520112	-0.000302	NaN
769	1.000000	1.283299	7.37258e+06	-38639.1	1005.82	-29793.6	0.000000	0.000000	7.283247	0.023483	NaN	0.000000	0.001687	0.001685	28.0832	0.040674	0.002097	19.3936	-16.3823	-165.844	0.015941	1.281997	-0.108551	-0.109853	0.023483	19.3936	-0.109459	-2.927248	-0.008022	NaN
769	1.000000	1.293311	7.37258e+06	-38639.1	1005.82	-29793.6	0.000000	0.000000	7.293260	0.037221	NaN	0.000000	0.001695	0.001690	28.0835	0.025956	0.002036	12.7497	72.6435	18.5767	0.054155	1.291962	-0.098539	-0.099889	0.037221	12.7497	-0.100729	-1.896266	-0.019629	NaN
769	1.000000	1.303323	7.37258e+06	-38639.1	1005.82	-29793.6	0.000000	0.000000	7.303274	0.096273	NaN	0.000000	0.001698	0.001681	28.083	0.112045	0.002036	55.0453	95.3023	-168.531	0.155377	1.302049	-0.088528	-0.089802	0.096273	55.0453	-0.089839	-1.071638	-0.089837	NaN
769	1.000000	1.313322	7.37258e+06	-38639.1	1005.82	-29793.6	0.000000	0.000000	7.313276	0.182590	NaN	0.000000	0.001696	0.001682	28.0832	0.213374	0.001949	109.454	21.4465	15.1347	0.141032	1.312010	-0.078529	-0.079841	0.182590	109.454	-0.079780	-0.611200	-0.298740	NaN
769	1.000000	1.323305	7.37258e+06	-38639.1	1005.82	-29793.6	0.000000	0.000000	7.323263	0.288746	NaN	0.000000	0.001697	0.001682	28.0833	0.251803	0.002038	123.543	47.5157	-164.717	0.254269	1.322039	-0.068546	-0.069811	0.288746	123.543	-0.070299	-0.347442	-0.831062	NaN
769	1.000000	1.333348	7.37258e+06	-38639.1	1005.82	-29793.6	0.000000	0.000000	7.333307	0.302503	NaN	0.000000	0.001674	0.001697	28.0833	0.326091	0.002021	161.356	44.2749	13.9931	0.307805	1.332004	-0.058503	-0.059847	0.302503	161.356	-0.059909	-0.179010	-1.689866	NaN
769	1.000000	1.343328	7.37258e+06	-38639.1	1005.82	-29793.6	0.000000	0.000000	7.343298	0.568362	NaN	0.000000	0.001742	0.001675	28.0832	0.498315	0.002004	248.683	8.690869	-169.723	0.538789	1.342020	-0.048523	-0.049830	0.568362	248.683	-0.050237	-0.092768	-6.126684	NaN
769	1.000000	1.353313	7.37258e+06	-38639.1	1005.82	-29793.6	0.000000	0.000000	7.353310	1.221859	NaN	0.000000	0.001794	0.001671	28.0833	0.591934	0.001979	299.174	19.8144	12.2687	1.036823	1.351988	-0.038538	-0.039863	1.221859	299.174	-0.041601	-0.050592	-24.1512	NaN
769	1.000000	1.363377	7.37258e+06	-38639.1	1005.82	-29793.6	0.000000	0.000000	7.363421	2.360971	NaN	0.000000	0.001757	0.001661	28.0831	0.986203	0.001897	519.766	15.1921	-164.946	2.260621	1.362025	-0.028473	-0.029826	2.360971	519.766	-0.031880	-0.026001	-90.8042	NaN
769	1.000000	1.373365	7.37258e+06	-38639.1	1005.82	-29793.6	0.000000	0.000000	7.373477	4.029248	NaN	0.000000	0.001759	0.001697	28.0834	1.360345	0.001963	693.036	16.723	14.7384	3.793399	1.371977	-0.018486	-0.019874	4.029248	693.036	-0.022846	-0.014841	-271.486	NaN
769	1.000000	1.383365	7.37258e+06	-38639.1	1005.82	-29793.6	0.000000	0.000000	7.383566	6.192448	NaN	0.000000	0.001710	0.001691	28.0835	1.495475	0.001975	757.185	11.7337	-166.68	5.970768	1.382058	-0.008486	-0.009792	6.192448	757.185	-0.014619	-0.009048	-684.367	NaN
769	1.000000	1.393318	7.37258e+06	-38639.1	1005.82	-29793.6	0.000000	0.000000	7.393634	8.989198	NaN	0.000000	0.001729	0.001677	28.0836	2.090072	0.002006	1041.86	15.3849	12.7831	8.471823	1.391999	0.001467	0.000148	8.989198	1041.86	-0.005004	-0.003419	-2629.27	NaN
769	2.000000	1.397002	7.37258e+06	-38639.1	1005.82	-29793.6	0.000000	0.000000	7.397327	9.210399	NaN	0.000000	0.001771	0.001682	28.0823	2.480790	0.002126	1166.75	13.9513	-167.968	9.218735	1.396691	0.005151	0.004840	9.210399	1166.75	-0.000769	-0.000567	-16256	NaN
769	2.000000	1.399475	7.37258e+06	-38639.1	1005.82	-29793.6	0.000000	0.000000	7.399826	9.845346	NaN	0.000000	0.001752	0.001659	28.0821	2.489852	0.002079	1197.62	12.9026	11.7795	9.951138	1.399161	0.007624	0.007310	9.845346	1197.62	0.001459	0.001122	8776.39	32668.8
769	2.000000	1.401969	7.37258e+06	-38639.1	1005.82	-29793.6	0.000000	0.000000	7.402366	10.9624	NaN	0.000000	0.001754	0.001650	28.0818	2.537676	0.001881	1348.79	9.708853	-165.655	11.044	1.401611	0.010118	0.009761	10.9624	1348.79	0.004022	0.003258	3364.3	21588.1
769	2.000000	1.404468	7.37258e+06	-38639.1	1005.82	-29793.6	0.000000	0.000000	7.404889	11.536	NaN	0.000000	0.001753	0.001671	28.082	2.672086	0.001989	1343.62	9.784164	15.3067	11.6382	1.404087	0.012617	0.012237	11.536	1343.62	0.006178	0.005234	2203.91	16967.6
769	2.000000	1.406952	7.37258e+06	-38639.1	1005.82	-29793.6	0.000000	0.000000	7.407410	12.4371	NaN	0.000000	0.001760	0.001680	28.0818	2.790171	0.002028	1375.96	11.5264	-167.457	12.6204	1.406676	0.015101	0.014825	12.4371	1375.96	0.008322	0.007376	1686.16	14637.6
769	2.000000	1.409413	7.37258e+06	-38639.1	1005.82	-29793.6	0.000000	0.000000	7.409913	13.4541	NaN	0.000000	0.001733	0.001716	28.082	2.935894	0.001910	1537.38	12.6688	10.7488	13.3679	1.409101	0.017563	0.017251	13.4541	1537.38	0.010999	0.010313	1304.55	13831.2
769	2.000000	1.411917	7.37258e+06	-38639.1	1005.82	-29793.6	0.000000	0.000000	7.412455	14.3934	NaN	0.000000	0.001773	0.001724	28.0819	3.163452	0.001859	1701.53	12.1854	-169.876	14.3227	1.411618	0.020066	0.019768	14.3934	1701.53	0.013722	0.013619	1056.87	13321.1
769	2.000000	1.414402	7.37258e+06	-38639.1	1005.82	-29793.6	0.000000	0.000000	7.414988	15.5543	NaN	0.000000	0.001765	0.001697	28.082	3.392792	0.002035	1667.28	10.5635	13.1507	15.4376	1.414028	0.022551	0.022178	15.5543	1667.28	0.015555	0.016032	970.208	12030.6
769	2.000000	1.416932	7.37258e+06	-38639.1	1005.82	-29793.6	0.000000	0.000000	7.417567	16.7512	NaN	0.000000	0.001679	0.001745	28.082	3.583257	0.001840	1947.77	13.8087	-169.374	16.6956	1.416592	0.025081	0.024741	16.7512	1947.77	0.018631	0.020437	819.665	12448.2
769	2.000000	1.419418	7.37258e+06	-38639.1	1005.82	-29793.6	0.000000	0.000000	7.420097	17.8192	NaN	0.000000	0.001674	0.001683	28.0821	3.698578	0.001901	1945.94	10.2703	11.5887	17.7809	1.419062	0.027568	0.027211	17.8192	1945.94	0.020700	0.023654	753.327	11559.8
769	2.000000	1.421937	7.37258e+06	-38639.1	1005.82	-29793.6	0.000000	0.000000	7.422673	19.2087	NaN	0.000000	0.001663	0.001701	28.0818	4.079318	0.001998	2041.2	11.697	-169.186	19.2261	1.421594	0.030086	0.029744	19.2087	2041.2	0.023028	0.027526	697.844	11240.6
769	2.000000	1.424416	7.37258e+06	-38639.1	1005.82	-29793.6	0.000000	0.000000	7.425202	20.4342	NaN	0.000000	0.001700	0.001691	28.082	4.268678	0.001911	2234.11	8.742397	12.2181	20.4566	1.423997	0.032565	0.032147	20.4342	2234.11	0.025705	0.032311	632.427	11355.4
769	2.000000	1.426887	7.37258e+06	-38639.1	1005.82	-29793.6	0.000000	0.000000	7.427738	22.0272	NaN	0.000000	0.001637	0.001713	28.0821	4.438724	0.001900	2336.21	9.328772	-166.608	21.8049	1.426584	0.035036	0.034733	22.0272	2336.21	0.027964	0.036630	601.34	11152.3
769	2.000000	1.429382	7.37258e+06	-38639.1	1005.82	-29793.6	0.000000	0.000000	7.430291	23.4232	NaN	0.000000	0.001676	0.001680	28.0834	4.887352	0.002024	2415.12	11.2749	11.0931	23.1662	1.429015	0.037532	0.037165	23.4232	2415.12	0.030258	0.041279	567.432	10860.4
769	2.000000	1.431892	7.37258e+06	-38639.1	1005.82	-29793.6	0.000000	0.000000	7.432870	25.0927	NaN	0.000000	0.001696	0.001662	28.0831	5.012690	0.002012	2491.44	11.5257	-168.987	24.7971	1.431552	0.040041	0.039701	25.0927	2491.44	0.032488	0.046058	544.809	10606.5
769	2.000000	1.434394	7.37258e+06	-38639.1	1005.82	-29793.6	0.000000	0.000000	7.435438	26.7039	NaN	0.000000	0.001694	0.001705	28.0833	5.406584	0.002145	2520.86	12.194	10.8084	26.356	1.433933	0.042543	0.042083	26.7039	2520.86	0.034598	0.050815	525.509	10217.1
769	2.000000	1.436875	7.37258e+06	-38639.1	1005.82	-29793.6	0.000000	0.000000	7.437986	28.3246	NaN	0.000000	0.001662	0.001658	28.0832	5.546057	0.001954	2838.11	12.5435	-170.346	28.0974	1.436555	0.045025	0.044705	28.3246	2838.11	0.037540	0.057825	489.835	10783.2
769	2.000000	1.439392	7.37258e+06	-38639.1	1005.82	-29793.6	0.000000	0.000000	7.440567	29.8811	NaN	0.000000	0.001662	0.001689	28.084	5.999813	0.001937	3097.84	11.6815	9.362151	29.7287	1.439054	0.047541	0.047203	29.8811	3097.84	0.040307	0.064824	460.954	11116.4
769	2.000000	1.441892	7.37258e+06	-38639.1	1005.82	-29793.6	0.000000	0.000000	7.443155	32.0447	NaN	0.000000	0.001680	0.001682	28.083	6.341109	0.001980	3202.18	10.527	-168.714	32.1966	1.441579	0.050041	0.049729	32.0447	3202.18	0.042536	0.070746	452.956	10999.4
769	2.000000	1.444350	7.37258e+06	-38639.1	1005.82	-29793.6	0.000000	0.000000	7.445708	34.3434	NaN	0.000000	0.001661	0.001668	28.0835	6.702067	0.001988	3370.85	6.815133	13.7967	34.1233	1.443999	0.052500	0.052149	34.3434	3370.85	0.044858	0.077186	444.946	11085.2
769	2.000000	1.446860	7.37258e+06	-38639.1	1005.82	-29793.6	0.000000	0.000000	7.448313	36.6661	NaN	0.000000	0.001660	0.001697	28.0831	7.032272	0.001954	3598.66	8.275385	-168.164	36.4914	1.446564	0.055009	0.054714	36.6661	3598.66	0.047368	0.084451	434.169	11313.9
769	2.000000	1.449337	7.37258e+06	-38639.1	1005.82	-29793.6	0.000000	0.000000	7.450908	39.5072	NaN	0.000000	0.001662	0.001724	28.084	7.702043	0.002039	3777.45	13.2151	6.761557	38.7812	1.448960	0.057487	0.057110	39.5072	3777.45	0.049643	0.091312	432.661	11421.1
769	2.000000	1.451864	7.37258e+06	-38639.1	1005.82	-29793.6	0.000000	0.000000	7.453550	42.3285	NaN	0.000000	0.001734	0.001662	28.083	8.084035	0.002036	3970.06	11.0933	-171.25	42.1157	1.451585	0.060013	0.059734	42.3285	3970.06	0.052016	0.098748	428.653	11542.7
769	2.000000	1.454355	7.37258e+06	-38639.1	1005.82	-29793.6	0.000000	0.000000	7.456145	44.8789	NaN	0.000000	0.001740	0.001666	28.0835	8.294012	0.001953	4247.23	11.6456	7.242410	44.3332	1.454007	0.062504	0.062156	44.8789	4247.23	0.054579	0.107090	419.076	11857.8
769	2.000000	1.456846	7.37258e+06	-38639.1	1005.82	-29793.6	0.000000	0.000000	7.458779	48.3461	NaN	0.000000	0.001768	0.001659	28.0833	8.339022	0.001940	4299.07	10.0689	-170.48	47.9487	1.456562	0.064995	0.064711	48.3461	4299.07	0.056561	0.113767	424.958	11645
769	2.000000	1.459367	7.37258e+06	-38639.1	1005.82	-29793.6	0.000000	0.000000	7.461438	51.7018	NaN	0.000000	0.001674	0.001649	28.0833	8.720269	0.001936	4504.01	10.9617	7.308365	51.2283	1.459022	0.067516	0.067171	51.7018	4504.01	0.058907	0.121917	424.075	11785.3
769	2.000000	1.461848	7.37258e+06	-38639.1	1005.82	-29793.6	0.000000	0.000000	7.464070	55.3734	NaN	0.000000	0.001673	0.001700	28.0832	9.052797	0.002121	4267.74	9.170362	-169.742	55.0739	1.461523	0.069997	0.069673	55.3734	4267.74	0.060266	0.126763	436.826	10951.5
769	2.000000	1.464375	7.37258e+06	-38639.1	1005.82	-29793.6	0.000000	0.000000	7.466720	58.3617	NaN	0.000000	0.001668	0.001650	28.0826	9.335661	0.002004	4658.32	11.804	6.331434	58.3753	1.464010	0.072524	0.072160	58.3617	4658.32	0.063128	0.137263	425.181	11487.5
769	2.000000	1.466848	7.37258e+06	-38639.1	1005.82	-29793.6	0.000000	0.000000	7.469343	61.9981	NaN	0.000000	0.001684	0.001670	28.0819	9.460006	0.002007	4713.44	7.193937	-168.921	61.8929	1.466572	0.074998	0.074721	61.9981	4713.44	0.065132	0.144853	428.006	11314.8
769	2.000000	1.469352	7.37258e+06	-38639.1	1005.82	-29793.6	0.000000	0.000000	7.472003	65.8089	NaN	0.000000	0.001702	0.001642	28.0818	9.618102	0.001924	4998.01	9.768390	8.830775	64.8419	1.468954	0.077502	0.077103	65.8089	4998.01	0.067627	0.154567	425.763	11614.8
769	2.000000	1.471834	7.37258e+06	-38639.1	1005.82	-29793.6	0.000000	0.000000	7.474612	68.9006	NaN	0.000000	0.001683	0.001657	28.0818	10.0512	0.001997	5033.36	9.983100	-172.407	68.2786	1.471519	0.079983	0.079668	68.9006	5033.36	0.069717	0.162938	422.865	11392.5
769	2.000000	1.474311	7.37258e+06	-38639.1	1005.82	-29793.6	0.000000	0.000000	7.477250	72.8228	NaN	0.000000	0.001664	0.001643	28.0829	10.4795	0.001996	5250.71	7.946207	8.771290	71.9344	1.473950	0.082460	0.082100	72.8228	5250.71	0.072058	0.172562	422.009	11548.3
769	2.000000	1.476822	7.37258e+06	-38639.1	1005.82	-29793.6	0.000000	0.000000	7.479902	76.2509	NaN	0.000000	0.001664	0.001634	28.0818	10.6468	0.001896	5614.85	6.539400	-170.546	75.7343	1.476526	0.084971	0.084676	76.2509	5614.85	0.074786	0.184101	414.18	11955.9
769	2.000000	1.479326	7.37258e+06	-38639.1	1005.82	-29793.6	0.000000	0.000000	7.482540	79.5061	NaN	0.000000	0.001654	0.001691	28.082	10.835	0.001979	5476.24	9.840707	5.673811	78.8559	1.478954	0.087475	0.087103	79.5061	5476.24	0.076587	0.191909	414.29	11421.1
769	2.000000	1.481820	7.37258e+06	-38639.1	1005.82	-29793.6	0.000000	0.000000	7.485189	83.2748	NaN	0.000000	0.001626	0.001659	28.0819	11.0557	0.001872	5904.58	9.740068	-174.927	82.614	1.481460	0.089969	0.089609	83.2748	5904.58	0.079392	0.204377	407.456	11932.9
769	2.000000	1.484324	7.37258e+06	-38639.1	1005.82	-29793.6	0.000000	0.000000	7.487851	87.1401	NaN	0.000000	0.001662	0.001675	28.0823	11.8802	0.002143	5544.92	11.9738	5.147490	86.4247	1.483996	0.092473	0.092145	87.1401	5544.92	0.080687	0.210257	414.445	11048.2
769	2.000000	1.486815	7.37258e+06	-38639.1	1005.82	-29793.6	0.000000	0.000000	7.490515	91.3394	NaN	0.000000	0.001670	0.001653	28.0816	11.4068	0.001954	5836.77	7.700191	-171.928	90.4474	1.486528	0.094965	0.094678	91.3394	5836.77	0.083228	0.222021	411.399	11317.5
769	2.000000	1.489327	7.37258e+06	-38639.1	1005.82	-29793.6	0.000000	0.000000	7.493192	95.3385	NaN	0.000000	0.001659	0.001665	28.082	11.9452	0.001958	6100.06	9.527006	5.983819	94.244	1.488956	0.097477	0.097105	95.3385	6100.06	0.085755	0.234016	407.401	11520.8
769	2.000000	1.491797	7.37258e+06	-38639.1	1005.82	-29793.6	0.000000	0.000000	7.495832	99.489	NaN	0.000000	0.001670	0.001666	28.0821	12.2825	0.001999	6143.79	10.4648	-174.577	98.4713	1.491504	0.099946	0.099653	99.489	6143.79	0.087801	0.243945	407.833	11364.8
769	2.000000	1.493308	7.37258e+06	-38639.1	1005.82	-29793.6	0.000000	0.000000	7.497416	101.278	NaN	0.000000	0.001667	0.001685	28.0817	12.272	0.001946	6305.26	7.673009	8.313700	100.47	1.492936	0.101457	0.101085	101.278	6305.26	0.089410	0.251889	402.073	11478.1