File: remote_trans/data/nanoindenter/0828-1/data/Data_2025-08-06,11h17m57s/2025-07-22_16-23-58_1_1003.txt
2025-07-22, 16:23:58, 1
Index	Phase	Displacement	Time	Pos X	Pos Y	Pos Z	Rot A	Rot B	Piezo Z	Force A	Force B	Gripper	Voltage A	Voltage B	Temperature	Amplitude force	Amplitude pos	Stiffness	Phase shift	Phase excitation	Force A raw	Displacement raw	HMax	HMax raw	Real Force	Real Stiffness	Contact Depth	Area	Hardness	Reduced Mod.
[#]	[#]	[um]	[s]	[um]	[um]	[um]	[m°]	[m°]	[um]	[uN]	[uN]	[V]	[V]	[V]	[°C]	[uN]	[um]	[N/m]	[°]	[°]	[uN]	[um]	[um]	[um]	[uN]	[N/m]	[um]	[um^2]	[MPa]	[MPa]
1003	1.000000	0.002501	7.37486e+06	-50289.1	1055.82	-29756.3	0.000000	0.000000	6.002800	-0.090485	NaN	0.000000	0.001530	0.001774	28.0819	0.030470	0.001083	28.1475	92.0089	-161.702	-0.091759	0.001186	-0.940379	-0.941694	-0.090485	28.1475	-0.937968	-3.309232E+12	2.734335E-14	NaN
1003	1.000000	0.010486	7.37486e+06	-50289.1	1055.82	-29756.3	0.000000	0.000000	6.010793	0.067696	NaN	0.000000	0.001557	0.001756	28.0817	0.081959	0.000839	97.6397	-136.569	-166.227	0.008628	0.009129	-0.932394	-0.933751	0.067696	97.6397	-0.932914	-2.828273E+12	-2.393548E-14	NaN
1003	1.000000	0.018448	7.37486e+06	-50289.1	1055.82	-29756.3	0.000000	0.000000	6.018752	0.003405	NaN	0.000000	0.001556	0.001752	28.0818	0.082160	0.001767	46.5078	151.267	-166.131	-0.056642	0.017107	-0.924432	-0.925773	0.003405	46.5078	-0.924487	-2.176594E+12	-1.564274E-15	NaN
1003	1.000000	0.026514	7.37486e+06	-50289.1	1055.82	-29756.3	0.000000	0.000000	6.026820	0.040799	NaN	0.000000	0.001576	0.001768	28.0818	0.031693	0.001897	16.7077	-76.6676	-167.562	0.035863	0.025137	-0.916366	-0.917744	0.040799	16.7077	-0.918197	-1.790048E+12	-2.279190E-14	NaN
1003	1.000000	0.034429	7.37486e+06	-50289.1	1055.82	-29756.3	0.000000	0.000000	6.034731	-0.023979	NaN	0.000000	0.001569	0.001746	28.0818	0.074427	0.001922	38.7278	-161.918	-161.512	-0.109982	0.033119	-0.908451	-0.909761	-0.023979	38.7278	-0.907987	-1.303076E+12	1.840206E-14	NaN
1003	1.000000	0.042466	7.37486e+06	-50289.1	1055.82	-29756.3	0.000000	0.000000	6.042770	0.003792	NaN	0.000000	0.001536	0.001744	28.0818	0.094854	0.001935	49.0167	106.61	-163.425	-0.059726	0.041114	-0.900414	-0.901766	0.003792	49.0167	-0.900472	-1.031448E+12	-3.676545E-15	NaN
1003	1.000000	0.050460	7.37486e+06	-50289.1	1055.82	-29756.3	0.000000	0.000000	6.050763	0.002505	NaN	0.000000	0.001551	0.001749	28.0817	0.111356	0.001973	56.4407	-122.129	-161.924	0.039347	0.049147	-0.892420	-0.893733	0.002505	56.4407	-0.892454	-8.036768E+11	-3.117197E-15	NaN
1003	1.000000	0.058449	7.37486e+06	-50289.1	1055.82	-29756.3	0.000000	0.000000	6.058751	-0.054416	NaN	0.000000	0.001512	0.001768	28.0815	0.099900	0.001908	52.357	-16.8482	-163.183	-0.044337	0.057115	-0.884431	-0.885766	-0.054416	52.357	-0.883651	-6.110577E+11	8.905216E-14	NaN
1003	1.000000	0.066464	7.37486e+06	-50289.1	1055.82	-29756.3	0.000000	0.000000	6.066768	0.005468	NaN	0.000000	0.001503	0.001736	28.0813	0.085762	0.001959	43.7822	8.541444	-165.579	0.053473	0.065177	-0.876416	-0.877703	0.005468	43.7822	-0.876510	-4.892227E+11	-1.117607E-14	NaN
1003	1.000000	0.074423	7.37486e+06	-50289.1	1055.82	-29756.3	0.000000	0.000000	6.074724	-0.056433	NaN	0.000000	0.001538	0.001761	28.0816	0.086249	0.001922	44.8687	41.5071	-167.688	-0.129897	0.073199	-0.868457	-0.869681	-0.056433	44.8687	-0.867514	-3.696626E+11	1.526611E-13	NaN
1003	1.000000	0.082458	7.37486e+06	-50289.1	1055.82	-29756.3	0.000000	0.000000	6.082761	-0.031130	NaN	0.000000	0.001514	0.001761	28.0816	0.051036	0.002022	25.2386	0.421336	-167.5	-0.090350	0.081140	-0.860422	-0.861740	-0.031130	25.2386	-0.859497	-2.879443E+11	1.081121E-13	NaN
1003	1.000000	0.090451	7.37486e+06	-50289.1	1055.82	-29756.3	0.000000	0.000000	6.090755	0.022516	NaN	0.000000	0.001531	0.001755	28.0815	0.016285	0.002063	7.894543	66.447	-160.846	0.069970	0.089175	-0.852429	-0.853705	0.022516	7.894543	-0.854568	-2.469396E+11	-9.118096E-14	NaN
1003	1.000000	0.098464	7.37486e+06	-50289.1	1055.82	-29756.3	0.000000	0.000000	6.098768	0.009932	NaN	0.000000	0.001521	0.001773	28.0816	0.036009	0.001969	18.2903	54.0126	-165.531	-0.007824	0.097110	-0.844416	-0.845770	0.009932	18.2903	-0.844823	-1.822349E+11	-5.450014E-14	NaN
1003	1.000000	0.106452	7.37486e+06	-50289.1	1055.82	-29756.3	0.000000	0.000000	6.106756	0.012393	NaN	0.000000	0.001514	0.001777	28.0817	0.085286	0.002056	41.4875	-85.3867	-166.529	0.051523	0.105157	-0.836429	-0.837723	0.012393	41.4875	-0.836653	-1.412341E+11	-8.774911E-14	NaN
1003	1.000000	0.114496	7.37486e+06	-50289.1	1055.82	-29756.3	0.000000	0.000000	6.114798	-0.038340	NaN	0.000000	0.001541	0.001741	28.0815	0.033882	0.002002	16.9222	-101.201	-165.735	-0.061124	0.113192	-0.828384	-0.829688	-0.038340	16.9222	-0.826685	-1.034768E+11	3.705210E-13	NaN
1003	1.000000	0.122453	7.37486e+06	-50289.1	1055.82	-29756.3	0.000000	0.000000	6.122755	-0.035523	NaN	0.000000	0.001550	0.001756	28.0816	0.132335	0.001986	66.6293	-62.1464	-164.411	0.057933	0.121202	-0.820427	-0.821678	-0.035523	66.6293	-0.820027	-8.405819E+10	4.225957E-13	NaN
1003	1.000000	0.130466	7.37486e+06	-50289.1	1055.82	-29756.3	0.000000	0.000000	6.130771	0.044329	NaN	0.000000	0.001549	0.001765	28.0819	0.106632	0.002017	52.8699	127.772	-166.692	0.121978	0.129151	-0.812414	-0.813729	0.044329	52.8699	-0.813043	-6.758613E+10	-6.558912E-13	NaN
1003	1.000000	0.138494	7.37486e+06	-50289.1	1055.82	-29756.3	0.000000	0.000000	6.138797	-0.013694	NaN	0.000000	0.001518	0.001773	28.0827	0.052224	0.001963	26.6025	75.3463	-160.416	0.076732	0.137180	-0.804386	-0.805700	-0.013694	26.6025	-0.804000	-5.095117E+10	2.687609E-13	NaN
1003	1.000000	0.146457	7.37486e+06	-50289.1	1055.82	-29756.3	0.000000	0.000000	6.146760	-0.017519	NaN	0.000000	0.001568	0.001771	28.0829	0.092239	0.001875	49.1838	112.316	-162.362	-0.030348	0.145160	-0.796423	-0.797720	-0.017519	49.1838	-0.796156	-3.987282E+10	4.393642E-13	NaN
1003	1.000000	0.154511	7.37486e+06	-50289.1	1055.82	-29756.3	0.000000	0.000000	6.154816	0.022891	NaN	0.000000	0.001535	0.001780	28.0828	0.086482	0.002016	42.8929	-86.2213	-167.589	0.026949	0.153147	-0.788369	-0.789733	0.022891	42.8929	-0.788769	-3.164934E+10	-7.232593E-13	NaN
1003	1.000000	0.162494	7.37486e+06	-50289.1	1055.82	-29756.3	0.000000	0.000000	6.162798	-0.004626	NaN	0.000000	0.001560	0.001773	28.0828	0.053318	0.001956	27.2619	-107.356	-162.104	-0.003475	0.161204	-0.780386	-0.781676	-0.004626	27.2619	-0.780259	-2.425184E+10	1.907432E-13	NaN
1003	1.000000	0.170484	7.37486e+06	-50289.1	1055.82	-29756.3	0.000000	0.000000	6.170787	0.004462	NaN	0.000000	0.001579	0.001761	28.0828	0.080889	0.002174	37.2062	-142.732	-165.609	-0.045409	0.169251	-0.772397	-0.773629	0.004462	37.2062	-0.772486	-1.901560E+10	-2.346537E-13	NaN
1003	1.000000	0.178481	7.37486e+06	-50289.1	1055.82	-29756.3	0.000000	0.000000	6.178783	-0.025659	NaN	0.000000	0.001546	0.001799	28.0829	0.053024	0.001963	27.0088	-16.4967	-167.38	-0.106015	0.177158	-0.764399	-0.765722	-0.025659	27.0088	-0.763687	-1.443614E+10	1.777393E-12	NaN
1003	1.000000	0.186523	7.37486e+06	-50289.1	1055.82	-29756.3	0.000000	0.000000	6.186827	0.018251	NaN	0.000000	0.001562	0.001802	28.0829	0.171175	0.002059	83.1459	130.532	-166.571	0.044356	0.185235	-0.756357	-0.757645	0.018251	83.1459	-0.756522	-1.153393E+10	-1.582399E-12	NaN
1003	1.000000	0.194513	7.37486e+06	-50289.1	1055.82	-29756.3	0.000000	0.000000	6.194819	0.053599	NaN	0.000000	0.001562	0.001760	28.0829	0.040790	0.001889	21.5927	11.0586	-168.768	0.010615	0.193246	-0.748367	-0.749634	0.053599	21.5927	-0.750229	-9.469623E+9	-5.660118E-12	NaN
1003	1.000000	0.202529	7.37486e+06	-50289.1	1055.82	-29756.3	0.000000	0.000000	6.202832	-0.011523	NaN	0.000000	0.001517	0.001775	28.0829	0.161720	0.002022	79.9762	-49.8262	-162.437	-0.012016	0.201163	-0.740351	-0.741718	-0.011523	79.9762	-0.740243	-6.924083E+9	1.664202E-12	NaN
1003	1.000000	0.210496	7.37486e+06	-50289.1	1055.82	-29756.3	0.000000	0.000000	6.210802	0.053047	NaN	0.000000	0.001543	0.001731	28.0828	0.027094	0.002030	13.3498	-114.826	-168.228	0.070009	0.209247	-0.732384	-0.733634	0.053047	13.3498	-0.735364	-5.941619E+9	-8.928040E-12	NaN
1003	1.000000	0.218491	7.37486e+06	-50289.1	1055.82	-29756.3	0.000000	0.000000	6.218796	0.042465	NaN	0.000000	0.001528	0.001766	28.0827	0.080617	0.002107	38.2607	97.5763	-166.758	0.063862	0.217245	-0.724389	-0.725635	0.042465	38.2607	-0.725222	-4.321880E+9	-9.825594E-12	NaN
1003	1.000000	0.226514	7.37486e+06	-50289.1	1055.82	-29756.3	0.000000	0.000000	6.226817	-0.022564	NaN	0.000000	0.001548	0.001782	28.0827	0.078519	0.002066	38.0041	-141.489	-162.508	-0.053229	0.225218	-0.716366	-0.717662	-0.022564	38.0041	-0.715921	-3.227256E+9	6.991547E-12	NaN
1003	1.000000	0.234524	7.37486e+06	-50289.1	1055.82	-29756.3	0.000000	0.000000	6.234827	-0.005229	NaN	0.000000	0.001516	0.001748	28.083	0.042368	0.001934	21.9089	-57.0505	-163.806	-0.036727	0.233273	-0.708357	-0.709607	-0.005229	21.9089	-0.708178	-2.530320E+9	2.066535E-12	NaN
1003	1.000000	0.242502	7.37486e+06	-50289.1	1055.82	-29756.3	0.000000	0.000000	6.242804	-0.021983	NaN	0.000000	0.001501	0.001728	28.0826	0.067829	0.002047	33.1373	-40.2978	-164.945	-0.025105	0.241234	-0.700378	-0.701646	-0.021983	33.1373	-0.699881	-1.949412E+9	1.127679E-11	NaN
1003	1.000000	0.250523	7.37486e+06	-50289.1	1055.82	-29756.3	0.000000	0.000000	6.250825	-0.031273	NaN	0.000000	0.001531	0.001722	28.0828	0.034871	0.002072	16.833	130.204	-166.233	-0.027665	0.249212	-0.692357	-0.693668	-0.031273	16.833	-0.690964	-1.472615E+9	2.123624E-11	NaN
1003	1.000000	0.258479	7.37486e+06	-50289.1	1055.82	-29756.3	0.000000	0.000000	6.258783	0.016465	NaN	0.000000	0.001518	0.001769	28.0827	0.060787	0.002234	27.2054	-159.715	-163.39	0.018557	0.257181	-0.684401	-0.685699	0.016465	27.2054	-0.684855	-1.215051E+9	-1.355075E-11	NaN
1003	1.000000	0.266509	7.37486e+06	-50289.1	1055.82	-29756.3	0.000000	0.000000	6.266810	-0.051514	NaN	0.000000	0.001491	0.001757	28.083	0.045590	0.001962	23.2354	56.8375	-163.104	-0.083227	0.265183	-0.676371	-0.677697	-0.051514	23.2354	-0.674708	-8.827139E+8	5.835819E-11	NaN
1003	1.000000	0.274518	7.37486e+06	-50289.1	1055.82	-29756.3	0.000000	0.000000	6.274822	0.011729	NaN	0.000000	0.001502	0.001751	28.0819	0.054038	0.002003	26.9808	19.7507	-162.919	-0.002086	0.273177	-0.668363	-0.669703	0.011729	26.9808	-0.668689	-7.301970E+8	-1.606343E-11	NaN
1003	1.000000	0.282545	7.37486e+06	-50289.1	1055.82	-29756.3	0.000000	0.000000	6.282849	0.019492	NaN	0.000000	0.001536	0.001732	28.0816	0.082754	0.001898	43.6043	51.0849	-166.769	-0.012388	0.281249	-0.660335	-0.661631	0.019492	43.6043	-0.660671	-5.670958E+8	-3.437197E-11	NaN
1003	1.000000	0.290553	7.37486e+06	-50289.1	1055.82	-29756.3	0.000000	0.000000	6.290858	0.033967	NaN	0.000000	0.001494	0.001762	28.0816	0.066833	0.001908	35.0346	-44.4216	-163.006	0.048722	0.289192	-0.652328	-0.653688	0.033967	35.0346	-0.653055	-4.459721E+8	-7.616419E-11	NaN
1003	1.000000	0.298548	7.37486e+06	-50289.1	1055.82	-29756.3	0.000000	0.000000	6.298852	0.032168	NaN	0.000000	0.001558	0.001755	28.0817	0.015858	0.002051	7.732485	-56.8105	-167.16	0.037506	0.297227	-0.644333	-0.645653	0.032168	7.732485	-0.647453	-3.736898E+8	-8.608101E-11	NaN
1003	1.000000	0.306538	7.37486e+06	-50289.1	1055.82	-29756.3	0.000000	0.000000	6.306840	-0.017651	NaN	0.000000	0.001503	0.001760	28.0816	0.143523	0.001956	73.3781	-93.725	-168.877	-0.037105	0.305279	-0.636343	-0.637601	-0.017651	73.3781	-0.636162	-2.615909E+8	6.747705E-11	NaN
1003	1.000000	0.314566	7.37486e+06	-50289.1	1055.82	-29756.3	0.000000	0.000000	6.314872	0.061399	NaN	0.000000	0.001520	0.001782	28.0816	0.090817	0.001999	45.4265	99.3692	-162.479	0.008479	0.313230	-0.628315	-0.629650	0.061399	45.4265	-0.629328	-2.107651E+8	-2.913147E-10	NaN
1003	1.000000	0.322532	7.37486e+06	-50289.1	1055.82	-29756.3	0.000000	0.000000	6.322835	-0.001396	NaN	0.000000	0.001497	0.001775	28.0817	0.071514	0.002085	34.2948	-2.394877	-164.093	-0.044770	0.321334	-0.620348	-0.621547	-0.001396	34.2948	-0.620318	-1.584897E+8	8.806991E-12	NaN
1003	1.000000	0.330573	7.37486e+06	-50289.1	1055.82	-29756.3	0.000000	0.000000	6.330879	0.060809	NaN	0.000000	0.001505	0.001733	28.082	0.051324	0.001878	27.3339	-171.648	-167.08	0.008210	0.329261	-0.612307	-0.613619	0.060809	27.3339	-0.613976	-1.296591E+8	-4.689889E-10	NaN
1003	1.000000	0.338538	7.37486e+06	-50289.1	1055.82	-29756.3	0.000000	0.000000	6.338841	-0.022728	NaN	0.000000	0.001527	0.001785	28.0817	0.066758	0.001968	33.9147	26.2657	-162.264	-0.032066	0.337242	-0.604342	-0.605638	-0.022728	33.9147	-0.603839	-9.404218E+7	2.416758E-10	NaN
1003	1.000000	0.346567	7.37486e+06	-50289.1	1055.82	-29756.3	0.000000	0.000000	6.346873	0.040016	NaN	0.000000	0.001505	0.001787	28.0814	0.083685	0.002105	39.7492	-68.4911	-166.908	0.063660	0.345260	-0.596313	-0.597621	0.040016	39.7492	-0.597068	-7.587023E+7	-5.274334E-10	NaN
1003	1.000000	0.354578	7.37486e+06	-50289.1	1055.82	-29756.3	0.000000	0.000000	6.354883	0.037567	NaN	0.000000	0.001538	0.001765	28.0816	0.119359	0.002065	57.7895	143.879	-166.353	0.068135	0.353286	-0.588302	-0.589594	0.037567	57.7895	-0.588790	-5.834145E+7	-6.439160E-10	NaN
1003	1.000000	0.362582	7.37486e+06	-50289.1	1055.82	-29756.3	0.000000	0.000000	6.362886	0.011131	NaN	0.000000	0.001555	0.001797	28.0816	0.030965	0.002027	15.2761	144.41	-163.867	0.033837	0.361267	-0.580298	-0.581613	0.011131	15.2761	-0.580845	-4.532968E+7	-2.455636E-10	NaN
1003	1.000000	0.370584	7.37486e+06	-50289.1	1055.82	-29756.3	0.000000	0.000000	6.370884	-0.078049	NaN	0.000000	0.001551	0.001763	28.0813	0.024143	0.002005	12.0417	-145.568	-165.649	0.014607	0.369267	-0.572297	-0.573613	-0.078049	12.0417	-0.567435	-2.959314E+7	2.637405E-9	NaN
1003	1.000000	0.378604	7.37486e+06	-50289.1	1055.82	-29756.3	0.000000	0.000000	6.378908	-0.005275	NaN	0.000000	0.001526	0.001771	28.0816	0.058526	0.002011	29.1006	30.2358	-168.269	0.004321	0.377242	-0.564276	-0.565638	-0.005275	29.1006	-0.564140	-2.664602E+7	1.979649E-10	NaN
1003	1.000000	0.386602	7.37486e+06	-50289.1	1055.82	-29756.3	0.000000	0.000000	6.386912	0.134983	NaN	0.000000	0.001558	0.001766	28.0816	0.030067	0.001960	15.3427	-76.068	-166.08	0.049974	0.385259	-0.556278	-0.557621	0.134983	15.3427	-0.562876	-2.559519E+7	-5.273783E-9	NaN
1003	1.000000	0.394589	7.37486e+06	-50289.1	1055.82	-29756.3	0.000000	0.000000	6.394892	0.001693	NaN	0.000000	0.001517	0.001747	28.0816	0.085555	0.001970	43.4358	-146.47	-164.621	0.019129	0.393310	-0.548292	-0.549570	0.001693	43.4358	-0.548321	-1.609514E+7	-1.051901E-10	NaN
1003	1.000000	0.402591	7.37486e+06	-50289.1	1055.82	-29756.3	0.000000	0.000000	6.402893	-0.045224	NaN	0.000000	0.001516	0.001796	28.0817	0.022287	0.002084	10.692	-167.081	-168.721	-0.078265	0.401309	-0.540289	-0.541571	-0.045224	10.692	-0.537117	-1.125547E+7	4.017928E-9	NaN
1003	1.000000	0.410594	7.37486e+06	-50289.1	1055.82	-29756.3	0.000000	0.000000	6.410899	0.034302	NaN	0.000000	0.001516	0.001789	28.083	0.130366	0.002011	64.8242	57.1592	-166.147	-0.014101	0.409308	-0.532286	-0.533572	0.034302	64.8242	-0.532683	-9.76864e+06	-3.511409E-9	NaN
1003	1.000000	0.418609	7.37486e+06	-50289.1	1055.82	-29756.3	0.000000	0.000000	6.418913	0.006148	NaN	0.000000	0.001519	0.001767	28.083	0.029826	0.001985	15.0225	-156.298	-167.053	0.028000	0.417262	-0.524271	-0.525618	0.006148	15.0225	-0.524578	-7.5378e+06	-8.156433E-10	NaN
1003	1.000000	0.426608	7.37486e+06	-50289.1	1055.82	-29756.3	0.000000	0.000000	6.426911	-0.002482	NaN	0.000000	0.001517	0.001717	28.0832	0.057965	0.001964	29.5064	-107.43	-162.398	0.010242	0.425315	-0.516272	-0.517565	-0.002482	29.5064	-0.516209	-5.76581e+06	4.304281E-10	NaN
1003	1.000000	0.434618	7.37486e+06	-50289.1	1055.82	-29756.3	0.000000	0.000000	6.434923	0.030118	NaN	0.000000	0.001561	0.001735	28.0836	0.122407	0.001927	63.5125	22.4748	-163.247	0.043917	0.433299	-0.508262	-0.509581	0.030118	63.5125	-0.508618	-4.52024e+06	-6.662926E-9	NaN
1003	1.000000	0.442590	7.37486e+06	-50289.1	1055.82	-29756.3	0.000000	0.000000	6.442894	0.017343	NaN	0.000000	0.001515	0.001730	28.0832	0.082793	0.002036	40.6603	147.456	-168.157	0.017243	0.441284	-0.500290	-0.501596	0.017343	40.6603	-0.500610	-3.49566e+06	-4.961381E-9	NaN
1003	1.000000	0.450599	7.37486e+06	-50289.1	1055.82	-29756.3	0.000000	0.000000	6.450904	0.024824	NaN	0.000000	0.001509	0.001746	28.0831	0.036717	0.002100	17.4805	-61.047	-167.128	0.027748	0.449317	-0.492281	-0.493563	0.024824	17.4805	-0.493346	-2.76783e+06	-8.968659E-9	NaN
1003	1.000000	0.458624	7.37486e+06	-50289.1	1055.82	-29756.3	0.000000	0.000000	6.458926	-0.026264	NaN	0.000000	0.001524	0.001772	28.083	0.019252	0.002084	9.236251	19.1234	-165.06	-0.007155	0.457308	-0.484256	-0.485572	-0.026264	9.236251	-0.482124	-1.92864e+06	1.361814E-8	NaN
1003	1.000000	0.466610	7.37486e+06	-50289.1	1055.82	-29756.3	0.000000	0.000000	6.466915	0.055866	NaN	0.000000	0.001526	0.001737	28.083	0.037739	0.001981	19.0519	14.0445	-165.389	0.051413	0.465282	-0.476271	-0.477598	0.055866	19.0519	-0.478470	-1.71436e+06	-3.258680E-8	NaN
1003	1.000000	0.474619	7.37486e+06	-50289.1	1055.82	-29756.3	0.000000	0.000000	6.474920	-0.071259	NaN	0.000000	0.001526	0.001739	28.0832	0.107280	0.001856	57.7981	54.408	-164.374	-0.041099	0.473281	-0.468261	-0.469600	-0.071259	57.7981	-0.467336	-1.19684e+06	5.953926E-8	NaN
1003	1.000000	0.482629	7.37486e+06	-50289.1	1055.82	-29756.3	0.000000	0.000000	6.482931	-0.031637	NaN	0.000000	0.001522	0.001763	28.0833	0.085766	0.001947	44.0535	175.534	-167.257	-0.074320	0.481342	-0.460252	-0.461538	-0.031637	44.0535	-0.459713	-935372	3.382293E-8	NaN
1003	1.000000	0.490609	7.37486e+06	-50289.1	1055.82	-29756.3	0.000000	0.000000	6.490911	-0.034833	NaN	0.000000	0.001563	0.001746	28.0831	0.168746	0.001969	85.6923	-127.798	-164.678	0.033958	0.489335	-0.452271	-0.453545	-0.034833	85.6923	-0.451966	-727828	4.785835E-8	NaN
1003	1.000000	0.498663	7.37486e+06	-50289.1	1055.82	-29756.3	0.000000	0.000000	6.498966	-0.001753	NaN	0.000000	0.001534	0.001725	28.0832	0.083633	0.002019	41.4299	117.146	-168.496	-0.025416	0.497318	-0.444218	-0.445562	-0.001753	41.4299	-0.444186	-565475	3.100839E-9	NaN
1003	1.000000	0.506653	7.37486e+06	-50289.1	1055.82	-29756.3	0.000000	0.000000	6.506958	0.026193	NaN	0.000000	0.001544	0.001727	28.083	0.058425	0.002162	27.0246	146.955	-165.732	0.077075	0.505283	-0.436227	-0.437597	0.026193	27.0246	-0.436954	-447048	-5.859165E-8	NaN
1003	1.000000	0.514640	7.37486e+06	-50289.1	1055.82	-29756.3	0.000000	0.000000	6.514943	-7.782085E-5	NaN	0.000000	0.001538	0.001734	28.0832	0.078211	0.001887	41.4401	80.3316	-164.964	0.044314	0.513283	-0.428240	-0.429597	-7.782085E-5	41.4401	-0.428239	-336623	2.311809E-10	NaN
1003	1.000000	0.522647	7.37486e+06	-50289.1	1055.82	-29756.3	0.000000	0.000000	6.522951	-0.005899	NaN	0.000000	0.001548	0.001760	28.0833	0.028571	0.001942	14.7139	154.46	-165.731	-0.038479	0.521374	-0.420233	-0.421506	-0.005899	14.7139	-0.419932	-256715	2.297719E-8	NaN
1003	1.000000	0.530633	7.37486e+06	-50289.1	1055.82	-29756.3	0.000000	0.000000	6.530935	-0.056983	NaN	0.000000	0.001496	0.001737	28.083	0.041494	0.002141	19.3828	-29.6021	-168.323	-0.035348	0.529353	-0.412247	-0.413527	-0.056983	19.3828	-0.410042	-185778	3.067240E-7	NaN
1003	1.000000	0.538661	7.37486e+06	-50289.1	1055.82	-29756.3	0.000000	0.000000	6.538964	-0.024188	NaN	0.000000	0.001504	0.001745	28.0834	0.020244	0.001991	10.1697	12.8685	-167.182	0.012903	0.537385	-0.404219	-0.405495	-0.024188	10.1697	-0.402435	-144781	1.670661E-7	NaN
1003	1.000000	0.546607	7.37486e+06	-50289.1	1055.82	-29756.3	0.000000	0.000000	6.546911	0.011399	NaN	0.000000	0.001515	0.001719	28.0818	0.033339	0.002104	15.8465	179.563	-163.332	0.017166	0.545400	-0.396274	-0.397480	0.011399	15.8465	-0.396813	-120371	-9.469568E-8	NaN
1003	1.000000	0.554650	7.37486e+06	-50289.1	1055.82	-29756.3	0.000000	0.000000	6.554955	0.027166	NaN	0.000000	0.001549	0.001739	28.0821	0.013361	0.002095	6.376198	-134.806	-166.994	-0.032188	0.553348	-0.388230	-0.389532	0.027166	6.376198	-0.391426	-100822	-2.694410E-7	NaN
1003	1.000000	0.562647	7.37486e+06	-50289.1	1055.82	-29756.3	0.000000	0.000000	6.562950	-0.019169	NaN	0.000000	0.001529	0.001739	28.0819	0.022761	0.002030	11.2151	73.1392	-168.563	-0.028766	0.561333	-0.380233	-0.381547	-0.019169	11.2151	-0.378951	-66808.1	2.869272E-7	NaN
1003	1.000000	0.570659	7.37486e+06	-50289.1	1055.82	-29756.3	0.000000	0.000000	6.570963	0.031100	NaN	0.000000	0.001494	0.001782	28.0819	0.041778	0.001997	20.9213	75.9878	-167.627	0.054423	0.569376	-0.372222	-0.373504	0.031100	20.9213	-0.373336	-55481.7	-5.605521E-7	NaN
1003	1.000000	0.578664	7.37486e+06	-50289.1	1055.82	-29756.3	0.000000	0.000000	6.578970	0.045241	NaN	0.000000	0.001509	0.001774	28.082	0.025412	0.002088	12.1694	-162.958	-165.554	0.070262	0.577345	-0.364216	-0.365535	0.045241	12.1694	-0.367004	-44973.3	-1.005943E-6	NaN
1003	1.000000	0.586632	7.37486e+06	-50289.1	1055.82	-29756.3	0.000000	0.000000	6.586936	0.015879	NaN	0.000000	0.001521	0.001778	28.0819	0.028456	0.001897	15.0024	-108.514	-168.288	0.024190	0.585309	-0.356248	-0.357571	0.015879	15.0024	-0.357042	-32289.7	-4.917703E-7	NaN
1003	1.000000	0.594684	7.37486e+06	-50289.1	1055.82	-29756.3	0.000000	0.000000	6.594986	-0.024708	NaN	0.000000	0.001485	0.001769	28.0822	0.040615	0.001983	20.4851	-178.207	-166.241	0.001509	0.593373	-0.348196	-0.349507	-0.024708	20.4851	-0.347292	-23316.9	1.059644E-6	NaN
1003	1.000000	0.602684	7.37486e+06	-50289.1	1055.82	-29756.3	0.000000	0.000000	6.602985	-0.064204	NaN	0.000000	0.001507	0.001748	28.0817	0.106525	0.001980	53.8001	-90.6052	-165.769	-0.040551	0.601343	-0.340196	-0.341537	-0.064204	53.8001	-0.339301	-17838.6	3.599172E-6	NaN
1003	1.000000	0.610704	7.37486e+06	-50289.1	1055.82	-29756.3	0.000000	0.000000	6.611009	0.042242	NaN	0.000000	0.001552	0.001715	28.082	0.030958	0.002003	15.4532	-143.508	-167.525	0.069490	0.609340	-0.332176	-0.333540	0.042242	15.4532	-0.334226	-15041.1	-2.808398E-6	NaN
1003	1.000000	0.618681	7.37486e+06	-50289.1	1055.82	-29756.3	0.000000	0.000000	6.618984	-0.025155	NaN	0.000000	0.001514	0.001724	28.0818	0.080538	0.001879	42.8696	124.419	-167.792	-0.072307	0.617397	-0.324199	-0.325483	-0.025155	42.8696	-0.323759	-10566	2.380744E-6	NaN
1003	1.000000	0.626700	7.37486e+06	-50289.1	1055.82	-29756.3	0.000000	0.000000	6.627008	0.096158	NaN	0.000000	0.001492	0.001734	28.0819	0.079020	0.001969	40.1399	-171.091	-170.185	0.097267	0.625362	-0.316180	-0.317518	0.096158	40.1399	-0.317976	-8686.33	-1.107000E-5	NaN
1003	1.000000	0.634679	7.37486e+06	-50289.1	1055.82	-29756.3	0.000000	0.000000	6.634981	-0.043613	NaN	0.000000	0.001520	0.001720	28.082	0.075792	0.001973	38.4086	115.31	-166.337	-0.021992	0.633351	-0.308201	-0.309529	-0.043613	38.4086	-0.307349	-6050.6	7.208057E-6	NaN
1003	1.000000	0.642693	7.37486e+06	-50289.1	1055.82	-29756.3	0.000000	0.000000	6.642997	0.006456	NaN	0.000000	0.001516	0.001791	28.0818	0.062294	0.001998	31.1853	-166.545	-164.131	-0.061478	0.641448	-0.300187	-0.301433	0.006456	31.1853	-0.300343	-4761.4	-1.355860E-6	NaN
1003	1.000000	0.650676	7.37486e+06	-50289.1	1055.82	-29756.3	0.000000	0.000000	6.650979	-0.019599	NaN	0.000000	0.001536	0.001805	28.0822	0.026721	0.002038	13.1112	88.9602	-169.2	-0.010102	0.649419	-0.292204	-0.293461	-0.019599	13.1112	-0.291083	-3463.5	5.658809E-6	NaN
1003	1.000000	0.658702	7.37486e+06	-50289.1	1055.82	-29756.3	0.000000	0.000000	6.659006	0.014859	NaN	0.000000	0.001561	0.001820	28.082	0.055166	0.002066	26.6963	-63.5941	-167.146	0.021012	0.657405	-0.284178	-0.285475	0.014859	26.6963	-0.284596	-2768.13	-5.367726E-6	NaN
1003	1.000000	0.666686	7.37486e+06	-50289.1	1055.82	-29756.3	0.000000	0.000000	6.666990	0.006551	NaN	0.000000	0.001518	0.001846	28.0819	0.019538	0.001810	10.7955	109.543	-166.417	0.080041	0.665411	-0.276194	-0.277469	0.006551	10.7955	-0.276649	-2100.67	-3.118482E-6	NaN
1003	1.000000	0.674696	7.37486e+06	-50289.1	1055.82	-29756.3	0.000000	0.000000	6.674998	-0.041320	NaN	0.000000	0.001538	0.001823	28.0818	0.074800	0.001968	38.003	-159.662	-160.815	-0.032895	0.673387	-0.268184	-0.269493	-0.041320	38.003	-0.267368	-1518.79	2.720566E-5	NaN
1003	1.000000	0.682716	7.37486e+06	-50289.1	1055.82	-29756.3	0.000000	0.000000	6.683021	0.022211	NaN	0.000000	0.001514	0.001815	28.0832	0.110488	0.002065	53.5135	-139.936	-168.486	0.036241	0.681417	-0.260164	-0.261463	0.022211	53.5135	-0.260475	-1191.78	-1.863720E-5	NaN
1003	1.000000	0.690710	7.37486e+06	-50289.1	1055.82	-29756.3	0.000000	0.000000	6.691013	-0.018345	NaN	0.000000	0.001566	0.001846	28.0832	0.025497	0.001931	13.2019	164.134	-169.722	0.011770	0.689368	-0.252170	-0.253512	-0.018345	13.2019	-0.251128	-855.854	2.143445E-5	NaN
1003	1.000000	0.698708	7.37486e+06	-50289.1	1055.82	-29756.3	0.000000	0.000000	6.699013	0.045461	NaN	0.000000	0.001580	0.001817	28.0833	0.084310	0.002065	40.825	130.718	-165.275	-0.001924	0.697353	-0.244172	-0.245527	0.045461	40.825	-0.245007	-687.964	-6.607985E-5	NaN
1003	1.000000	0.706723	7.37486e+06	-50289.1	1055.82	-29756.3	0.000000	0.000000	6.707031	0.117843	NaN	0.000000	0.001540	0.001800	28.0834	0.021030	0.002018	10.4211	164.328	-167.74	0.105312	0.705483	-0.236157	-0.237397	0.117843	10.4211	-0.244638	-678.936	-0.000174	NaN
1003	1.000000	0.714722	7.37486e+06	-50289.1	1055.82	-29756.3	0.000000	0.000000	6.715024	-0.016271	NaN	0.000000	0.001568	0.001780	28.0837	0.028798	0.002068	13.9276	-124.037	-166.3	0.007007	0.713430	-0.228159	-0.229450	-0.016271	13.9276	-0.227282	-362.691	4.486116E-5	NaN
1003	1.000000	0.722741	7.37486e+06	-50289.1	1055.82	-29756.3	0.000000	0.000000	6.723045	0.014486	NaN	0.000000	0.001543	0.001790	28.0837	0.076878	0.001974	38.9548	-28.8945	-166.983	-0.006706	0.721410	-0.220139	-0.221470	0.014486	38.9548	-0.220418	-282.069	-5.135584E-5	NaN
1003	1.000000	0.730719	7.37486e+06	-50289.1	1055.82	-29756.3	0.000000	0.000000	6.731024	0.021065	NaN	0.000000	0.001557	0.001795	28.0832	0.062335	0.001898	32.8375	104.217	-165.671	0.029259	0.729414	-0.212161	-0.213466	0.021065	32.8375	-0.212642	-211.606	-9.954784E-5	NaN
1003	1.000000	0.738746	7.37486e+06	-50289.1	1055.82	-29756.3	0.000000	0.000000	6.739049	-0.004541	NaN	0.000000	0.001547	0.001768	28.0834	0.073820	0.001890	39.05	100.503	-169.755	0.097118	0.737459	-0.204134	-0.205421	-0.004541	39.05	-0.204047	-153.462	2.959180E-5	NaN
1003	1.000000	0.746707	7.37486e+06	-50289.1	1055.82	-29756.3	0.000000	0.000000	6.747010	-0.006316	NaN	0.000000	0.001554	0.001781	28.0835	0.016080	0.002017	7.973197	-162.396	-170.552	0.005990	0.745456	-0.196173	-0.197424	-0.006316	7.973197	-0.195579	-111.377	5.671175E-5	NaN
1003	1.000000	0.754730	7.37486e+06	-50289.1	1055.82	-29756.3	0.000000	0.000000	6.755034	-0.001934	NaN	0.000000	0.001539	0.001747	28.0832	0.039481	0.002074	19.0391	29.7469	-164.027	0.046017	0.753432	-0.188150	-0.189448	-0.001934	19.0391	-0.188074	-83.5207	2.315650E-5	NaN
1003	1.000000	0.762735	7.37486e+06	-50289.1	1055.82	-29756.3	0.000000	0.000000	6.763040	0.032572	NaN	0.000000	0.001514	0.001771	28.0836	0.061767	0.002056	30.0494	146.145	-165.833	-0.000412	0.761472	-0.180145	-0.181408	0.032572	30.0494	-0.180958	-63.3508	-0.000514	NaN
1003	1.000000	0.770729	7.37486e+06	-50289.1	1055.82	-29756.3	0.000000	0.000000	6.771033	0.030969	NaN	0.000000	0.001537	0.001761	28.083	0.063234	0.001978	31.9658	19.2749	-166.782	0.037794	0.769425	-0.172151	-0.173455	0.030969	31.9658	-0.172878	-46.0722	-0.000672	NaN
1003	1.000000	0.778732	7.37486e+06	-50289.1	1055.82	-29756.3	0.000000	0.000000	6.779031	-0.112524	NaN	0.000000	0.001571	0.001765	28.0833	0.035966	0.001998	18.0015	144.34	-168.572	-0.107246	0.777436	-0.164148	-0.165445	-0.112524	18.0015	-0.159460	-26.8153	0.004196	NaN
1003	1.000000	0.786746	7.37486e+06	-50289.1	1055.82	-29756.3	0.000000	0.000000	6.787047	-0.058993	NaN	0.000000	0.001553	0.001725	28.0832	0.092562	0.001956	47.3221	170.231	-165.102	-0.071087	0.785419	-0.156134	-0.157461	-0.058993	47.3221	-0.155199	-22.499	0.002622	NaN
1003	1.000000	0.794748	7.37486e+06	-50289.1	1055.82	-29756.3	0.000000	0.000000	6.795051	-0.003732	NaN	0.000000	0.001588	0.001748	28.0832	0.070594	0.001970	35.8342	-108.405	-162.384	0.008214	0.793444	-0.148132	-0.149436	-0.003732	35.8342	-0.148054	-16.6885	0.000224	NaN
1003	1.000000	0.802768	7.37486e+06	-50289.1	1055.82	-29756.3	0.000000	0.000000	6.803073	0.038727	NaN	0.000000	0.001566	0.001731	28.0836	0.099197	0.002191	45.272	-172.393	-167.227	0.021817	0.801439	-0.140112	-0.141442	0.038727	45.272	-0.140754	-12.221	-0.003169	NaN
1003	1.000000	0.810794	7.37486e+06	-50289.1	1055.82	-29756.3	0.000000	0.000000	6.811095	-0.068496	NaN	0.000000	0.001560	0.001745	28.083	0.144272	0.002030	71.0634	98.6309	-165.96	-0.066763	0.809460	-0.132086	-0.133420	-0.068496	71.0634	-0.131363	-8.098761	0.008458	NaN
1003	1.000000	0.818787	7.37486e+06	-50289.1	1055.82	-29756.3	0.000000	0.000000	6.819089	-0.042197	NaN	0.000000	0.001531	0.001742	28.0822	0.042482	0.001926	22.06	24.8063	-163.937	-0.071241	0.817454	-0.124093	-0.125427	-0.042197	22.06	-0.122659	-5.463314	0.007724	NaN
1003	1.000000	0.826788	7.37486e+06	-50289.1	1055.82	-29756.3	0.000000	0.000000	6.827091	-0.021844	NaN	0.000000	0.001579	0.001736	28.082	0.060844	0.001965	30.9619	24.2749	-166.648	-0.081824	0.825484	-0.116092	-0.117396	-0.021844	30.9619	-0.115563	-3.923654	0.005567	NaN
1003	1.000000	0.834770	7.37486e+06	-50289.1	1055.82	-29756.3	0.000000	0.000000	6.835072	-0.029805	NaN	0.000000	0.001533	0.001769	28.082	0.126300	0.001975	63.9344	124.17	-167.989	-0.089654	0.833455	-0.108110	-0.109425	-0.029805	63.9344	-0.107760	-2.694009	0.011063	NaN
1003	1.000000	0.842784	7.37486e+06	-50289.1	1055.82	-29756.3	0.000000	0.000000	6.843090	0.061423	NaN	0.000000	0.001556	0.001771	28.0824	0.150077	0.002036	73.6952	-87.1481	-167.94	0.026035	0.841459	-0.100096	-0.101421	0.061423	73.6952	-0.100721	-1.895516	-0.032404	NaN
1003	1.000000	0.850813	7.37486e+06	-50289.1	1055.82	-29756.3	0.000000	0.000000	6.851117	0.010418	NaN	0.000000	0.001556	0.001779	28.082	0.120845	0.002006	60.2446	88.7209	-168.389	0.003305	0.849401	-0.092067	-0.093479	0.010418	60.2446	-0.092197	-1.216253	-0.008565	NaN
1003	1.000000	0.858772	7.37486e+06	-50289.1	1055.82	-29756.3	0.000000	0.000000	6.859074	-0.036072	NaN	0.000000	0.001568	0.001761	28.0823	0.124473	0.001978	62.9443	159.158	-164.966	-0.023963	0.857477	-0.084109	-0.085403	-0.036072	62.9443	-0.083679	-0.763071	0.047271	NaN
1003	1.000000	0.866819	7.37486e+06	-50289.1	1055.82	-29756.3	0.000000	0.000000	6.867122	-0.015434	NaN	0.000000	0.001544	0.001717	28.0819	0.043158	0.002056	20.9911	-79.6183	-166.499	0.058679	0.865479	-0.076061	-0.077401	-0.015434	20.9911	-0.075510	-0.476093	0.032417	NaN
1003	1.000000	0.874813	7.37486e+06	-50289.1	1055.82	-29756.3	0.000000	0.000000	6.875114	-0.049364	NaN	0.000000	0.001580	0.001741	28.0819	0.023550	0.001998	11.7898	-39.3785	-167.373	-0.064252	0.873486	-0.068067	-0.069394	-0.049364	11.7898	-0.064927	-0.248055	0.199006	NaN
1003	1.000000	0.882782	7.37486e+06	-50289.1	1055.82	-29756.3	0.000000	0.000000	6.883088	0.046054	NaN	0.000000	0.001549	0.001782	28.0821	0.087395	0.001973	44.2856	33.6916	-169.827	0.085117	0.881521	-0.060098	-0.061359	0.046054	44.2856	-0.060878	-0.190813	-0.241358	NaN
1003	1.000000	0.890810	7.37486e+06	-50289.1	1055.82	-29756.3	0.000000	0.000000	6.891119	0.141547	NaN	0.000000	0.001553	0.001765	28.0821	0.133550	0.001985	67.2914	37.7908	-165.605	0.146133	0.889466	-0.052070	-0.053414	0.141547	67.2914	-0.053648	-0.117418	-1.205494	NaN
1003	1.000000	0.898777	7.37486e+06	-50289.1	1055.82	-29756.3	0.000000	0.000000	6.899083	0.065697	NaN	0.000000	0.001566	0.001763	28.0824	0.133761	0.002028	65.9472	8.328372	-167.463	0.113109	0.897460	-0.044103	-0.045420	0.065697	65.9472	-0.044850	-0.063593	-1.033081	NaN
1003	1.000000	0.906821	7.37486e+06	-50289.1	1055.82	-29756.3	0.000000	0.000000	6.907135	0.274147	NaN	0.000000	0.001574	0.001756	28.0821	0.317439	0.001969	161.186	20.8291	-169.369	0.317897	0.905545	-0.036060	-0.037335	0.274147	161.186	-0.037335	-0.037575	-7.295984	NaN
1003	1.000000	0.914810	7.37486e+06	-50289.1	1055.82	-29756.3	0.000000	0.000000	6.915133	0.467851	NaN	0.000000	0.001565	0.001743	28.0823	0.390927	0.001912	204.464	33.1451	-165.175	0.425341	0.913536	-0.028070	-0.029344	0.467851	204.464	-0.029786	-0.022699	-20.6107	NaN
1003	1.000000	0.922807	7.37486e+06	-50289.1	1055.82	-29756.3	0.000000	0.000000	6.923138	0.659269	NaN	0.000000	0.001579	0.001770	28.0819	0.534614	0.002102	254.333	20.4029	-165.549	0.664816	0.921474	-0.020073	-0.021406	0.659269	254.333	-0.022017	-0.014135	-46.6394	NaN
1003	1.000000	0.930827	7.37486e+06	-50289.1	1055.82	-29756.3	0.000000	0.000000	6.931159	0.693209	NaN	0.000000	0.001598	0.001754	28.082	0.509052	0.002007	253.656	30.082	-164.802	0.770714	0.929503	-0.012053	-0.013377	0.693209	253.656	-0.014103	-0.008744	-79.2826	NaN
1003	1.000000	0.938821	7.37487e+06	-50289.1	1055.82	-29756.3	0.000000	0.000000	6.939163	0.927124	NaN	0.000000	0.001581	0.001763	28.0822	0.948082	0.002059	460.461	28.2591	-171.086	0.888605	0.937507	-0.004059	-0.005373	0.927124	460.461	-0.005569	-0.003772	-245.823	NaN
1003	1.000000	0.946782	7.37487e+06	-50289.1	1055.82	-29756.3	0.000000	0.000000	6.947268	4.453126	NaN	0.000000	0.001589	0.001774	28.082	5.224445	0.001909	2736.51	14.725	-170.138	3.107578	0.945489	0.003901	0.002609	4.453126	2736.51	0.002681	0.002113	2107.38	54388.8
1003	2.000000	0.952332	7.37487e+06	-50289.1	1055.82	-29756.3	0.000000	0.000000	6.953010	9.109124	NaN	0.000000	0.001599	0.001783	28.0839	9.079016	0.001681	5401.77	8.180358	-171.303	9.287193	0.951962	0.009452	0.009082	9.109124	5401.77	0.008187	0.007236	1258.94	58019.3
1003	2.000000	0.954280	7.37487e+06	-50289.1	1055.82	-29756.3	0.000000	0.000000	6.955045	11.2131	NaN	0.000000	0.001603	0.001756	28.0833	12.2654	0.001716	7149.25	13.2483	-178.716	11.3966	0.954019	0.011400	0.011139	11.2131	7149.25	0.010224	0.009431	1188.97	67259.8
1003	2.000000	0.956231	7.37487e+06	-50289.1	1055.82	-29756.3	0.000000	0.000000	6.957174	15.5332	NaN	0.000000	0.001621	0.001755	28.0834	13.3531	0.001600	8346.33	6.138732	-175.608	14.202	0.955936	0.013351	0.013056	15.5332	8346.33	0.011955	0.011437	1358.2	71305
1003	2.000000	0.958290	7.37487e+06	-50289.1	1055.82	-29756.3	0.000000	0.000000	6.959259	16.1934	NaN	0.000000	0.001616	0.001785	28.0832	15.5898	0.001717	9080.48	9.007542	-178.466	15.6082	0.957963	0.015409	0.015083	16.1934	9080.48	0.014072	0.014068	1151.1	69947.1
1003	2.000000	0.960318	7.37487e+06	-50289.1	1055.82	-29756.3	0.000000	0.000000	6.961474	20.744	NaN	0.000000	0.001659	0.001789	28.0833	17.7388	0.001748	10149.2	7.357381	-177.787	21.7353	0.959963	0.017438	0.017083	20.744	10149.2	0.015905	0.016511	1256.39	72164.2
1003	2.000000	0.962216	7.37487e+06	-50289.1	1055.82	-29756.3	0.000000	0.000000	6.963554	25.1692	NaN	0.000000	0.001636	0.001771	28.0841	19.2199	0.001601	12002	2.894654	-175.083	23.2353	0.961839	0.019336	0.018959	25.1692	12002	0.017763	0.019148	1314.44	79243.2
1003	2.000000	0.964282	7.37487e+06	-50289.1	1055.82	-29756.3	0.000000	0.000000	6.965729	27.7965	NaN	0.000000	0.001632	0.001759	28.0834	21.9939	0.001850	11890.7	5.863832	-178.05	30.06	0.963991	0.021402	0.021111	27.7965	11890.7	0.019649	0.021994	1263.84	73254
1003	2.000000	0.966239	7.37487e+06	-50289.1	1055.82	-29756.3	0.000000	0.000000	6.967935	33.8526	NaN	0.000000	0.001605	0.001737	28.0837	23.5329	0.001650	14264.6	8.013570	178.232	33.4573	0.965901	0.023359	0.023021	33.8526	14264.6	0.021579	0.025084	1349.55	82287.1
1003	2.000000	0.968205	7.37487e+06	-50289.1	1055.82	-29756.3	0.000000	0.000000	6.970171	40.4242	NaN	0.000000	0.001616	0.001728	28.0831	25.3926	0.001701	14925.3	5.915521	179.574	39.647	0.967900	0.025325	0.025020	40.4242	14925.3	0.023293	0.027984	1444.56	81515.7
1003	2.000000	0.970241	7.37487e+06	-50289.1	1055.82	-29756.3	0.000000	0.000000	6.972377	44.5735	NaN	0.000000	0.001629	0.001758	28.083	28.0004	0.001800	15553.9	7.098968	178.213	43.8701	0.969911	0.027361	0.027031	44.5735	15553.9	0.025212	0.031402	1419.46	80192.7
1003	2.000000	0.972232	7.37487e+06	-50289.1	1055.82	-29756.3	0.000000	0.000000	6.974539	48.719	NaN	0.000000	0.001602	0.001779	28.0833	29.3724	0.001786	16447	8.160638	177.326	49.372	0.971889	0.029352	0.029009	48.719	16447	0.027131	0.035006	1391.72	80313.5
1003	2.000000	0.974190	7.37487e+06	-50289.1	1055.82	-29756.3	0.000000	0.000000	6.976652	52.4973	NaN	0.000000	0.001609	0.001742	28.0831	31.8577	0.001842	17290.9	7.414405	176.898	51.5567	0.973894	0.031310	0.031014	52.4973	17290.9	0.029033	0.038763	1354.31	80238.2
1003	2.000000	0.976172	7.37487e+06	-50289.1	1055.82	-29756.3	0.000000	0.000000	6.978991	61.1668	NaN	0.000000	0.001604	0.001756	28.0835	31.8983	0.001781	17914	4.060360	-179.704	60.3529	0.975876	0.033292	0.032996	61.1668	17914	0.030731	0.042272	1446.98	79604.5
1003	2.000000	0.978151	7.37487e+06	-50289.1	1055.82	-29756.3	0.000000	0.000000	6.981169	66.0115	NaN	0.000000	0.001572	0.001790	28.083	34.2846	0.001722	19905.4	6.207992	176.608	64.9318	0.977875	0.035271	0.034995	66.0115	19905.4	0.032784	0.046712	1413.16	84145.5
1003	2.000000	0.980193	7.37487e+06	-50289.1	1055.82	-29756.3	0.000000	0.000000	6.983466	72.2183	NaN	0.000000	0.001608	0.001752	28.0829	35.6391	0.001594	22351.4	1.962179	179.737	71.5513	0.979918	0.037312	0.037038	72.2183	22351.4	0.034889	0.051488	1402.62	89996.2
1003	2.000000	0.982178	7.37487e+06	-50289.1	1055.82	-29756.3	0.000000	0.000000	6.985641	76.8179	NaN	0.000000	0.001622	0.001764	28.0832	38.0356	0.001757	21650.5	6.149167	176.08	74.9004	0.981940	0.039298	0.039060	76.8179	21650.5	0.036637	0.055627	1380.96	83868.9
1003	2.000000	0.984202	7.37487e+06	-50289.1	1055.82	-29756.3	0.000000	0.000000	6.987933	83.3661	NaN	0.000000	0.001588	0.001789	28.083	40.4724	0.001874	21599.9	2.811677	179.277	83.5714	0.983899	0.041322	0.041018	83.3661	21599.9	0.038427	0.060026	1388.83	80548.1
1003	2.000000	0.986166	7.37487e+06	-50289.1	1055.82	-29756.3	0.000000	0.000000	6.990388	95.3069	NaN	0.000000	0.001552	0.001784	28.0828	41.5026	0.001672	24824	3.428155	177.762	93.5609	0.985778	0.043285	0.042898	95.3069	24824	0.040406	0.065082	1464.42	88902.6
1003	2.000000	0.988144	7.37487e+06	-50289.1	1055.82	-29756.3	0.000000	0.000000	6.992763	104.934	NaN	0.000000	0.001550	0.001749	28.0819	43.6562	0.001880	23219	2.079015	-179.611	101.603	0.987846	0.045264	0.044966	104.934	23219	0.041875	0.068963	1521.59	80780.8
1003	2.000000	0.990137	7.37487e+06	-50289.1	1055.82	-29756.3	0.000000	0.000000	6.994939	109.387	NaN	0.000000	0.001557	0.001758	28.0819	46.646	0.001767	26393.7	6.966980	173.771	106.753	0.989811	0.047257	0.046931	109.387	26393.7	0.044149	0.075189	1454.83	87942.3
1003	2.000000	0.992125	7.37487e+06	-50289.1	1055.82	-29756.3	0.000000	0.000000	6.997199	116.004	NaN	0.000000	0.001573	0.001776	28.0819	47.634	0.001783	26718.7	4.986282	175.251	112.963	0.991881	0.049245	0.049001	116.004	26718.7	0.045989	0.080419	1442.5	86081.6
1003	2.000000	0.994149	7.37487e+06	-50289.1	1055.82	-29756.3	0.000000	0.000000	6.999779	129.536	NaN	0.000000	0.001561	0.001759	28.082	50.5662	0.001792	28220.3	4.744467	175.226	129.305	0.993902	0.051269	0.051022	129.536	28220.3	0.047826	0.085812	1509.53	88015.7
1003	2.000000	0.996212	7.37487e+06	-50289.1	1055.82	-29756.3	0.000000	0.000000	7.002075	135.198	NaN	0.000000	0.001543	0.001717	28.0823	50.8006	0.001692	30016.1	1.858017	176.929	136.851	0.995958	0.053332	0.053078	135.198	30016.1	0.049954	0.092272	1465.22	90280.3
1003	2.000000	0.998152	7.37487e+06	-50289.1	1055.82	-29756.3	0.000000	0.000000	7.004468	146.218	NaN	0.000000	0.001536	0.001684	28.0819	53.5144	0.001759	30431.2	6.165845	172.662	144.583	0.997881	0.055272	0.055001	146.218	30431.2	0.051668	0.097640	1497.53	88977.2
1003	2.000000	1.000184	7.37487e+06	-50289.1	1055.82	-29756.3	0.000000	0.000000	7.006946	157.078	NaN	0.000000	0.001529	0.001779	28.0822	54.9742	0.001702	32297.4	3.843831	175.438	156.428	0.999897	0.057304	0.057017	157.078	32297.4	0.053656	0.104048	1509.67	91479.5
1003	2.000000	1.002122	7.37487e+06	-50289.1	1055.82	-29756.3	0.000000	0.000000	7.009282	166.737	NaN	0.000000	0.001563	0.001729	28.0817	56.7438	0.001703	33324.7	6.173937	171.734	164.658	1.001921	0.059242	0.059041	166.737	33324.7	0.055489	0.110132	1513.98	91745
1003	2.000000	1.004125	7.37487e+06	-50289.1	1055.82	-29756.3	0.000000	0.000000	7.011743	177.878	NaN	0.000000	0.001529	0.001772	28.0819	60.512	0.001870	32362	5.825690	173.22	174.46	1.003909	0.061245	0.061029	177.878	32362	0.057123	0.115693	1537.5	86927.2
1003	2.000000	1.006176	7.37487e+06	-50289.1	1055.82	-29756.3	0.000000	0.000000	7.014270	189.446	NaN	0.000000	0.001558	0.001752	28.0821	61.0294	0.001756	34764.4	7.614800	171.241	189.805	1.005753	0.063296	0.062873	189.446	34764.4	0.059209	0.122986	1540.38	90569.1
1003	2.000000	1.008049	7.37487e+06	-50289.1	1055.82	-29756.3	0.000000	0.000000	7.016453	196.987	NaN	0.000000	0.001545	0.001764	28.0819	63.0047	0.001707	36910.2	3.632365	174.013	190.917	1.007752	0.065169	0.064872	196.987	36910.2	0.061166	0.130024	1515.01	93520.9
1003	2.000000	1.010159	7.37487e+06	-50289.1	1055.82	-29756.3	0.000000	0.000000	7.019008	207.822	NaN	0.000000	0.001549	0.001727	28.0821	66.0411	0.001877	35192.7	5.561654	173.518	206.481	1.009798	0.067279	0.066918	207.822	35192.7	0.062850	0.136224	1525.59	87116.2
1003	2.000000	1.012075	7.37487e+06	-50289.1	1055.82	-29756.3	0.000000	0.000000	7.021317	217.371	NaN	0.000000	0.001590	0.001765	28.0824	67.0083	0.001829	36636.9	2.645042	175.306	214.891	1.011884	0.069195	0.069004	217.371	36636.9	0.064745	0.143370	1516.16	88402.1
1003	2.000000	1.014135	7.37487e+06	-50289.1	1055.82	-29756.3	0.000000	0.000000	7.023948	231.274	NaN	0.000000	0.001568	0.001776	28.0821	69.7916	0.001858	37553.4	3.309458	173.956	229.367	1.013876	0.071255	0.070996	231.274	37553.4	0.066636	0.150672	1534.95	88390.6
1003	2.000000	1.016168	7.37487e+06	-50289.1	1055.82	-29756.3	0.000000	0.000000	7.026449	242.629	NaN	0.000000	0.001532	0.001767	28.0822	70.2426	0.001722	40783.4	4.146957	172.87	242.299	1.015832	0.073288	0.072952	242.629	40783.4	0.068826	0.159346	1522.65	93343.8
1003	2.000000	1.018101	7.37487e+06	-50289.1	1055.82	-29756.3	0.000000	0.000000	7.028880	254.77	NaN	0.000000	0.001570	0.001780	28.082	71.5141	0.001797	39800.2	6.130249	171.09	252.42	1.017798	0.075220	0.074918	254.77	39800.2	0.070420	0.165799	1536.62	89303.5
1003	2.000000	1.020175	7.37487e+06	-50289.1	1055.82	-29756.3	0.000000	0.000000	7.031595	270.329	NaN	0.000000	0.001578	0.001767	28.0833	73.2962	0.001735	42252.3	4.544455	172.956	271.51	1.019808	0.077295	0.076928	270.329	42252.3	0.072496	0.174390	1550.14	92440.4
1003	2.000000	1.022154	7.37487e+06	-50289.1	1055.82	-29756.3	0.000000	0.000000	7.034000	280.689	NaN	0.000000	0.001551	0.001727	28.0834	74.7243	0.001755	42581.7	3.184471	173.568	281.042	1.021849	0.079274	0.078969	280.689	42581.7	0.074330	0.182148	1541	91155.8
1003	2.000000	1.024070	7.37487e+06	-50289.1	1055.82	-29756.3	0.000000	0.000000	7.036484	294.496	NaN	0.000000	0.001546	0.001737	28.0835	78.6741	0.001864	42218.3	6.487564	170.866	290.6	1.023918	0.081190	0.081037	294.496	42218.3	0.075959	0.189168	1556.8	88685
1003	2.000000	1.026080	7.37487e+06	-50289.1	1055.82	-29756.3	0.000000	0.000000	7.039156	310.616	NaN	0.000000	0.001548	0.001736	28.0834	79.5957	0.001915	41560	3.640911	173.637	307.544	1.025693	0.083200	0.082813	310.616	41560	0.077594	0.196345	1581.99	85691.6
1003	2.000000	1.028047	7.37487e+06	-50289.1	1055.82	-29756.3	0.000000	0.000000	7.041541	320.777	NaN	0.000000	0.001553	0.001768	28.0832	81.7215	0.001890	43228.8	6.774633	169.988	316.984	1.027770	0.085167	0.084890	320.777	43228.8	0.079601	0.205323	1562.3	87162.1
1003	2.000000	1.030122	7.37487e+06	-50289.1	1055.82	-29756.3	0.000000	0.000000	7.044286	337.06	NaN	0.000000	0.001534	0.001702	28.0832	82.6531	0.001768	46752.5	5.132739	171.531	334.131	1.029787	0.087242	0.086907	337.06	46752.5	0.081835	0.215536	1563.82	92006.3
1003	2.000000	1.032087	7.37487e+06	-50289.1	1055.82	-29756.3	0.000000	0.000000	7.046486	342.796	NaN	0.000000	0.001514	0.001751	28.0835	83.5374	0.001798	46459.3	1.940383	174.369	341.167	1.031857	0.089207	0.088977	342.796	46459.3	0.083673	0.224111	1529.58	89663.3
1003	2.000000	1.034018	7.37487e+06	-50289.1	1055.82	-29756.3	0.000000	0.000000	7.049486	368.776	NaN	0.000000	0.001507	0.001790	28.0832	85.4571	0.001872	45641.2	2.788845	174.091	362.441	1.033720	0.091138	0.090840	368.776	45641.2	0.085078	0.230773	1598	86803.6
1003	2.000000	1.035946	7.37487e+06	-50289.1	1055.82	-29756.3	0.000000	0.000000	7.051646	374.428	NaN	0.000000	0.001497	0.001802	28.0828	86.3837	0.001733	49839.1	3.039596	172.946	364.343	1.035550	0.093066	0.092670	374.428	49839.1	0.087431	0.242137	1546.35	92536.5
1003	2.000000	1.038057	7.37487e+06	-50289.1	1055.82	-29756.3	0.000000	0.000000	7.054239	386.148	NaN	0.000000	0.001525	0.001785	28.0834	88.3471	0.001796	49178.1	-0.644009	176.769	382.833	1.037824	0.095177	0.094943	386.148	49178.1	0.089288	0.251278	1536.73	89632.8
1003	2.000000	1.040072	7.37487e+06	-50289.1	1055.82	-29756.3	0.000000	0.000000	7.057004	404.364	NaN	0.000000	0.001481	0.001767	28.0831	91.1209	0.001748	52113.8	2.008901	173.496	398.719	1.039737	0.097192	0.096856	404.364	52113.8	0.091373	0.261737	1544.92	93066.6
1003	2.000000	1.042062	7.37487e+06	-50289.1	1055.82	-29756.3	0.000000	0.000000	7.059476	416.09	NaN	0.000000	0.001505	0.001791	28.0831	93.2038	0.001917	48616.1	5.489550	170.718	411.483	1.041722	0.099182	0.098842	416.09	48616.1	0.092763	0.268821	1547.83	85668.7
1003	2.000000	1.044024	7.37487e+06	-50289.1	1055.82	-29756.3	0.000000	0.000000	7.062322	437.591	NaN	0.000000	0.001514	0.001774	28.083	95.6195	0.001890	50585.4	4.890842	171.196	435.269	1.043850	0.101144	0.100970	437.591	50585.4	0.094656	0.278608	1570.64	87559.2
1003	2.000000	1.046051	7.37487e+06	-50289.1	1055.82	-29756.3	0.000000	0.000000	7.065003	453.488	NaN	0.000000	0.001533	0.001778	28.0831	95.6937	0.001814	52752.9	6.013137	169.289	449.758	1.045842	0.103171	0.102962	453.488	52752.9	0.096724	0.289487	1566.52	89578.8
1003	2.000000	1.048097	7.37487e+06	-50289.1	1055.82	-29756.3	0.000000	0.000000	7.067601	466.933	NaN	0.000000	0.001498	0.001797	28.0834	97.986	0.001717	57069.4	5.279125	169.863	465.669	1.047802	0.105217	0.104922	466.933	57069.4	0.099080	0.302119	1545.53	94860.9
1003	2.000000	1.050132	7.37487e+06	-50289.1	1055.82	-29756.3	0.000000	0.000000	7.070279	482.557	NaN	0.000000	0.001518	0.001769	28.0834	99.5117	0.001768	56273.6	1.717803	173.958	482.025	1.049835	0.107252	0.106955	482.557	56273.6	0.100821	0.311614	1548.57	92102.1