File: remote_trans/data/nanoindenter/0828-1/data/Data_2025-08-06,11h17m57s/2025-07-22_16-23-58_1_751.txt
2025-07-22, 16:23:58, 1
Index	Phase	Displacement	Time	Pos X	Pos Y	Pos Z	Rot A	Rot B	Piezo Z	Force A	Force B	Gripper	Voltage A	Voltage B	Temperature	Amplitude force	Amplitude pos	Stiffness	Phase shift	Phase excitation	Force A raw	Displacement raw	HMax	HMax raw	Real Force	Real Stiffness	Contact Depth	Area	Hardness	Reduced Mod.
[#]	[#]	[um]	[s]	[um]	[um]	[um]	[m°]	[m°]	[um]	[uN]	[uN]	[V]	[V]	[V]	[°C]	[uN]	[um]	[N/m]	[°]	[°]	[uN]	[um]	[um]	[um]	[uN]	[N/m]	[um]	[um^2]	[MPa]	[MPa]
751	1.000000	0.002731	7.3724e+06	-39539.1	1005.82	-29793.5	0.000000	0.000000	6.002792	0.078610	NaN	0.000000	0.001618	0.001705	28.0837	0.057338	0.001051	54.5657	-38.106	-166.001	0.060270	0.001468	-1.067118	-1.068380	0.078610	54.5657	-1.068198	-1.874921E+14	-4.192726E-16	NaN
751	1.000000	0.010699	7.3724e+06	-39539.1	1005.82	-29793.5	0.000000	0.000000	6.010759	0.032538	NaN	0.000000	0.001602	0.001706	28.0836	0.059351	0.001033	57.4696	-144.56	-164.614	0.045655	0.009375	-1.059149	-1.060474	0.032538	57.4696	-1.059574	-1.435804E+14	-2.266154E-16	NaN
751	1.000000	0.018693	7.3724e+06	-39539.1	1005.82	-29793.5	0.000000	0.000000	6.018754	0.073727	NaN	0.000000	0.001595	0.001707	28.0835	0.056485	0.001725	32.7493	47.991	-163.937	0.013849	0.017353	-1.051156	-1.052495	0.073727	32.7493	-1.052844	-1.165870E+14	-6.323744E-16	NaN
751	1.000000	0.026742	7.3724e+06	-39539.1	1005.82	-29793.5	0.000000	0.000000	6.026797	-0.059109	NaN	0.000000	0.001620	0.001740	28.0835	0.116469	0.001849	62.9764	-80.016	-169.609	0.032589	0.025372	-1.043107	-1.044477	-0.059109	62.9764	-1.042403	-8.438806E+13	7.004458E-16	NaN
751	1.000000	0.034698	7.3724e+06	-39539.1	1005.82	-29793.5	0.000000	0.000000	6.034756	-0.015670	NaN	0.000000	0.001601	0.001719	28.0834	0.109095	0.001804	60.4636	101.644	-160.61	-0.042486	0.033384	-1.035151	-1.036464	-0.015670	60.4636	-1.034956	-6.701020E+13	2.338413E-16	NaN
751	1.000000	0.042684	7.3724e+06	-39539.1	1005.82	-29793.5	0.000000	0.000000	6.042742	-0.005195	NaN	0.000000	0.001599	0.001727	28.0835	0.091847	0.002040	45.0195	149.503	-165.948	-0.045310	0.041388	-1.027165	-1.028460	-0.005195	45.0195	-1.027078	-5.250238E+13	9.895379E-17	NaN
751	1.000000	0.050677	7.3724e+06	-39539.1	1005.82	-29793.5	0.000000	0.000000	6.050737	0.044143	NaN	0.000000	0.001582	0.001765	28.0834	0.035448	0.001911	18.5465	-163.347	-162.938	-0.001965	0.049343	-1.019172	-1.020506	0.044143	18.5465	-1.020957	-4.343358E+13	-1.016337E-15	NaN
751	1.000000	0.058683	7.3724e+06	-39539.1	1005.82	-29793.5	0.000000	0.000000	6.058743	0.041726	NaN	0.000000	0.001593	0.001769	28.0836	0.090989	0.001945	46.7848	-75.3284	-162.726	0.000980	0.057358	-1.011166	-1.012490	0.041726	46.7848	-1.011834	-3.273942E+13	-1.274478E-15	NaN
751	1.000000	0.066693	7.3724e+06	-39539.1	1005.82	-29793.5	0.000000	0.000000	6.066751	-0.009657	NaN	0.000000	0.001591	0.001742	28.0833	0.092339	0.002023	45.6437	-158.933	-163.064	0.056560	0.065373	-1.003156	-1.004475	-0.009657	45.6437	-1.002997	-2.489541E+13	3.878984E-16	NaN
751	1.000000	0.074715	7.3724e+06	-39539.1	1005.82	-29793.5	0.000000	0.000000	6.074774	0.029033	NaN	0.000000	0.001628	0.001713	28.0822	0.061650	0.002048	30.1096	159.307	-166.423	-0.037070	0.073439	-0.995134	-0.996410	0.029033	30.1096	-0.995857	-1.995182E+13	-1.455146E-15	NaN
751	1.000000	0.082734	7.3724e+06	-39539.1	1005.82	-29793.5	0.000000	0.000000	6.082790	-0.056597	NaN	0.000000	0.001589	0.001708	28.0824	0.098082	0.002060	47.606	-81.6651	-165.885	-0.047643	0.081360	-0.987114	-0.988488	-0.056597	47.606	-0.986223	-1.479908E+13	3.824391E-15	NaN
751	1.000000	0.090688	7.3724e+06	-39539.1	1005.82	-29793.5	0.000000	0.000000	6.090743	-0.072745	NaN	0.000000	0.001581	0.001652	28.0821	0.022974	0.001979	11.6069	13.7409	-167.511	-0.039221	0.089425	-0.979161	-0.980424	-0.072745	11.6069	-0.974460	-1.027478E+13	7.079930E-15	NaN
751	1.000000	0.098696	7.3724e+06	-39539.1	1005.82	-29793.5	0.000000	0.000000	6.098757	0.073686	NaN	0.000000	0.001563	0.001708	28.0824	0.039736	0.001987	19.9955	57.2581	-169.636	0.024433	0.097458	-0.971153	-0.972391	0.073686	19.9955	-0.973916	-1.010277E+13	-7.293641E-15	NaN
751	1.000000	0.106739	7.3724e+06	-39539.1	1005.82	-29793.5	0.000000	0.000000	6.106797	-0.021099	NaN	0.000000	0.001577	0.001736	28.0823	0.052130	0.002092	24.9232	48.0484	-164.909	0.013184	0.105467	-0.963109	-0.964382	-0.021099	24.9232	-0.962474	-7.083150E+12	2.978755E-15	NaN
751	1.000000	0.114701	7.3724e+06	-39539.1	1005.82	-29793.5	0.000000	0.000000	6.114762	0.059422	NaN	0.000000	0.001562	0.001683	28.0826	0.021789	0.001962	11.1052	30.2956	-165.753	0.067152	0.113407	-0.955148	-0.956441	0.059422	11.1052	-0.959161	-6.390812E+12	-9.298101E-15	NaN
751	1.000000	0.122704	7.3724e+06	-39539.1	1005.82	-29793.5	0.000000	0.000000	6.122764	0.033264	NaN	0.000000	0.001572	0.001689	28.0826	0.036233	0.002078	17.4363	-5.751608	-165.156	-0.044855	0.121387	-0.947144	-0.948462	0.033264	17.4363	-0.948575	-4.600566E+12	-7.230340E-15	NaN
751	1.000000	0.130727	7.3724e+06	-39539.1	1005.82	-29793.5	0.000000	0.000000	6.130784	-0.038605	NaN	0.000000	0.001528	0.001693	28.0819	0.032048	0.001948	16.4522	-65.3624	-167.268	-0.030390	0.129405	-0.939121	-0.940444	-0.038605	16.4522	-0.937362	-3.247426E+12	1.188801E-14	NaN
751	1.000000	0.138723	7.3724e+06	-39539.1	1005.82	-29793.5	0.000000	0.000000	6.138781	0.000514	NaN	0.000000	0.001627	0.001683	28.0824	0.111231	0.002153	51.6727	-16.9524	-166.35	0.075496	0.137461	-0.931126	-0.932387	0.000514	51.6727	-0.931133	-2.676040E+12	-1.919049E-16	NaN
751	1.000000	0.146718	7.3724e+06	-39539.1	1005.82	-29793.5	0.000000	0.000000	6.146774	-0.050165	NaN	0.000000	0.001622	0.001715	28.0819	0.111404	0.002115	52.6818	-38.6584	-166.4	-0.017112	0.145405	-0.923130	-0.924444	-0.050165	52.6818	-0.922416	-2.040931E+12	2.457960E-14	NaN
751	1.000000	0.154735	7.3724e+06	-39539.1	1005.82	-29793.5	0.000000	0.000000	6.154795	0.053021	NaN	0.000000	0.001644	0.001656	28.0822	0.164601	0.001977	83.2669	-167.114	-166.919	-0.015364	0.153445	-0.915114	-0.916404	0.053021	83.2669	-0.915592	-1.650740E+12	-3.211923E-14	NaN
751	1.000000	0.162714	7.3724e+06	-39539.1	1005.82	-29793.5	0.000000	0.000000	6.162770	-0.057854	NaN	0.000000	0.001582	0.001692	28.082	0.033409	0.002079	16.0671	147.955	-164.659	-0.013410	0.161450	-0.907134	-0.908399	-0.057854	16.0671	-0.904434	-1.166736E+12	4.958618E-14	NaN
751	1.000000	0.170747	7.3724e+06	-39539.1	1005.82	-29793.5	0.000000	0.000000	6.170805	0.012261	NaN	0.000000	0.001571	0.001711	28.0822	0.084009	0.001997	42.068	1.581417	-166.013	0.002236	0.169474	-0.899102	-0.900375	0.012261	42.068	-0.899321	-9.951466E+11	-1.232035E-14	NaN
751	1.000000	0.178764	7.3724e+06	-39539.1	1005.82	-29793.5	0.000000	0.000000	6.178821	-0.048699	NaN	0.000000	0.001586	0.001684	28.0824	0.093993	0.001972	47.6677	99.4172	-164.034	-0.016704	0.177435	-0.891084	-0.892413	-0.048699	47.6677	-0.890318	-7.519935E+11	6.475929E-14	NaN
751	1.000000	0.186773	7.3724e+06	-39539.1	1005.82	-29793.5	0.000000	0.000000	6.186831	0.004001	NaN	0.000000	0.001661	0.001695	28.0821	0.085232	0.001961	43.4744	-135.594	-167.925	0.054897	0.185432	-0.883076	-0.884417	0.004001	43.4744	-0.883145	-6.014952E+11	-6.652219E-15	NaN
751	1.000000	0.194741	7.3724e+06	-39539.1	1005.82	-29793.5	0.000000	0.000000	6.194799	0.003989	NaN	0.000000	0.001652	0.001666	28.082	0.079848	0.002159	36.9824	-68.1914	-163.983	0.027952	0.193468	-0.875108	-0.876381	0.003989	36.9824	-0.875189	-4.695010E+11	-8.495569E-15	NaN
751	1.000000	0.202758	7.3724e+06	-39539.1	1005.82	-29793.5	0.000000	0.000000	6.202816	0.018378	NaN	0.000000	0.001668	0.001716	28.0817	0.032607	0.001922	16.9627	111.246	-165.048	0.061632	0.201470	-0.867091	-0.868378	0.018378	16.9627	-0.867904	-3.741804E+11	-4.911527E-14	NaN
751	1.000000	0.210779	7.3724e+06	-39539.1	1005.82	-29793.5	0.000000	0.000000	6.210837	0.002083	NaN	0.000000	0.001637	0.001700	28.0833	0.062853	0.002005	31.3469	-18.9712	-165.375	-0.011911	0.209465	-0.859070	-0.860384	0.002083	31.3469	-0.859120	-2.845826E+11	-7.320666E-15	NaN
751	1.000000	0.218743	7.3724e+06	-39539.1	1005.82	-29793.5	0.000000	0.000000	6.218801	-0.012648	NaN	0.000000	0.001645	0.001692	28.0834	0.013973	0.001914	7.301864	-174.222	-166.397	-0.062649	0.217429	-0.851106	-0.852420	-0.012648	7.301864	-0.849806	-2.128708E+11	5.941724E-14	NaN
751	1.000000	0.226761	7.3724e+06	-39539.1	1005.82	-29793.5	0.000000	0.000000	6.226821	0.036060	NaN	0.000000	0.001672	0.001689	28.0832	0.085038	0.002041	41.6671	-146.519	-165.444	0.098281	0.225399	-0.843087	-0.844449	0.036060	41.6671	-0.843736	-1.761596E+11	-2.047012E-13	NaN
751	1.000000	0.234738	7.3724e+06	-39539.1	1005.82	-29793.5	0.000000	0.000000	6.234794	-0.057828	NaN	0.000000	0.001694	0.001684	28.0833	0.022752	0.001924	11.8229	87.3484	-162.449	-0.004817	0.233471	-0.835111	-0.836378	-0.057828	11.8229	-0.831443	-1.200429E+11	4.817318E-13	NaN
751	1.000000	0.242770	7.3724e+06	-39539.1	1005.82	-29793.5	0.000000	0.000000	6.242826	-0.041487	NaN	0.000000	0.001670	0.001677	28.0832	0.116808	0.002041	57.2353	172.891	-166.873	-0.037226	0.241400	-0.827079	-0.828449	-0.041487	57.2353	-0.826535	-1.029960E+11	4.028031E-13	NaN
751	1.000000	0.250770	7.3724e+06	-39539.1	1005.82	-29793.5	0.000000	0.000000	6.250831	0.067825	NaN	0.000000	0.001651	0.001648	28.0834	0.068228	0.001988	34.3173	37.4192	-165.867	0.089322	0.249442	-0.819079	-0.820406	0.067825	34.3173	-0.820561	-8.547145E+10	-7.935437E-13	NaN
751	1.000000	0.258772	7.3724e+06	-39539.1	1005.82	-29793.5	0.000000	0.000000	6.258833	0.075780	NaN	0.000000	0.001674	0.001687	28.0834	0.163803	0.001990	82.321	70.4272	-164.508	0.013272	0.257500	-0.811077	-0.812349	0.075780	82.321	-0.811767	-6.494523E+10	-1.166823E-12	NaN
751	1.000000	0.266769	7.3724e+06	-39539.1	1005.82	-29793.5	0.000000	0.000000	6.266826	-0.028947	NaN	0.000000	0.001658	0.001700	28.0834	0.113129	0.002007	56.3706	-2.417398	-164.296	-0.032654	0.265427	-0.803080	-0.804422	-0.028947	56.3706	-0.802695	-4.891500E+10	5.917896E-13	NaN
751	1.000000	0.274801	7.3724e+06	-39539.1	1005.82	-29793.5	0.000000	0.000000	6.274858	-0.030526	NaN	0.000000	0.001690	0.001690	28.0835	0.058259	0.002052	28.3886	-106.254	-161.214	-0.108827	0.273474	-0.795048	-0.796374	-0.030526	28.3886	-0.794241	-3.755606E+10	8.128231E-13	NaN
751	1.000000	0.282784	7.3724e+06	-39539.1	1005.82	-29793.5	0.000000	0.000000	6.282841	-0.037425	NaN	0.000000	0.001659	0.001714	28.0835	0.068330	0.002041	33.4756	167.288	-167.429	-0.083280	0.281472	-0.787064	-0.788377	-0.037425	33.4756	-0.786226	-2.922927E+10	1.280410E-12	NaN
751	1.000000	0.290787	7.3724e+06	-39539.1	1005.82	-29793.5	0.000000	0.000000	6.290843	-0.051878	NaN	0.000000	0.001646	0.001690	28.0836	0.063549	0.002131	29.8279	97.4742	-159.478	-0.027555	0.289457	-0.779061	-0.780392	-0.051878	29.8279	-0.777757	-2.242586E+10	2.313328E-12	NaN
751	1.000000	0.298807	7.3724e+06	-39539.1	1005.82	-29793.5	0.000000	0.000000	6.298864	-0.038430	NaN	0.000000	0.001660	0.001713	28.0834	0.061597	0.002001	30.7862	123.787	-168.434	-0.011620	0.297500	-0.771042	-0.772349	-0.038430	30.7862	-0.770105	-1.764978E+10	2.177336E-12	NaN
751	1.000000	0.306786	7.3724e+06	-39539.1	1005.82	-29793.5	0.000000	0.000000	6.306844	-0.020005	NaN	0.000000	0.001661	0.001688	28.0837	0.020921	0.001949	10.7332	136.112	-166.444	-0.030860	0.305494	-0.763062	-0.764355	-0.020005	10.7332	-0.761664	-1.355019E+10	1.476354E-12	NaN
751	1.000000	0.314796	7.3724e+06	-39539.1	1005.82	-29793.5	0.000000	0.000000	6.314853	-0.023444	NaN	0.000000	0.001675	0.001692	28.0835	0.073352	0.002112	34.7342	28.7725	-167.758	0.025265	0.313499	-0.755053	-0.756349	-0.023444	34.7342	-0.754546	-1.084173E+10	2.162394E-12	NaN
751	1.000000	0.322803	7.3724e+06	-39539.1	1005.82	-29793.5	0.000000	0.000000	6.322861	0.011096	NaN	0.000000	0.001663	0.001708	28.0833	0.056161	0.002131	26.3528	151.671	-168.353	-0.081927	0.321505	-0.747046	-0.748343	0.011096	26.3528	-0.747362	-8.655745E+9	-1.281893E-12	NaN
751	1.000000	0.330825	7.3724e+06	-39539.1	1005.82	-29793.5	0.000000	0.000000	6.330882	-0.020057	NaN	0.000000	0.001609	0.001711	28.0837	0.063903	0.001848	34.5878	-53.0644	-163.545	0.025128	0.329485	-0.739024	-0.740364	-0.020057	34.5878	-0.738589	-6.574115E+9	3.050907E-12	NaN
751	1.000000	0.338807	7.3724e+06	-39539.1	1005.82	-29793.5	0.000000	0.000000	6.338867	0.046223	NaN	0.000000	0.001631	0.001710	28.0833	0.070142	0.001924	36.4614	-129.699	-165.038	0.075709	0.337483	-0.731041	-0.732366	0.046223	36.4614	-0.731992	-5.345106E+9	-8.647760E-12	NaN
751	1.000000	0.346801	7.3724e+06	-39539.1	1005.82	-29793.5	0.000000	0.000000	6.346860	0.021080	NaN	0.000000	0.001636	0.001720	28.0825	0.142654	0.002122	67.2374	-158.159	-168.081	-0.030494	0.345488	-0.723048	-0.724361	0.021080	67.2374	-0.723283	-4.066710E+9	-5.183591E-12	NaN
751	1.000000	0.354788	7.3724e+06	-39539.1	1005.82	-29793.5	0.000000	0.000000	6.354844	-0.058897	NaN	0.000000	0.001667	0.001694	28.0821	0.063055	0.002045	30.8383	-139.792	-164.627	-0.035407	0.353440	-0.715060	-0.716408	-0.058897	30.8383	-0.713628	-3.002985E+9	1.961298E-11	NaN
751	1.000000	0.362837	7.3724e+06	-39539.1	1005.82	-29793.5	0.000000	0.000000	6.362896	0.024637	NaN	0.000000	0.001654	0.001709	28.0823	0.020124	0.001999	10.0688	-114.197	-164.368	0.137164	0.361502	-0.707011	-0.708347	0.024637	10.0688	-0.708847	-2.584088E+9	-9.534048E-12	NaN
751	1.000000	0.370786	7.3724e+06	-39539.1	1005.82	-29793.5	0.000000	0.000000	6.370842	-0.056596	NaN	0.000000	0.001721	0.001702	28.0823	0.053490	0.002064	25.9113	-58.4953	-164.546	-0.122566	0.369486	-0.699062	-0.700363	-0.056596	25.9113	-0.697424	-1.804473E+9	3.136401E-11	NaN
751	1.000000	0.378828	7.3724e+06	-39539.1	1005.82	-29793.5	0.000000	0.000000	6.378887	0.010080	NaN	0.000000	0.001693	0.001701	28.0821	0.091315	0.002087	43.7551	18.1436	-166.978	-0.055300	0.377496	-0.691021	-0.692352	0.010080	43.7551	-0.691194	-1.483298E+9	-6.795720E-12	NaN
751	1.000000	0.386822	7.3724e+06	-39539.1	1005.82	-29793.5	0.000000	0.000000	6.386881	0.004620	NaN	0.000000	0.001639	0.001719	28.0827	0.072138	0.001876	38.4507	-177.802	-165.74	0.109521	0.385543	-0.683027	-0.684306	0.004620	38.4507	-0.683117	-1.150336E+9	-4.016197E-12	NaN
751	1.000000	0.394827	7.3724e+06	-39539.1	1005.82	-29793.5	0.000000	0.000000	6.394884	-0.017048	NaN	0.000000	0.001650	0.001735	28.0822	0.131655	0.001985	66.3402	-176.978	-166.516	0.001622	0.393530	-0.675022	-0.676319	-0.017048	66.3402	-0.674829	-8.860870E+8	1.924011E-11	NaN
751	1.000000	0.402841	7.3724e+06	-39539.1	1005.82	-29793.5	0.000000	0.000000	6.402899	-0.004572	NaN	0.000000	0.001626	0.001716	28.0825	0.066727	0.001962	34.0063	78.0503	-166.723	-0.021141	0.401574	-0.667008	-0.668274	-0.004572	34.0063	-0.666907	-6.903156E+8	6.622572E-12	NaN
751	1.000000	0.410836	7.3724e+06	-39539.1	1005.82	-29793.5	0.000000	0.000000	6.410892	-0.033966	NaN	0.000000	0.001676	0.001709	28.0822	0.035881	0.001936	18.5328	-101.249	-163.576	-0.071109	0.409539	-0.659013	-0.660310	-0.033966	18.5328	-0.657638	-5.153692E+8	6.590689E-11	NaN
751	1.000000	0.418846	7.3724e+06	-39539.1	1005.82	-29793.5	0.000000	0.000000	6.418905	0.010427	NaN	0.000000	0.001667	0.001704	28.0822	0.133568	0.001914	69.7909	-45.0805	-162.905	-0.020113	0.417533	-0.651003	-0.652315	0.010427	69.7909	-0.651115	-4.194873E+8	-2.485573E-11	NaN
751	1.000000	0.426849	7.3724e+06	-39539.1	1005.82	-29793.5	0.000000	0.000000	6.426903	-0.109576	NaN	0.000000	0.001650	0.001701	28.0825	0.111438	0.002129	52.3469	85.02	-164.315	-0.044341	0.425582	-0.642999	-0.644266	-0.109576	52.3469	-0.641430	-3.089601E+8	3.546613E-10	NaN
751	1.000000	0.434840	7.3724e+06	-39539.1	1005.82	-29793.5	0.000000	0.000000	6.434900	0.049615	NaN	0.000000	0.001705	0.001688	28.0822	0.084025	0.002035	41.2943	29.7708	-166.379	0.014301	0.433620	-0.635009	-0.636228	0.049615	41.2943	-0.635910	-2.595138E+8	-1.911852E-10	NaN
751	1.000000	0.442832	7.3724e+06	-39539.1	1005.82	-29793.5	0.000000	0.000000	6.442892	0.034720	NaN	0.000000	0.001663	0.001670	28.0825	0.054271	0.002000	27.1343	-155.226	-164.559	0.044626	0.441565	-0.627017	-0.628283	0.034720	27.1343	-0.627976	-2.019443E+8	-1.719308E-10	NaN
751	1.000000	0.450861	7.3724e+06	-39539.1	1005.82	-29793.5	0.000000	0.000000	6.450919	-0.000334	NaN	0.000000	0.001667	0.001671	28.0821	0.070275	0.001936	36.3032	90.4887	-166.878	-0.035204	0.449584	-0.618988	-0.620265	-0.000334	36.3032	-0.618981	-1.519228E+8	2.196687E-12	NaN
751	1.000000	0.458886	7.3724e+06	-39539.1	1005.82	-29793.5	0.000000	0.000000	6.458947	0.055407	NaN	0.000000	0.001703	0.001706	28.0822	0.034642	0.002061	16.8117	-34.0411	-166.572	-0.075047	0.457576	-0.610962	-0.612273	0.055407	16.8117	-0.613434	-1.274547E+8	-4.347196E-10	NaN
751	1.000000	0.466829	7.3724e+06	-39539.1	1005.82	-29793.5	0.000000	0.000000	6.466885	-0.048056	NaN	0.000000	0.001693	0.001691	28.0822	0.060494	0.002054	29.4583	-25.734	-165.751	-0.109744	0.465573	-0.603020	-0.604276	-0.048056	29.4583	-0.601797	-8.814565E+7	5.451918E-10	NaN
751	1.000000	0.474856	7.3724e+06	-39539.1	1005.82	-29793.5	0.000000	0.000000	6.474913	-0.014110	NaN	0.000000	0.001663	0.001717	28.0821	0.059923	0.001943	30.8407	35.7347	-165.879	-0.008942	0.473545	-0.594993	-0.596303	-0.014110	30.8407	-0.594650	-7.026802E+7	2.007965E-10	NaN
751	1.000000	0.482860	7.3724e+06	-39539.1	1005.82	-29793.5	0.000000	0.000000	6.482917	-0.022517	NaN	0.000000	0.001678	0.001702	28.0835	0.040326	0.001989	20.2774	9.695939	-171.809	0.002662	0.481539	-0.586989	-0.588310	-0.022517	20.2774	-0.586156	-5.366153E+7	4.196035E-10	NaN
751	1.000000	0.490858	7.3724e+06	-39539.1	1005.82	-29793.5	0.000000	0.000000	6.490916	0.010253	NaN	0.000000	0.001674	0.001705	28.0834	0.086851	0.002091	41.5309	-33.3969	-169.521	-0.043223	0.489554	-0.578991	-0.580294	0.010253	41.5309	-0.579176	-4.298900E+7	-2.385049E-10	NaN
751	1.000000	0.498868	7.3724e+06	-39539.1	1005.82	-29793.5	0.000000	0.000000	6.498927	0.026370	NaN	0.000000	0.001646	0.001725	28.0835	0.040279	0.002002	20.1162	160.84	-168.827	0.046560	0.497578	-0.570981	-0.572271	0.026370	20.1162	-0.571964	-3.417957E+7	-7.715201E-10	NaN
751	1.000000	0.506853	7.3724e+06	-39539.1	1005.82	-29793.5	0.000000	0.000000	6.506911	-0.025663	NaN	0.000000	0.001683	0.001697	28.0835	0.102080	0.001934	52.7759	63.1229	-165.729	0.020137	0.505621	-0.562995	-0.564227	-0.025663	52.7759	-0.562631	-2.539583E+7	1.010536E-9	NaN
751	1.000000	0.514888	7.3724e+06	-39539.1	1005.82	-29793.5	0.000000	0.000000	6.514947	0.015161	NaN	0.000000	0.001629	0.001717	28.0833	0.050881	0.002063	24.6614	127.733	-165.191	-0.008420	0.513586	-0.554961	-0.556263	0.015161	24.6614	-0.555422	-2.018498E+7	-7.511027E-10	NaN
751	1.000000	0.522898	7.3724e+06	-39539.1	1005.82	-29793.5	0.000000	0.000000	6.522955	-0.040299	NaN	0.000000	0.001645	0.001734	28.0835	0.060593	0.001923	31.5143	-126.204	-167.482	-0.125019	0.521524	-0.546951	-0.548324	-0.040299	31.5143	-0.545992	-1.494248E+7	2.696914E-9	NaN
751	1.000000	0.530882	7.3724e+06	-39539.1	1005.82	-29793.5	0.000000	0.000000	6.530940	0.013873	NaN	0.000000	0.001619	0.001719	28.0833	0.093058	0.002000	46.5299	45.8509	-163.217	0.072469	0.529645	-0.538967	-0.540203	0.013873	46.5299	-0.539191	-1.202636E+7	-1.153549E-9	NaN
751	1.000000	0.538894	7.3724e+06	-39539.1	1005.82	-29793.5	0.000000	0.000000	6.538953	0.036703	NaN	0.000000	0.001624	0.001704	28.0837	0.050552	0.002006	25.201	-103.698	-166.322	-0.029600	0.537577	-0.530955	-0.532272	0.036703	25.201	-0.532047	-9.57199e+06	-3.834393E-9	NaN
751	1.000000	0.546913	7.3724e+06	-39539.1	1005.82	-29793.5	0.000000	0.000000	6.546973	0.041360	NaN	0.000000	0.001635	0.001692	28.0833	0.093924	0.002049	45.8388	118.549	-161.328	-0.033540	0.545592	-0.522936	-0.524256	0.041360	45.8388	-0.523612	-7.30843e+06	-5.659259E-9	NaN
751	1.000000	0.554865	7.3724e+06	-39539.1	1005.82	-29793.5	0.000000	0.000000	6.554922	-0.041267	NaN	0.000000	0.001653	0.001720	28.0831	0.143795	0.001985	72.456	-177.639	-169.397	-0.024419	0.553586	-0.514983	-0.516263	-0.041267	72.456	-0.514556	-5.46835e+06	7.546451E-9	NaN
751	1.000000	0.562910	7.3724e+06	-39539.1	1005.82	-29793.5	0.000000	0.000000	6.562968	-0.019085	NaN	0.000000	0.001632	0.001703	28.0832	0.040311	0.002028	19.8783	72.4638	-166.213	-0.022074	0.561578	-0.506939	-0.508271	-0.019085	19.8783	-0.506218	-4.18531e+06	4.560062E-9	NaN
751	1.000000	0.570933	7.3724e+06	-39539.1	1005.82	-29793.5	0.000000	0.000000	6.570992	0.021136	NaN	0.000000	0.001573	0.001709	28.0834	0.053936	0.002032	26.5451	-94.3443	-165.32	-0.047656	0.569677	-0.498915	-0.500171	0.021136	26.5451	-0.499513	-3.37457e+06	-6.263375E-9	NaN
751	1.000000	0.578907	7.3724e+06	-39539.1	1005.82	-29793.5	0.000000	0.000000	6.578969	0.082436	NaN	0.000000	0.001566	0.001681	28.0836	0.083974	0.001970	42.6244	124.203	-168.864	0.108714	0.577604	-0.490941	-0.492245	0.082436	42.6244	-0.492392	-2.68416e+06	-3.071198E-8	NaN
751	1.000000	0.586932	7.3724e+06	-39539.1	1005.82	-29793.5	0.000000	0.000000	6.586991	0.022443	NaN	0.000000	0.001597	0.001707	28.0835	0.090955	0.001904	47.7822	-87.7435	-165.85	0.088866	0.585586	-0.482917	-0.484263	0.022443	47.7822	-0.483269	-2.00114e+06	-1.121519E-8	NaN
751	1.000000	0.594913	7.3724e+06	-39539.1	1005.82	-29793.5	0.000000	0.000000	6.594969	-0.040131	NaN	0.000000	0.001583	0.001722	28.0838	0.072173	0.002134	33.8281	-136.35	-166.649	0.055224	0.593619	-0.474936	-0.476230	-0.040131	33.8281	-0.474046	-1.48639e+06	2.699909E-8	NaN
751	1.000000	0.602914	7.3724e+06	-39539.1	1005.82	-29793.5	0.000000	0.000000	6.602969	-0.064596	NaN	0.000000	0.001588	0.001695	28.0836	0.050346	0.001971	25.5433	-152.962	-165.937	-0.070851	0.601691	-0.466935	-0.468158	-0.064596	25.5433	-0.465038	-1.11118e+06	5.813346E-8	NaN
751	1.000000	0.610924	7.3724e+06	-39539.1	1005.82	-29793.5	0.000000	0.000000	6.610982	0.013186	NaN	0.000000	0.001586	0.001737	28.0838	0.085176	0.001928	44.1777	52.5933	-166.3	-0.076667	0.609587	-0.458925	-0.460262	0.013186	44.1777	-0.459149	-918455	-1.435700E-8	NaN
751	1.000000	0.618960	7.3724e+06	-39539.1	1005.82	-29793.5	0.000000	0.000000	6.619016	-0.064683	NaN	0.000000	0.001652	0.001691	28.0826	0.111316	0.002009	55.4037	144.807	-166.931	-0.130429	0.617575	-0.450888	-0.452273	-0.064683	55.4037	-0.450013	-683162	9.468145E-8	NaN
751	1.000000	0.626947	7.3724e+06	-39539.1	1005.82	-29793.5	0.000000	0.000000	6.627006	0.008889	NaN	0.000000	0.001681	0.001722	28.0821	0.139132	0.002065	67.3777	125.403	-163.904	-0.049845	0.625615	-0.442901	-0.444234	0.008889	67.3777	-0.443000	-544117	-1.633740E-8	NaN
751	1.000000	0.634966	7.3724e+06	-39539.1	1005.82	-29793.5	0.000000	0.000000	6.635025	0.027463	NaN	0.000000	0.001649	0.001746	28.0827	0.066617	0.001879	35.453	49.2451	-167.183	-0.004906	0.633654	-0.434883	-0.436195	0.027463	35.453	-0.435464	-425902	-6.448151E-8	NaN
751	1.000000	0.642927	7.3724e+06	-39539.1	1005.82	-29793.5	0.000000	0.000000	6.642984	-0.018275	NaN	0.000000	0.001654	0.001749	28.0822	0.076316	0.002005	38.0696	-66.7541	-165.922	0.011962	0.641662	-0.426922	-0.428187	-0.018275	38.0696	-0.426562	-318713	5.734081E-8	NaN
751	1.000000	0.650973	7.3724e+06	-39539.1	1005.82	-29793.5	0.000000	0.000000	6.651030	-0.035961	NaN	0.000000	0.001632	0.001731	28.0825	0.030361	0.001926	15.7666	-58.3885	-163.668	-0.026687	0.649591	-0.418876	-0.420258	-0.035961	15.7666	-0.417165	-234527	1.533350E-7	NaN
751	1.000000	0.658958	7.3724e+06	-39539.1	1005.82	-29793.5	0.000000	0.000000	6.659016	0.004127	NaN	0.000000	0.001634	0.001671	28.0824	0.051035	0.002049	24.905	-159.337	-168.032	0.028367	0.657644	-0.410891	-0.412205	0.004127	24.905	-0.411015	-191793	-2.152015E-8	NaN
751	1.000000	0.666925	7.3724e+06	-39539.1	1005.82	-29793.5	0.000000	0.000000	6.666986	0.059073	NaN	0.000000	0.001620	0.001724	28.0823	0.024482	0.002029	12.0652	61.3511	-166.58	-0.026700	0.665660	-0.402924	-0.404189	0.059073	12.0652	-0.406596	-165947	-3.559753E-7	NaN
751	1.000000	0.674969	7.3724e+06	-39539.1	1005.82	-29793.5	0.000000	0.000000	6.675026	-0.031586	NaN	0.000000	0.001638	0.001699	28.0827	0.072348	0.002088	34.6549	-139.661	-166.694	-0.073208	0.673649	-0.394879	-0.396199	-0.031586	34.6549	-0.394196	-110445	2.859929E-7	NaN
751	1.000000	0.682956	7.3724e+06	-39539.1	1005.82	-29793.5	0.000000	0.000000	6.683012	-0.039579	NaN	0.000000	0.001656	0.001714	28.0823	0.039653	0.002018	19.6516	13.643	-167.233	-0.025144	0.681685	-0.386893	-0.388164	-0.039579	19.6516	-0.385382	-82615.7	4.790676E-7	NaN
751	1.000000	0.690954	7.3724e+06	-39539.1	1005.82	-29793.5	0.000000	0.000000	6.691013	0.014873	NaN	0.000000	0.001674	0.001685	28.0825	0.075087	0.001914	39.2394	50.3456	-163.583	0.001408	0.689676	-0.378894	-0.380172	0.014873	39.2394	-0.379179	-67313.4	-2.209460E-7	NaN
751	1.000000	0.698971	7.3724e+06	-39539.1	1005.82	-29793.5	0.000000	0.000000	6.699029	-0.009309	NaN	0.000000	0.001634	0.001709	28.0824	0.065785	0.001978	33.2522	-151.745	-166.909	-0.051075	0.697696	-0.370878	-0.372152	-0.009309	33.2522	-0.370668	-50786	1.832960E-7	NaN
751	1.000000	0.706984	7.3724e+06	-39539.1	1005.82	-29793.5	0.000000	0.000000	6.707044	0.045263	NaN	0.000000	0.001659	0.001718	28.0823	0.070630	0.001957	36.095	115.304	-163.176	0.030446	0.705699	-0.362865	-0.364149	0.045263	36.095	-0.363805	-40439.8	-1.119267E-6	NaN
751	1.000000	0.714962	7.3724e+06	-39539.1	1005.82	-29793.5	0.000000	0.000000	6.715019	-0.020069	NaN	0.000000	0.001641	0.001700	28.0829	0.009930	0.002042	4.863655	125.477	-163.822	-0.101282	0.713679	-0.354887	-0.356170	-0.020069	4.863655	-0.351792	-27102.1	7.405076E-7	NaN
751	1.000000	0.722962	7.3724e+06	-39539.1	1005.82	-29793.5	0.000000	0.000000	6.723021	0.031966	NaN	0.000000	0.001612	0.001730	28.0824	0.092311	0.002039	45.2641	-155.992	-167.342	-0.083605	0.721643	-0.346887	-0.348206	0.031966	45.2641	-0.347417	-23414.6	-1.365200E-6	NaN
751	1.000000	0.730964	7.3724e+06	-39539.1	1005.82	-29793.5	0.000000	0.000000	6.731023	0.014786	NaN	0.000000	0.001593	0.001779	28.0825	0.108338	0.001950	55.5659	-31.6405	-167.221	-0.022968	0.729623	-0.338884	-0.340226	0.014786	55.5659	-0.339084	-17709.2	-8.349551E-7	NaN
751	1.000000	0.739009	7.3724e+06	-39539.1	1005.82	-29793.5	0.000000	0.000000	6.739065	-0.044068	NaN	0.000000	0.001608	0.001739	28.0823	0.102864	0.001967	52.287	37.4782	-168.363	-0.004653	0.737672	-0.330840	-0.332177	-0.044068	52.287	-0.330208	-13137	3.354506E-6	NaN
751	1.000000	0.746974	7.3724e+06	-39539.1	1005.82	-29793.5	0.000000	0.000000	6.747034	0.047817	NaN	0.000000	0.001623	0.001744	28.0823	0.039630	0.002060	19.2411	-43.065	-167.76	0.044026	0.745733	-0.322875	-0.324115	0.047817	19.2411	-0.324739	-10922	-4.378054E-6	NaN
751	1.000000	0.754980	7.3724e+06	-39539.1	1005.82	-29793.5	0.000000	0.000000	6.755036	-0.045866	NaN	0.000000	0.001617	0.001699	28.0839	0.091571	0.001951	46.9264	-69.3728	-166.908	-0.048401	0.753716	-0.314869	-0.316133	-0.045866	46.9264	-0.314136	-7624.14	6.015908E-6	NaN
751	1.000000	0.762986	7.3724e+06	-39539.1	1005.82	-29793.5	0.000000	0.000000	6.763043	-0.009623	NaN	0.000000	0.001621	0.001731	28.0836	0.176487	0.001959	90.102	-96.4428	-166.689	0.011438	0.761693	-0.306863	-0.308155	-0.009623	90.102	-0.306783	-5934.77	1.621525E-6	NaN
751	1.000000	0.771004	7.3724e+06	-39539.1	1005.82	-29793.5	0.000000	0.000000	6.771064	0.029301	NaN	0.000000	0.001619	0.001697	28.0836	0.120032	0.001956	61.3545	-149.731	-165.466	-0.008777	0.769720	-0.298844	-0.300129	0.029301	61.3545	-0.299203	-4578.91	-6.399182E-6	NaN
751	1.000000	0.779027	7.3724e+06	-39539.1	1005.82	-29793.5	0.000000	0.000000	6.779084	-0.022193	NaN	0.000000	0.001680	0.001729	28.0836	0.058765	0.002037	28.8504	100.264	-164.746	0.095279	0.777673	-0.290822	-0.292176	-0.022193	28.8504	-0.290245	-3364.9	6.595563E-6	NaN
751	1.000000	0.786983	7.3724e+06	-39539.1	1005.82	-29793.5	0.000000	0.000000	6.787040	-0.022130	NaN	0.000000	0.001644	0.001735	28.0835	0.092730	0.002023	45.8471	-50.3029	-170.778	-0.052685	0.785623	-0.282866	-0.284226	-0.022130	45.8471	-0.282504	-2574.59	8.595705E-6	NaN
751	1.000000	0.794991	7.3724e+06	-39539.1	1005.82	-29793.5	0.000000	0.000000	6.795050	0.008893	NaN	0.000000	0.001633	0.001723	28.0838	0.114704	0.001978	57.9778	-114.17	-165.882	0.016061	0.793621	-0.274857	-0.276228	0.008893	57.9778	-0.274972	-1981.45	-4.488060E-6	NaN
751	1.000000	0.803001	7.3724e+06	-39539.1	1005.82	-29793.5	0.000000	0.000000	6.803061	0.041238	NaN	0.000000	0.001654	0.001725	28.0835	0.056670	0.001898	29.8539	-69.0172	-164.943	0.070732	0.801708	-0.266847	-0.268141	0.041238	29.8539	-0.267883	-1546.47	-2.666580E-5	NaN
751	1.000000	0.811009	7.3724e+06	-39539.1	1005.82	-29793.5	0.000000	0.000000	6.811069	0.032275	NaN	0.000000	0.001646	0.001706	28.0838	0.068347	0.001940	35.2259	-145.232	-163.825	0.036195	0.809725	-0.258839	-0.260124	0.032275	35.2259	-0.259526	-1152.54	-2.800360E-5	NaN
751	1.000000	0.819045	7.3724e+06	-39539.1	1005.82	-29793.5	0.000000	0.000000	6.819106	0.058120	NaN	0.000000	0.001620	0.001721	28.0835	0.038142	0.002114	18.0443	13.4558	-166.128	0.049425	0.817663	-0.250803	-0.252185	0.058120	18.0443	-0.253219	-921.889	-6.304401E-5	NaN
751	1.000000	0.826999	7.3724e+06	-39539.1	1005.82	-29793.5	0.000000	0.000000	6.827054	-0.072977	NaN	0.000000	0.001643	0.001710	28.0838	0.070649	0.001890	37.3748	-173.849	-166.43	-0.103645	0.825729	-0.242850	-0.244120	-0.072977	37.3748	-0.241385	-604.19	0.000121	NaN
751	1.000000	0.835012	7.3724e+06	-39539.1	1005.82	-29793.5	0.000000	0.000000	6.835068	-0.048078	NaN	0.000000	0.001581	0.001693	28.0837	0.093346	0.001909	48.8986	149.133	-166.765	-0.034475	0.833747	-0.234837	-0.236102	-0.048078	48.8986	-0.234099	-464.617	0.000103	NaN
751	1.000000	0.843001	7.3724e+06	-39539.1	1005.82	-29793.5	0.000000	0.000000	6.843061	0.025568	NaN	0.000000	0.001649	0.001698	28.0836	0.062954	0.001929	32.6332	115.13	-164.367	0.098909	0.841735	-0.226847	-0.228113	0.025568	32.6332	-0.227435	-364.714	-7.010541E-5	NaN
751	1.000000	0.851040	7.3724e+06	-39539.1	1005.82	-29793.5	0.000000	0.000000	6.851098	-0.003053	NaN	0.000000	0.001603	0.001734	28.0835	0.111827	0.001961	57.0258	-19.1636	-169.563	0.031106	0.849745	-0.218809	-0.220104	-0.003053	57.0258	-0.218769	-265.452	1.150173E-5	NaN
751	1.000000	0.859033	7.3724e+06	-39539.1	1005.82	-29793.5	0.000000	0.000000	6.859088	-0.070811	NaN	0.000000	0.001563	0.001746	28.0835	0.047381	0.002010	23.5698	-77.9122	-169.358	0.011542	0.857675	-0.210816	-0.212174	-0.070811	23.5698	-0.208562	-181.767	0.000390	NaN
751	1.000000	0.867027	7.3724e+06	-39539.1	1005.82	-29793.5	0.000000	0.000000	6.867087	0.044123	NaN	0.000000	0.001523	0.001743	28.0838	0.047269	0.001970	23.9924	88.5462	-165.388	0.026119	0.865688	-0.202821	-0.204161	0.044123	23.9924	-0.204201	-154.352	-0.000286	NaN
751	1.000000	0.875053	7.3724e+06	-39539.1	1005.82	-29793.5	0.000000	0.000000	6.875114	0.076651	NaN	0.000000	0.001564	0.001779	28.0835	0.085065	0.001964	43.3032	114.788	-167.498	0.046522	0.873766	-0.194796	-0.196083	0.076651	43.3032	-0.196124	-113.71	-0.000674	NaN
751	1.000000	0.883047	7.3724e+06	-39539.1	1005.82	-29793.5	0.000000	0.000000	6.883105	-0.016727	NaN	0.000000	0.001579	0.001783	28.0837	0.097789	0.002035	48.0538	14.6438	-166.316	-0.085462	0.881747	-0.186801	-0.188102	-0.016727	48.0538	-0.186540	-78.7152	0.000212	NaN
751	1.000000	0.891025	7.3724e+06	-39539.1	1005.82	-29793.5	0.000000	0.000000	6.891084	0.023915	NaN	0.000000	0.001578	0.001775	28.0825	0.046356	0.002048	22.6355	142.472	-167.757	0.016455	0.889727	-0.178824	-0.180122	0.023915	22.6355	-0.179616	-60.1083	-0.000398	NaN
751	1.000000	0.899057	7.3724e+06	-39539.1	1005.82	-29793.5	0.000000	0.000000	6.899115	0.004849	NaN	0.000000	0.001564	0.001761	28.0823	0.043575	0.001950	22.35	-13.7492	-167.874	-0.028546	0.897779	-0.170792	-0.172070	0.004849	22.35	-0.170955	-42.6749	-0.000114	NaN
751	1.000000	0.907069	7.3724e+06	-39539.1	1005.82	-29793.5	0.000000	0.000000	6.907125	-0.053552	NaN	0.000000	0.001555	0.001713	28.0824	0.078147	0.002029	38.5174	126.246	-167.166	-0.027715	0.905761	-0.162779	-0.164088	-0.053552	38.5174	-0.161737	-29.4293	0.001820	NaN
751	1.000000	0.915035	7.3724e+06	-39539.1	1005.82	-29793.5	0.000000	0.000000	6.915093	-0.002273	NaN	0.000000	0.001565	0.001744	28.0821	0.112475	0.001943	57.8744	-145.794	-165.251	0.015230	0.913732	-0.154813	-0.156116	-0.002273	57.8744	-0.154784	-22.1153	0.000103	NaN
751	1.000000	0.923049	7.3724e+06	-39539.1	1005.82	-29793.5	0.000000	0.000000	6.923105	-0.059831	NaN	0.000000	0.001574	0.001716	28.0825	0.025136	0.002095	11.9978	93.6201	-166.16	-0.088924	0.921708	-0.146800	-0.148141	-0.059831	11.9978	-0.143059	-13.4947	0.004434	NaN
751	1.000000	0.931031	7.3724e+06	-39539.1	1005.82	-29793.5	0.000000	0.000000	6.931087	-0.046022	NaN	0.000000	0.001557	0.001728	28.0822	0.048085	0.002215	21.7063	52.6362	-166.076	-0.023058	0.929751	-0.138818	-0.140098	-0.046022	21.7063	-0.137227	-10.4871	0.004388	NaN
751	1.000000	0.939067	7.3724e+06	-39539.1	1005.82	-29793.5	0.000000	0.000000	6.939125	-0.008670	NaN	0.000000	0.001573	0.001769	28.0823	0.056416	0.001980	28.4951	-2.111261	-164.894	-0.043288	0.937755	-0.130781	-0.132094	-0.008670	28.4951	-0.130553	-7.811728	0.001110	NaN
751	1.000000	0.947020	7.3724e+06	-39539.1	1005.82	-29793.5	0.000000	0.000000	6.947079	0.024722	NaN	0.000000	0.001596	0.001700	28.0824	0.087711	0.001974	44.4337	50.7615	-165.673	-0.029901	0.945686	-0.122829	-0.124163	0.024722	44.4337	-0.123246	-5.612635	-0.004405	NaN
751	1.000000	0.955068	7.3724e+06	-39539.1	1005.82	-29793.5	0.000000	0.000000	6.955124	-0.057441	NaN	0.000000	0.001582	0.001730	28.0822	0.071441	0.001993	35.8381	-116.889	-166.049	-0.058320	0.953783	-0.114781	-0.116066	-0.057441	35.8381	-0.113578	-3.570336	0.016088	NaN
751	1.000000	0.963071	7.3724e+06	-39539.1	1005.82	-29793.5	0.000000	0.000000	6.963128	-0.026217	NaN	0.000000	0.001605	0.001755	28.0827	0.041112	0.001972	20.8462	-139.189	-166.938	-0.029015	0.961770	-0.106778	-0.108079	-0.026217	20.8462	-0.105835	-2.450012	0.010701	NaN
751	1.000000	0.971095	7.3724e+06	-39539.1	1005.82	-29793.5	0.000000	0.000000	6.971153	0.000321	NaN	0.000000	0.001618	0.001770	28.0823	0.063790	0.002110	30.2331	5.610854	-165.588	0.026003	0.969740	-0.098754	-0.100109	0.000321	30.2331	-0.098762	-1.714901	-0.000187	NaN
751	1.000000	0.979085	7.3724e+06	-39539.1	1005.82	-29793.5	0.000000	0.000000	6.979144	0.025208	NaN	0.000000	0.001634	0.001783	28.0823	0.105539	0.001996	52.8655	104.701	-166.879	0.042494	0.977773	-0.090764	-0.092075	0.025208	52.8655	-0.091122	-1.148282	-0.021952	NaN
751	1.000000	0.987085	7.3724e+06	-39539.1	1005.82	-29793.5	0.000000	0.000000	6.987141	-0.041140	NaN	0.000000	0.001594	0.001740	28.0824	0.050237	0.001990	25.2392	-108.095	-167.206	-0.005280	0.985766	-0.082764	-0.084082	-0.041140	25.2392	-0.081542	-0.676140	0.060846	NaN
751	1.000000	0.995084	7.3724e+06	-39539.1	1005.82	-29793.5	0.000000	0.000000	6.995142	-0.002744	NaN	0.000000	0.001654	0.001730	28.0822	0.126685	0.002133	59.386	-92.9347	-165.778	0.007941	0.993794	-0.074765	-0.076055	-0.002744	59.386	-0.074730	-0.454496	0.006038	NaN
751	1.000000	1.003091	7.3724e+06	-39539.1	1005.82	-29793.5	0.000000	0.000000	7.003149	-0.012244	NaN	0.000000	0.001627	0.001720	28.0828	0.060888	0.001887	32.259	-91.81	-164.482	0.035824	1.001735	-0.066758	-0.068113	-0.012244	32.259	-0.066473	-0.273673	0.044741	NaN
751	1.000000	1.011093	7.3724e+06	-39539.1	1005.82	-29793.5	0.000000	0.000000	7.011150	-0.035157	NaN	0.000000	0.001587	0.001743	28.0822	0.048737	0.001946	25.0421	148.515	-165.878	-0.025288	1.009765	-0.058756	-0.060083	-0.035157	25.0421	-0.057703	-0.154568	0.227454	NaN
751	1.000000	1.019082	7.3724e+06	-39539.1	1005.82	-29793.5	0.000000	0.000000	7.019142	0.044835	NaN	0.000000	0.001615	0.001686	28.0825	0.095107	0.002185	43.5267	-107.045	-161.814	0.002375	1.017744	-0.050766	-0.052105	0.044835	43.5267	-0.051539	-0.101540	-0.441555	NaN
751	1.000000	1.027059	7.3724e+06	-39539.1	1005.82	-29793.5	0.000000	0.000000	7.027117	-0.014901	NaN	0.000000	0.001590	0.001743	28.0832	0.003918	0.002035	1.925344	-101.891	-168.378	0.018122	1.025721	-0.042790	-0.044127	-0.014901	1.925344	-0.036985	-0.036678	0.406269	NaN
751	1.000000	1.035095	7.3724e+06	-39539.1	1005.82	-29793.5	0.000000	0.000000	7.035153	-0.016433	NaN	0.000000	0.001627	0.001710	28.0836	0.046050	0.001831	25.1514	169.012	-161.542	-0.035521	1.033821	-0.034754	-0.036028	-0.016433	25.1514	-0.034264	-0.030469	0.539334	NaN
751	1.000000	1.043138	7.3724e+06	-39539.1	1005.82	-29793.5	0.000000	0.000000	7.043193	-0.075823	NaN	0.000000	0.001643	0.001711	28.0837	0.044828	0.002015	22.2438	172.117	-163.562	-0.050755	1.041840	-0.026711	-0.028008	-0.075823	22.2438	-0.024155	-0.016038	4.727842	NaN
751	1.000000	1.051101	7.3724e+06	-39539.1	1005.82	-29793.5	0.000000	0.000000	7.051156	-0.086023	NaN	0.000000	0.001613	0.001730	28.0835	0.068971	0.002039	33.8226	-28.5882	-169.541	-0.090320	1.049811	-0.018748	-0.020037	-0.086023	33.8226	-0.016840	-0.010409	8.264529	NaN
751	1.000000	1.059104	7.3724e+06	-39539.1	1005.82	-29793.5	0.000000	0.000000	7.059164	0.029409	NaN	0.000000	0.001649	0.001717	28.0839	0.136923	0.001956	69.991	16.6055	-164.693	0.034523	1.057777	-0.010744	-0.012071	0.029409	69.991	-0.011059	-0.006992	-4.206120	NaN
751	1.000000	1.067125	7.3724e+06	-39539.1	1005.82	-29793.5	0.000000	0.000000	7.067181	-0.057814	NaN	0.000000	0.001629	0.001741	28.0834	0.057390	0.002028	28.2951	38.3025	-167.468	-0.090401	1.065805	-0.002724	-0.004043	-0.057814	28.2951	-0.001192	-0.000870	66.4191	NaN
751	1.000000	1.074990	7.3724e+06	-39539.1	1005.82	-29793.5	0.000000	0.000000	7.075380	8.052905	NaN	0.000000	0.001632	0.001747	28.0833	7.106478	0.001802	3944.71	7.256158	-166.638	6.647990	1.073752	0.005142	0.003904	8.052905	3944.71	0.003611	0.002900	2776.52	66921
751	2.000000	1.077688	7.37241e+06	-39539.1	1005.82	-29793.5	0.000000	0.000000	7.078170	10.316	NaN	0.000000	0.001634	0.001784	28.0834	9.907726	0.001570	6312.65	3.288690	-173	9.394316	1.077388	0.007839	0.007539	10.316	6312.65	0.006614	0.005655	1824.24	76695.4
751	2.000000	1.079670	7.37241e+06	-39539.1	1005.82	-29793.5	0.000000	0.000000	7.080375	15.7449	NaN	0.000000	0.001643	0.001708	28.0833	11.727	0.001617	7253.25	3.346220	-171.858	13.9647	1.079342	0.009821	0.009494	15.7449	7253.25	0.008193	0.007241	2174.3	77874.5
751	2.000000	1.081689	7.37241e+06	-39539.1	1005.82	-29793.5	0.000000	0.000000	7.082412	16.1753	NaN	0.000000	0.001603	0.001723	28.0836	14.6443	0.001758	8328.78	9.802167	-179.273	16.9206	1.081352	0.011840	0.011504	16.1753	8328.78	0.010383	0.009611	1683.04	77620.3
751	2.000000	1.083659	7.37241e+06	-39539.1	1005.82	-29793.5	0.000000	0.000000	7.084543	20.0861	NaN	0.000000	0.001622	0.001747	28.0836	16.6812	0.001764	9457.5	5.428367	-177.957	19.215	1.083417	0.013811	0.013568	20.0861	9457.5	0.012218	0.011752	1709.17	79706.8
751	2.000000	1.085640	7.37241e+06	-39539.1	1005.82	-29793.5	0.000000	0.000000	7.086671	23.652	NaN	0.000000	0.001587	0.001708	28.0838	18.1994	0.001839	9895.62	4.839673	-175.591	22.4759	1.085304	0.015792	0.015456	23.652	9895.62	0.013999	0.013974	1692.58	76481.7
751	2.000000	1.087698	7.37241e+06	-39539.1	1005.82	-29793.5	0.000000	0.000000	7.088869	27.0833	NaN	0.000000	0.001611	0.001746	28.0835	19.8708	0.001724	11524.2	4.450531	-176.824	29.5989	1.087395	0.017849	0.017547	27.0833	11524.2	0.016086	0.016761	1615.82	81325.6
751	2.000000	1.089602	7.37241e+06	-39539.1	1005.82	-29793.5	0.000000	0.000000	7.091154	36.3485	NaN	0.000000	0.001640	0.001757	28.0833	20.7313	0.001736	11941.3	2.812811	-175.626	34.5983	1.089324	0.019753	0.019475	36.3485	11941.3	0.017470	0.018722	1941.52	79735.7
751	2.000000	1.091565	7.37241e+06	-39539.1	1005.82	-29793.5	0.000000	0.000000	7.093148	37.1086	NaN	0.000000	0.001623	0.001715	28.0836	23.667	0.001731	13672.4	5.565590	-179.774	35.5071	1.091305	0.021716	0.021457	37.1086	13672.4	0.019680	0.022043	1683.49	84136.7
751	2.000000	1.093621	7.37241e+06	-39539.1	1005.82	-29793.5	0.000000	0.000000	7.095456	43.2538	NaN	0.000000	0.001633	0.001739	28.0835	25.7582	0.001883	13681.2	6.659820	-179.926	41.9389	1.093261	0.023772	0.023412	43.2538	13681.2	0.021401	0.024792	1744.69	79385.8
751	2.000000	1.095628	7.37241e+06	-39539.1	1005.82	-29793.5	0.000000	0.000000	7.097531	44.8981	NaN	0.000000	0.001625	0.001739	28.0837	27.1264	0.001775	15280	5.182250	179.233	44.4932	1.095316	0.025779	0.025468	44.8981	15280	0.023576	0.028475	1576.75	82729.9
751	2.000000	1.097606	7.37241e+06	-39539.1	1005.82	-29793.5	0.000000	0.000000	7.099619	47.5598	NaN	0.000000	0.001604	0.001738	28.0829	29.3177	0.001790	16381.7	6.913549	177.352	47.1905	1.097394	0.027757	0.027546	47.5598	16381.7	0.025580	0.032079	1482.58	83564.6
751	2.000000	1.099665	7.37241e+06	-39539.1	1005.82	-29793.5	0.000000	0.000000	7.101835	51.3982	NaN	0.000000	0.001612	0.001733	28.0821	30.6918	0.002015	15229.1	10.5539	176.091	55.1167	1.099315	0.029816	0.029466	51.3982	15229.1	0.027285	0.035304	1455.86	74051.3
751	2.000000	1.101634	7.37241e+06	-39539.1	1005.82	-29793.5	0.000000	0.000000	7.104136	59.4752	NaN	0.000000	0.001646	0.001733	28.0823	32.1287	0.001761	18247.2	4.465254	179.075	59.4975	1.101302	0.031785	0.031453	59.4752	18247.2	0.029341	0.039388	1509.97	84001.3
751	2.000000	1.103591	7.37241e+06	-39539.1	1005.82	-29793.5	0.000000	0.000000	7.106273	63.8553	NaN	0.000000	0.001642	0.001771	28.0822	33.9307	0.001798	18866.2	1.268352	-178.17	62.4956	1.103252	0.033742	0.033404	63.8553	18866.2	0.031204	0.043276	1475.55	82858.3
751	2.000000	1.105636	7.37241e+06	-39539.1	1005.82	-29793.5	0.000000	0.000000	7.108398	65.7888	NaN	0.000000	0.001627	0.001792	28.0829	35.805	0.001865	19195	6.194568	176.9	68.8674	1.105347	0.035787	0.035498	65.7888	19195	0.033217	0.047675	1379.94	80318.4
751	2.000000	1.107601	7.37241e+06	-39539.1	1005.82	-29793.5	0.000000	0.000000	7.110709	74.237	NaN	0.000000	0.001630	0.001775	28.0821	37.2874	0.001881	19826.1	8.024040	175.571	75.1564	1.107247	0.037752	0.037398	74.237	19826.1	0.034944	0.051615	1438.29	79730.1
751	2.000000	1.109593	7.37241e+06	-39539.1	1005.82	-29793.5	0.000000	0.000000	7.113030	82.2199	NaN	0.000000	0.001598	0.001758	28.0823	38.9311	0.001826	21321.6	11.75	171.68	82.8968	1.109215	0.039744	0.039366	82.2199	21321.6	0.036852	0.056147	1464.37	82210.9
751	2.000000	1.111583	7.37241e+06	-39539.1	1005.82	-29793.5	0.000000	0.000000	7.115256	87.9669	NaN	0.000000	0.001599	0.001738	28.0822	40.4544	0.001802	22447.3	4.922306	177.235	87.724	1.111311	0.041734	0.041463	87.9669	22447.3	0.038795	0.060952	1443.21	83069.8
751	2.000000	1.113634	7.37241e+06	-39539.1	1005.82	-29793.5	0.000000	0.000000	7.117581	94.6319	NaN	0.000000	0.001604	0.001757	28.082	42.2626	0.001826	23146.7	4.377493	179.087	94.8234	1.113311	0.043786	0.043462	94.6319	23146.7	0.040720	0.065901	1435.97	82378.9
751	2.000000	1.115543	7.37241e+06	-39539.1	1005.82	-29793.5	0.000000	0.000000	7.119868	103.848	NaN	0.000000	0.001601	0.001752	28.0831	43.6646	0.001730	25244.4	6.458926	175.012	102.704	1.115191	0.045694	0.045343	103.848	25244.4	0.042609	0.070944	1463.8	86592.6
751	2.000000	1.117593	7.37241e+06	-39539.1	1005.82	-29793.5	0.000000	0.000000	7.122037	106.739	NaN	0.000000	0.001617	0.001726	28.0821	47.0039	0.001858	25296.8	4.301042	177.14	106.371	1.117300	0.047744	0.047451	106.739	25296.8	0.044580	0.076399	1397.13	83617.2
751	2.000000	1.119573	7.37241e+06	-39539.1	1005.82	-29793.5	0.000000	0.000000	7.124355	114.953	NaN	0.000000	0.001606	0.001735	28.0823	46.8671	0.001647	28455.3	2.172385	177.82	115.051	1.119282	0.049725	0.049433	114.953	28455.3	0.046695	0.082472	1393.84	90528.3
751	2.000000	1.121576	7.37241e+06	-39539.1	1005.82	-29793.5	0.000000	0.000000	7.126643	121.892	NaN	0.000000	0.001592	0.001741	28.0823	49.437	0.001700	29075	4.205004	176.048	121.834	1.121266	0.051728	0.051417	121.892	29075	0.048583	0.088085	1383.81	89504.3
751	2.000000	1.123602	7.37241e+06	-39539.1	1005.82	-29793.5	0.000000	0.000000	7.128993	129.754	NaN	0.000000	0.001595	0.001745	28.082	51.9213	0.001876	27681.9	3.853437	176.749	128.607	1.123230	0.053754	0.053381	129.754	27681.9	0.050238	0.093151	1392.94	82866
751	2.000000	1.125550	7.37241e+06	-39539.1	1005.82	-29793.5	0.000000	0.000000	7.131175	135.466	NaN	0.000000	0.001579	0.001740	28.0828	53.5587	0.001803	29701	5.880043	173.475	133.779	1.125315	0.055701	0.055466	135.466	29701	0.052280	0.099592	1360.21	85986.9
751	2.000000	1.127488	7.37241e+06	-39539.1	1005.82	-29793.5	0.000000	0.000000	7.133636	148.201	NaN	0.000000	0.001565	0.001751	28.0819	55.5284	0.001832	30304.6	1.026665	178.338	144.476	1.127267	0.057639	0.057418	148.201	30304.6	0.053971	0.105082	1410.33	85411.6
751	2.000000	1.129539	7.37241e+06	-39539.1	1005.82	-29793.5	0.000000	0.000000	7.136325	163.731	NaN	0.000000	0.001626	0.001780	28.082	56.7797	0.001752	32408.2	6.026934	173.141	162.675	1.129209	0.059690	0.059361	163.731	32408.2	0.055901	0.111521	1468.16	88664.5
751	2.000000	1.131470	7.37241e+06	-39539.1	1005.82	-29793.5	0.000000	0.000000	7.138402	167.27	NaN	0.000000	0.001612	0.001775	28.0822	59.6726	0.001841	32415.7	3.450798	175.742	161.892	1.131149	0.061622	0.061300	167.27	32415.7	0.057752	0.117869	1419.12	86263.8
751	2.000000	1.133575	7.37241e+06	-39539.1	1005.82	-29793.5	0.000000	0.000000	7.140843	175.451	NaN	0.000000	0.001609	0.001756	28.0831	62.8653	0.001827	34414.1	8.598779	169.797	176.917	1.133212	0.063726	0.063363	175.451	34414.1	0.059902	0.125459	1398.48	88768.5
751	2.000000	1.135545	7.37241e+06	-39539.1	1005.82	-29793.5	0.000000	0.000000	7.143298	187.237	NaN	0.000000	0.001555	0.001724	28.0838	63.1743	0.001762	35849.9	3.507836	174.489	186.696	1.135275	0.065697	0.065426	187.237	35849.9	0.061780	0.132267	1415.6	90060.7
751	2.000000	1.137512	7.37241e+06	-39539.1	1005.82	-29793.5	0.000000	0.000000	7.145419	190.981	NaN	0.000000	0.001565	0.001766	28.0831	64.7932	0.001796	36078.8	0.493318	177.277	188.755	1.137422	0.067664	0.067574	190.981	36078.8	0.063694	0.139385	1370.17	88291.1
751	2.000000	1.139479	7.37241e+06	-39539.1	1005.82	-29793.5	0.000000	0.000000	7.148338	214.182	NaN	0.000000	0.001552	0.001757	28.0835	66.3218	0.001881	35261.4	5.443295	172.742	210.715	1.139149	0.069630	0.069301	214.182	35261.4	0.065074	0.144630	1480.9	84711.8
751	2.000000	1.141400	7.37241e+06	-39539.1	1005.82	-29793.5	0.000000	0.000000	7.150645	223.561	NaN	0.000000	0.001569	0.001744	28.0832	69.0621	0.001863	37080.3	5.393777	172.449	215.196	1.141157	0.071551	0.071308	223.561	37080.3	0.067029	0.152213	1468.74	86834
751	2.000000	1.143484	7.37241e+06	-39539.1	1005.82	-29793.5	0.000000	0.000000	7.153060	231.617	NaN	0.000000	0.001594	0.001737	28.0832	70.4988	0.001788	39439.7	4.442194	172.957	226.999	1.143150	0.073635	0.073302	231.617	39439.7	0.069230	0.160971	1438.87	89811.6
751	2.000000	1.145497	7.37241e+06	-39539.1	1005.82	-29793.5	0.000000	0.000000	7.155675	246.267	NaN	0.000000	0.001561	0.001762	28.0835	72.3998	0.001763	41067.7	5.352357	171.279	242.165	1.145204	0.075648	0.075356	246.267	41067.7	0.071151	0.168802	1458.91	91324.1
751	2.000000	1.147515	7.37241e+06	-39539.1	1005.82	-29793.5	0.000000	0.000000	7.158180	258.118	NaN	0.000000	0.001575	0.001712	28.0832	74.773	0.001693	44155.2	4.131538	172.353	255.745	1.147232	0.077666	0.077383	258.118	44155.2	0.073282	0.177694	1452.6	95701.6
751	2.000000	1.149517	7.37241e+06	-39539.1	1005.82	-29793.5	0.000000	0.000000	7.160430	264.145	NaN	0.000000	0.001634	0.001762	28.0834	75.977	0.001845	41181	3.167068	174.249	264.014	1.149193	0.079669	0.079345	264.145	41181	0.074858	0.184409	1432.39	87615.2
751	2.000000	1.151512	7.37241e+06	-39539.1	1005.82	-29793.5	0.000000	0.000000	7.163098	280.547	NaN	0.000000	0.001601	0.001730	28.0831	78.9783	0.001856	42562.6	9.575325	167.622	279.588	1.151190	0.081663	0.081341	280.547	42562.6	0.076719	0.192490	1457.46	88633.2
751	2.000000	1.153521	7.37241e+06	-39539.1	1005.82	-29793.5	0.000000	0.000000	7.165590	292.292	NaN	0.000000	0.001615	0.001731	28.0833	79.8148	0.001784	44741.1	5.051922	172.192	291.303	1.153158	0.083672	0.083309	292.292	44741.1	0.078772	0.201592	1449.92	91042.5
751	2.000000	1.155580	7.37241e+06	-39539.1	1005.82	-29793.5	0.000000	0.000000	7.167952	299.662	NaN	0.000000	0.001592	0.001704	28.0831	81.6712	0.001812	45070	6.339627	170.051	302.509	1.155175	0.085731	0.085326	299.662	45070	0.080745	0.210522	1423.43	89745.3
751	2.000000	1.157526	7.37241e+06	-39539.1	1005.82	-29793.5	0.000000	0.000000	7.170783	321.204	NaN	0.000000	0.001613	0.001717	28.083	83.9634	0.001833	45815.7	5.879820	170.918	319.67	1.157241	0.087677	0.087393	321.204	45815.7	0.082419	0.218243	1471.77	89601.9
751	2.000000	1.159600	7.37241e+06	-39539.1	1005.82	-29793.5	0.000000	0.000000	7.173351	333.209	NaN	0.000000	0.001619	0.001698	28.0832	85.0555	0.001816	46837.3	8.929579	167.678	336.511	1.159150	0.089751	0.089302	333.209	46837.3	0.084416	0.227622	1463.87	89692.8
751	2.000000	1.161524	7.37241e+06	-39539.1	1005.82	-29793.5	0.000000	0.000000	7.175894	348.288	NaN	0.000000	0.001617	0.001712	28.0831	87.4041	0.001814	48192.1	3.884453	172.181	347.775	1.161156	0.091675	0.091308	348.288	48192.1	0.086255	0.236424	1473.15	90553.1
751	2.000000	1.163577	7.37241e+06	-39539.1	1005.82	-29793.5	0.000000	0.000000	7.178648	365.331	NaN	0.000000	0.001585	0.001703	28.0831	89.6736	0.001822	49225.1	5.501021	171.129	365.998	1.163050	0.093728	0.093202	365.331	49225.1	0.088162	0.245715	1486.81	90728.6
751	2.000000	1.165419	7.37241e+06	-39539.1	1005.82	-29793.5	0.000000	0.000000	7.181012	378.019	NaN	0.000000	0.001581	0.001714	28.0828	90.114	0.001770	50909.8	2.553032	173.171	374.239	1.165260	0.095571	0.095411	378.019	50909.8	0.090002	0.254837	1483.37	92138.9
751	2.000000	1.167503	7.37241e+06	-39539.1	1005.82	-29793.5	0.000000	0.000000	7.183440	386.421	NaN	0.000000	0.001583	0.001718	28.0819	92.5538	0.001711	54081.9	1.833471	173.407	383.845	1.167241	0.097654	0.097393	386.421	54081.9	0.092295	0.266427	1450.38	95727.3
751	2.000000	1.169504	7.37241e+06	-39539.1	1005.82	-29793.5	0.000000	0.000000	7.186441	410.726	NaN	0.000000	0.001576	0.001744	28.0821	93.6686	0.001722	54399.4	5.383834	170.154	410.435	1.169173	0.099656	0.099325	410.726	54399.4	0.093993	0.275162	1492.67	94748.6
751	2.000000	1.171541	7.37241e+06	-39539.1	1005.82	-29793.5	0.000000	0.000000	7.188873	420.357	NaN	0.000000	0.001604	0.001752	28.082	97.5903	0.001925	50705.4	4.909665	171.311	421.955	1.171178	0.101692	0.101329	420.357	50705.4	0.095474	0.282890	1485.94	87100.1
751	2.000000	1.173502	7.37241e+06	-39539.1	1005.82	-29793.5	0.000000	0.000000	7.191563	438.08	NaN	0.000000	0.001599	0.001728	28.0823	97.9584	0.001847	53023.1	1.329718	174.785	436.54	1.173075	0.103653	0.103226	438.08	53023.1	0.097457	0.293389	1493.17	89436.8
751	2.000000	1.174571	7.37241e+06	-39539.1	1005.82	-29793.5	0.000000	0.000000	7.192859	443.616	NaN	0.000000	0.001599	0.001698	28.082	98.868	0.001816	54449.6	2.035802	173.357	445.7	1.174127	0.104722	0.104279	443.616	54449.6	0.098612	0.299588	1480.76	90887.9