File: remote_trans/data/nanoindenter/0828-1/data/Data_2025-08-06,11h17m57s/2025-07-22_16-23-58_1_1000.txt
2025-07-22, 16:23:58, 1
Index	Phase	Displacement	Time	Pos X	Pos Y	Pos Z	Rot A	Rot B	Piezo Z	Force A	Force B	Gripper	Voltage A	Voltage B	Temperature	Amplitude force	Amplitude pos	Stiffness	Phase shift	Phase excitation	Force A raw	Displacement raw	HMax	HMax raw	Real Force	Real Stiffness	Contact Depth	Area	Hardness	Reduced Mod.
[#]	[#]	[um]	[s]	[um]	[um]	[um]	[m°]	[m°]	[um]	[uN]	[uN]	[V]	[V]	[V]	[°C]	[uN]	[um]	[N/m]	[°]	[°]	[uN]	[um]	[um]	[um]	[uN]	[N/m]	[um]	[um^2]	[MPa]	[MPa]
1000	1.000000	0.002983	7.37483e+06	-50139.1	1055.82	-29756.7	0.000000	0.000000	6.002819	0.030418	NaN	0.000000	0.001648	0.001725	28.0846	0.040045	0.000994	40.292	62.2516	-166.324	0.020741	0.001709	-1.008097	-1.009370	0.030418	40.292	-1.008663	-2.967456E+13	-1.025056E-15	NaN
1000	1.000000	0.010931	7.37483e+06	-50139.1	1055.82	-29756.7	0.000000	0.000000	6.010768	0.024691	NaN	0.000000	0.001638	0.001747	28.0839	0.100152	0.000936	107.031	40.3947	-165.534	0.056436	0.009563	-1.000148	-1.001516	0.024691	107.031	-1.000321	-2.291359E+13	-1.077576E-15	NaN
1000	1.000000	0.018913	7.37483e+06	-50139.1	1055.82	-29756.7	0.000000	0.000000	6.018748	-0.003889	NaN	0.000000	0.001647	0.001750	28.0839	0.044167	0.001765	25.0278	-121.882	-162.976	0.053691	0.017607	-0.992166	-0.993472	-0.003889	25.0278	-0.992050	-1.773040E+13	2.193622E-16	NaN
1000	1.000000	0.026936	7.37483e+06	-50139.1	1055.82	-29756.7	0.000000	0.000000	6.026772	0.011288	NaN	0.000000	0.001630	0.001737	28.0837	0.023915	0.001787	13.3843	44.7216	-167.247	-0.121959	0.025625	-0.984143	-0.985455	0.011288	13.3843	-0.984776	-1.414972E+13	-7.977347E-16	NaN
1000	1.000000	0.034899	7.37483e+06	-50139.1	1055.82	-29756.7	0.000000	0.000000	6.034736	0.023376	NaN	0.000000	0.001552	0.001724	28.0838	0.061505	0.001909	32.2123	134.027	-163.251	0.045617	0.033602	-0.976180	-0.977477	0.023376	32.2123	-0.976724	-1.102246E+13	-2.120754E-15	NaN
1000	1.000000	0.042899	7.37483e+06	-50139.1	1055.82	-29756.7	0.000000	0.000000	6.042736	0.033393	NaN	0.000000	0.001549	0.001775	28.0841	0.042322	0.002001	21.1454	-41.2385	-165.992	-0.012860	0.041612	-0.968180	-0.969468	0.033393	21.1454	-0.969365	-8.772050E+12	-3.806776E-15	NaN
1000	1.000000	0.050914	7.37483e+06	-50139.1	1055.82	-29756.7	0.000000	0.000000	6.050747	-0.041685	NaN	0.000000	0.001533	0.001742	28.0836	0.113196	0.002084	54.3266	-103.895	-164.784	0.043919	0.049660	-0.960166	-0.961420	-0.041685	54.3266	-0.959590	-6.476606E+12	6.436187E-15	NaN
1000	1.000000	0.058887	7.37483e+06	-50139.1	1055.82	-29756.7	0.000000	0.000000	6.058725	0.063880	NaN	0.000000	0.001587	0.001761	28.0837	0.110828	0.002012	55.0823	163.986	-165.203	-0.019531	0.057609	-0.952192	-0.953471	0.063880	55.0823	-0.953062	-5.288361E+12	-1.207930E-14	NaN
1000	1.000000	0.066902	7.37483e+06	-50139.1	1055.82	-29756.7	0.000000	0.000000	6.066734	-0.060643	NaN	0.000000	0.001594	0.001724	28.0837	0.066996	0.002088	32.0793	-90.0081	-166.001	-0.101708	0.065619	-0.944178	-0.945460	-0.060643	32.0793	-0.942760	-3.840354E+12	1.579106E-14	NaN
1000	1.000000	0.074912	7.37483e+06	-50139.1	1055.82	-29756.7	0.000000	0.000000	6.074747	0.000506	NaN	0.000000	0.001573	0.001762	28.0841	0.086023	0.001977	43.5079	65.7924	-165.639	-0.024758	0.073594	-0.936167	-0.937486	0.000506	43.5079	-0.936176	-3.130001E+12	-1.616204E-16	NaN
1000	1.000000	0.082921	7.37483e+06	-50139.1	1055.82	-29756.7	0.000000	0.000000	6.082752	-0.088085	NaN	0.000000	0.001586	0.001732	28.0839	0.101701	0.001926	52.8102	17.173	-167.753	-0.025410	0.081599	-0.928159	-0.929481	-0.088085	52.8102	-0.926908	-2.346729E+12	3.753534E-14	NaN
1000	1.000000	0.090910	7.37483e+06	-50139.1	1055.82	-29756.7	0.000000	0.000000	6.090746	0.017701	NaN	0.000000	0.001569	0.001760	28.0851	0.102958	0.001939	53.1106	-61.5632	-161.862	-0.021062	0.089643	-0.920170	-0.921436	0.017701	53.1106	-0.920419	-1.918093E+12	-9.228524E-15	NaN
1000	1.000000	0.098931	7.37483e+06	-50139.1	1055.82	-29756.7	0.000000	0.000000	6.098764	-0.053593	NaN	0.000000	0.001610	0.001772	28.0852	0.059546	0.001932	30.8259	-128.464	-164.654	-0.116000	0.097573	-0.912149	-0.913507	-0.053593	30.8259	-0.910845	-1.424217E+12	3.763000E-14	NaN
1000	1.000000	0.106923	7.37483e+06	-50139.1	1055.82	-29756.7	0.000000	0.000000	6.106760	0.054227	NaN	0.000000	0.001597	0.001763	28.0854	0.037425	0.002068	18.0956	-142.285	-165.07	0.011512	0.105674	-0.904157	-0.905406	0.054227	18.0956	-0.906404	-1.240485E+12	-4.371474E-14	NaN
1000	1.000000	0.114922	7.37483e+06	-50139.1	1055.82	-29756.7	0.000000	0.000000	6.114753	-0.088930	NaN	0.000000	0.001592	0.001770	28.0854	0.021255	0.002084	10.201	-108.171	-165.672	-0.133799	0.113614	-0.896158	-0.897465	-0.088930	10.201	-0.889619	-7.358160E+11	1.208591E-13	NaN
1000	1.000000	0.122949	7.37483e+06	-50139.1	1055.82	-29756.7	0.000000	0.000000	6.122783	-0.035228	NaN	0.000000	0.001582	0.001831	28.0852	0.145231	0.002080	69.8064	152.954	-166.303	-0.007552	0.121633	-0.888131	-0.889446	-0.035228	69.8064	-0.887752	-6.942708E+11	5.074062E-14	NaN
1000	1.000000	0.130916	7.37483e+06	-50139.1	1055.82	-29756.7	0.000000	0.000000	6.130756	0.124233	NaN	0.000000	0.001602	0.001773	28.085	0.049906	0.002009	24.8439	-157.268	-164.615	0.058481	0.129628	-0.880164	-0.881452	0.124233	24.8439	-0.883914	-6.160833E+11	-2.016504E-13	NaN
1000	1.000000	0.138943	7.37483e+06	-50139.1	1055.82	-29756.7	0.000000	0.000000	6.138777	-0.043553	NaN	0.000000	0.001585	0.001771	28.0855	0.054709	0.002011	27.2092	72.0564	-164.558	0.002284	0.137602	-0.872136	-0.873477	-0.043553	27.2092	-0.870936	-4.112470E+11	1.059055E-13	NaN
1000	1.000000	0.146940	7.37483e+06	-50139.1	1055.82	-29756.7	0.000000	0.000000	6.146777	0.048262	NaN	0.000000	0.001627	0.001754	28.085	0.074913	0.001861	40.2469	-13.5224	-164.866	0.127971	0.145575	-0.864139	-0.865505	0.048262	40.2469	-0.865039	-3.422273E+11	-1.410235E-13	NaN
1000	1.000000	0.154955	7.37483e+06	-50139.1	1055.82	-29756.7	0.000000	0.000000	6.154789	-0.021558	NaN	0.000000	0.001637	0.001752	28.0854	0.067664	0.001964	34.4451	178.589	-164.79	-0.035964	0.153633	-0.856125	-0.857446	-0.021558	34.4451	-0.855655	-2.554504E+11	8.439321E-14	NaN
1000	1.000000	0.162965	7.37483e+06	-50139.1	1055.82	-29756.7	0.000000	0.000000	6.162801	0.026017	NaN	0.000000	0.001613	0.001777	28.0853	0.127680	0.001933	66.0543	-108.227	-161.767	-0.040767	0.161599	-0.848115	-0.849481	0.026017	66.0543	-0.848410	-2.038035E+11	-1.276574E-13	NaN
1000	1.000000	0.170941	7.37483e+06	-50139.1	1055.82	-29756.7	0.000000	0.000000	6.170776	-0.014973	NaN	0.000000	0.001625	0.001789	28.0853	0.104921	0.002054	51.0833	153.235	-161.54	-0.005650	0.169658	-0.840138	-0.841422	-0.014973	51.0833	-0.839919	-1.563830E+11	9.574263E-14	NaN
1000	1.000000	0.178970	7.37483e+06	-50139.1	1055.82	-29756.7	0.000000	0.000000	6.178804	-0.024783	NaN	0.000000	0.001625	0.001772	28.0854	0.050370	0.001927	26.136	179.62	-163.416	-0.017793	0.177702	-0.832109	-0.833377	-0.024783	26.136	-0.831398	-1.198768E+11	2.067380E-13	NaN
1000	1.000000	0.187007	7.37483e+06	-50139.1	1055.82	-29756.7	0.000000	0.000000	6.186845	0.050159	NaN	0.000000	0.001596	0.001758	28.0853	0.069028	0.001920	35.9498	93.6094	-161.451	0.010969	0.185669	-0.824072	-0.825411	0.050159	35.9498	-0.825119	-9.854078E+10	-5.090211E-13	NaN
1000	1.000000	0.194970	7.37483e+06	-50139.1	1055.82	-29756.7	0.000000	0.000000	6.194804	-0.021037	NaN	0.000000	0.001606	0.001753	28.0855	0.075771	0.002142	35.3817	-79.6491	-161.303	0.010494	0.193646	-0.816110	-0.817433	-0.021037	35.3817	-0.815664	-7.335017E+10	2.867964E-13	NaN
1000	1.000000	0.203009	7.37483e+06	-50139.1	1055.82	-29756.7	0.000000	0.000000	6.202847	0.061346	NaN	0.000000	0.001618	0.001764	28.0851	0.052100	0.001975	26.3803	-28.4976	-164.465	0.128743	0.201658	-0.808070	-0.809422	0.061346	26.3803	-0.809814	-6.110162E+10	-1.004008E-12	NaN
1000	1.000000	0.210953	7.37483e+06	-50139.1	1055.82	-29756.7	0.000000	0.000000	6.210789	0.020027	NaN	0.000000	0.001607	0.001782	28.0851	0.115350	0.001986	58.0684	3.224962	-162.746	-0.001990	0.209681	-0.800127	-0.801399	0.020027	58.0684	-0.800386	-4.550890E+10	-4.400613E-13	NaN
1000	1.000000	0.218994	7.37483e+06	-50139.1	1055.82	-29756.7	0.000000	0.000000	6.218829	-0.007792	NaN	0.000000	0.001597	0.001782	28.0853	0.045277	0.002021	22.4084	-72.3026	-165.658	0.048281	0.217664	-0.792086	-0.793416	-0.007792	22.4084	-0.791825	-3.482315E+10	2.237499E-13	NaN
1000	1.000000	0.226991	7.37483e+06	-50139.1	1055.82	-29756.7	0.000000	0.000000	6.226828	0.048760	NaN	0.000000	0.001584	0.001742	28.084	0.065778	0.002148	30.6194	13.4124	-164.12	0.081344	0.225682	-0.784089	-0.785398	0.048760	30.6194	-0.785283	-2.837998E+10	-1.718108E-12	NaN
1000	1.000000	0.234999	7.37483e+06	-50139.1	1055.82	-29756.7	0.000000	0.000000	6.234834	0.001560	NaN	0.000000	0.001603	0.001742	28.0841	0.141652	0.001978	71.6036	-75.4511	-164.296	0.059953	0.233636	-0.776080	-0.777443	0.001560	71.6036	-0.776097	-2.129052E+10	-7.326872E-14	NaN
1000	1.000000	0.243012	7.37483e+06	-50139.1	1055.82	-29756.7	0.000000	0.000000	6.242850	0.074004	NaN	0.000000	0.001588	0.001748	28.0838	0.051852	0.002107	24.6102	156.446	-161.176	0.059623	0.241684	-0.768068	-0.769395	0.074004	24.6102	-0.770323	-1.777048E+10	-4.164408E-12	NaN
1000	1.000000	0.251022	7.37483e+06	-50139.1	1055.82	-29756.7	0.000000	0.000000	6.250859	0.050679	NaN	0.000000	0.001606	0.001793	28.0842	0.013266	0.002087	6.355839	-80.2716	-164.363	0.073757	0.249668	-0.760058	-0.761411	0.050679	6.355839	-0.766038	-1.553928E+10	-3.261318E-12	NaN
1000	1.000000	0.258962	7.37483e+06	-50139.1	1055.82	-29756.7	0.000000	0.000000	6.258797	-0.002755	NaN	0.000000	0.001592	0.001780	28.0839	0.036774	0.001840	19.9821	175.939	-161.517	0.008021	0.257714	-0.752118	-0.753366	-0.002755	19.9821	-0.752014	-1.001467E+10	2.751437E-13	NaN
1000	1.000000	0.267024	7.37483e+06	-50139.1	1055.82	-29756.7	0.000000	0.000000	6.266859	-0.004457	NaN	0.000000	0.001574	0.001774	28.0841	0.068999	0.002014	34.2538	-135.396	-167.116	0.006370	0.265726	-0.744056	-0.745354	-0.004457	34.2538	-0.743958	-7.779723E+9	5.729373E-13	NaN
1000	1.000000	0.275007	7.37483e+06	-50139.1	1055.82	-29756.7	0.000000	0.000000	6.274843	0.005424	NaN	0.000000	0.001652	0.001795	28.0841	0.089419	0.002118	42.2205	-102.11	-163.926	0.035712	0.273694	-0.736072	-0.737386	0.005424	42.2205	-0.736169	-6.093463E+9	-8.900778E-13	NaN
1000	1.000000	0.283009	7.37483e+06	-50139.1	1055.82	-29756.7	0.000000	0.000000	6.282848	0.103543	NaN	0.000000	0.001640	0.001786	28.0841	0.073448	0.002065	35.5672	-83.6467	-163.739	0.053549	0.281646	-0.728071	-0.729434	0.103543	35.5672	-0.730254	-5.061401E+9	-2.045739E-11	NaN
1000	1.000000	0.291028	7.37483e+06	-50139.1	1055.82	-29756.7	0.000000	0.000000	6.290859	-0.098631	NaN	0.000000	0.001603	0.001792	28.0842	0.037393	0.002000	18.6972	47.3621	-162.758	-0.003852	0.289680	-0.720052	-0.721400	-0.098631	18.6972	-0.716096	-3.245030E+9	3.039440E-11	NaN
1000	1.000000	0.298994	7.37483e+06	-50139.1	1055.82	-29756.7	0.000000	0.000000	6.298828	-0.013525	NaN	0.000000	0.001653	0.001762	28.0839	0.061541	0.002027	30.3582	82.8398	-168.243	0.058223	0.297673	-0.712086	-0.713407	-0.013525	30.3582	-0.711752	-2.831071E+9	4.777352E-12	NaN
1000	1.000000	0.307026	7.37483e+06	-50139.1	1055.82	-29756.7	0.000000	0.000000	6.306863	0.028618	NaN	0.000000	0.001652	0.001771	28.0842	0.018649	0.002073	8.994835	93.5039	-167.951	0.010362	0.305704	-0.704053	-0.705375	0.028618	8.994835	-0.706440	-2.395818E+9	-1.194508E-11	NaN
1000	1.000000	0.314995	7.37483e+06	-50139.1	1055.82	-29756.7	0.000000	0.000000	6.314829	-0.005281	NaN	0.000000	0.001652	0.001765	28.084	0.035880	0.001971	18.2067	34.6481	-162.369	0.027013	0.313731	-0.696085	-0.697349	-0.005281	18.2067	-0.695868	-1.718258E+9	3.073424E-12	NaN
1000	1.000000	0.323022	7.37483e+06	-50139.1	1055.82	-29756.7	0.000000	0.000000	6.322859	0.027669	NaN	0.000000	0.001663	0.001740	28.0845	0.051197	0.001967	26.0334	-138.286	-167.131	-0.078911	0.321707	-0.688057	-0.689372	0.027669	26.0334	-0.688854	-1.378035E+9	-2.007842E-11	NaN
1000	1.000000	0.331042	7.37483e+06	-50139.1	1055.82	-29756.7	0.000000	0.000000	6.330878	0.021028	NaN	0.000000	0.001607	0.001780	28.0842	0.059783	0.001884	31.7255	-100.228	-166.182	0.108696	0.329712	-0.680038	-0.681368	0.021028	31.7255	-0.680535	-1.060524E+9	-1.982814E-11	NaN
1000	1.000000	0.339058	7.37483e+06	-50139.1	1055.82	-29756.7	0.000000	0.000000	6.338893	0.000736	NaN	0.000000	0.001629	0.001773	28.0842	0.075603	0.001973	38.3227	-60.4538	-163.085	0.049138	0.337674	-0.672021	-0.673405	0.000736	38.3227	-0.672036	-8.114321E+8	-9.069343E-13	NaN
1000	1.000000	0.347046	7.37483e+06	-50139.1	1055.82	-29756.7	0.000000	0.000000	6.346879	-0.058489	NaN	0.000000	0.001672	0.001771	28.0849	0.033920	0.002042	16.6095	-126.545	-164.386	-0.009230	0.345655	-0.664034	-0.665425	-0.058489	16.6095	-0.661392	-5.801516E+8	1.008168E-10	NaN
1000	1.000000	0.355060	7.37483e+06	-50139.1	1055.82	-29756.7	0.000000	0.000000	6.354897	0.053053	NaN	0.000000	0.001670	0.001766	28.0841	0.037659	0.001987	18.9485	-6.603853	-163.8	-0.051794	0.353737	-0.656019	-0.657343	0.053053	18.9485	-0.658119	-5.232469E+8	-1.013912E-10	NaN
1000	1.000000	0.363034	7.37483e+06	-50139.1	1055.82	-29756.7	0.000000	0.000000	6.362870	0.009872	NaN	0.000000	0.001621	0.001778	28.0854	0.059695	0.001968	30.3404	147.232	-164.927	-0.033339	0.361733	-0.648045	-0.649346	0.009872	30.3404	-0.648289	-3.836920E+8	-2.572796E-11	NaN
1000	1.000000	0.371020	7.37483e+06	-50139.1	1055.82	-29756.7	0.000000	0.000000	6.370855	0.010658	NaN	0.000000	0.001638	0.001756	28.0854	0.093189	0.002077	44.8648	-165.193	-168.146	0.019750	0.369734	-0.640060	-0.641345	0.010658	44.8648	-0.640238	-2.975460E+8	-3.581915E-11	NaN
1000	1.000000	0.379052	7.37483e+06	-50139.1	1055.82	-29756.7	0.000000	0.000000	6.378887	-0.000504	NaN	0.000000	0.001686	0.001765	28.0854	0.089213	0.002131	41.868	113.136	-166.193	-0.003605	0.377746	-0.632028	-0.633334	-0.000504	41.868	-0.632019	-2.294814E+8	2.196187E-12	NaN
1000	1.000000	0.387041	7.37483e+06	-50139.1	1055.82	-29756.7	0.000000	0.000000	6.386876	0.000527	NaN	0.000000	0.001669	0.001765	28.0859	0.037326	0.002013	18.5428	-92.7007	-168.024	-0.052193	0.385752	-0.624038	-0.625328	0.000527	18.5428	-0.624060	-1.784128E+8	-2.951622E-12	NaN
1000	1.000000	0.395034	7.37483e+06	-50139.1	1055.82	-29756.7	0.000000	0.000000	6.394869	-0.010064	NaN	0.000000	0.001659	0.001754	28.0854	0.013246	0.001957	6.768143	-103.61	-162.599	0.041056	0.393745	-0.616045	-0.617334	-0.010064	6.768143	-0.614930	-1.336369E+8	7.530709E-11	NaN
1000	1.000000	0.403039	7.37483e+06	-50139.1	1055.82	-29756.7	0.000000	0.000000	6.402876	0.048018	NaN	0.000000	0.001654	0.001775	28.0854	0.045889	0.002068	22.1854	-89.6852	-167.35	0.157774	0.401790	-0.608041	-0.609290	0.048018	22.1854	-0.609664	-1.131080E+8	-4.245298E-10	NaN
1000	1.000000	0.411059	7.37483e+06	-50139.1	1055.82	-29756.7	0.000000	0.000000	6.410895	0.020260	NaN	0.000000	0.001637	0.001718	28.0854	0.048792	0.001993	24.4804	58.2266	-163.989	0.031978	0.409727	-0.600021	-0.601352	0.020260	24.4804	-0.600642	-8.497600E+7	-2.384247E-10	NaN
1000	1.000000	0.419081	7.37483e+06	-50139.1	1055.82	-29756.7	0.000000	0.000000	6.418917	0.013964	NaN	0.000000	0.001608	0.001711	28.0854	0.096627	0.002121	45.5561	-169.2	-166.942	0.030118	0.417773	-0.591998	-0.593307	0.013964	45.5561	-0.592228	-6.507056E+7	-2.146029E-10	NaN
1000	1.000000	0.427074	7.37483e+06	-50139.1	1055.82	-29756.7	0.000000	0.000000	6.426907	-0.047197	NaN	0.000000	0.001601	0.001748	28.0857	0.072353	0.002131	33.9515	118.258	-165.84	-0.029210	0.425750	-0.584006	-0.585329	-0.047197	33.9515	-0.582963	-4.848596E+7	9.734123E-10	NaN
1000	1.000000	0.435073	7.37483e+06	-50139.1	1055.82	-29756.7	0.000000	0.000000	6.434910	0.047719	NaN	0.000000	0.001627	0.001767	28.0853	0.134373	0.001994	67.3987	-143.619	-163.724	0.047443	0.433797	-0.576006	-0.577283	0.047719	67.3987	-0.576537	-3.952997E+7	-1.207158E-9	NaN
1000	1.000000	0.443092	7.37483e+06	-50139.1	1055.82	-29756.7	0.000000	0.000000	6.442926	-0.030159	NaN	0.000000	0.001604	0.001746	28.0856	0.076378	0.001905	40.0958	-44.4079	-164.584	-0.060637	0.441764	-0.567987	-0.569316	-0.030159	40.0958	-0.567423	-2.958170E+7	1.019513E-9	NaN
1000	1.000000	0.451073	7.37483e+06	-50139.1	1055.82	-29756.7	0.000000	0.000000	6.450911	0.063644	NaN	0.000000	0.001594	0.001745	28.0854	0.031668	0.001967	16.1012	72.1265	-164.353	0.083774	0.449766	-0.560006	-0.561313	0.063644	16.1012	-0.562971	-2.567243E+7	-2.479086E-9	NaN
1000	1.000000	0.459076	7.37483e+06	-50139.1	1055.82	-29756.7	0.000000	0.000000	6.458909	-0.062008	NaN	0.000000	0.001572	0.001708	28.0855	0.056257	0.001988	28.2961	-31.6483	-163.114	-0.086312	0.457829	-0.552003	-0.553251	-0.062008	28.2961	-0.550360	-1.717658E+7	3.610036E-9	NaN
1000	1.000000	0.467080	7.37483e+06	-50139.1	1055.82	-29756.7	0.000000	0.000000	6.466917	0.048088	NaN	0.000000	0.001621	0.001705	28.0856	0.063141	0.001994	31.6668	11.5841	-164.42	0.014623	0.465769	-0.543999	-0.545310	0.048088	31.6668	-0.545138	-1.454109E+7	-3.307074E-9	NaN
1000	1.000000	0.475075	7.37483e+06	-50139.1	1055.82	-29756.7	0.000000	0.000000	6.474912	0.038671	NaN	0.000000	0.001592	0.001694	28.0854	0.006234	0.001863	3.346397	33.0096	-164.79	0.036125	0.473841	-0.536004	-0.537239	0.038671	3.346397	-0.544671	-1.432600E+7	-2.699387E-9	NaN
1000	1.000000	0.483100	7.37483e+06	-50139.1	1055.82	-29756.7	0.000000	0.000000	6.482932	-0.074772	NaN	0.000000	0.001599	0.001680	28.0856	0.096614	0.002030	47.6009	-77.1283	-163.128	-0.021180	0.481793	-0.527979	-0.529287	-0.074772	47.6009	-0.526801	-8.09362e+06	9.238340E-9	NaN
1000	1.000000	0.491098	7.37483e+06	-50139.1	1055.82	-29756.7	0.000000	0.000000	6.490934	0.035338	NaN	0.000000	0.001565	0.001686	28.0852	0.079861	0.001986	40.2151	-15.1616	-165.356	0.015947	0.489804	-0.519982	-0.521276	0.035338	40.2151	-0.520641	-6.64526e+06	-5.317836E-9	NaN
1000	1.000000	0.499106	7.37483e+06	-50139.1	1055.82	-29756.7	0.000000	0.000000	6.498941	0.015606	NaN	0.000000	0.001601	0.001684	28.0838	0.063562	0.001962	32.4018	109.738	-165.694	0.019262	0.497812	-0.511974	-0.513267	0.015606	32.4018	-0.512335	-5.09258e+06	-3.064383E-9	NaN
1000	1.000000	0.507098	7.37483e+06	-50139.1	1055.82	-29756.7	0.000000	0.000000	6.506936	0.078690	NaN	0.000000	0.001586	0.001689	28.0841	0.009291	0.001920	4.840078	-63.7794	-162.3	0.011693	0.505725	-0.503982	-0.505355	0.078690	4.840078	-0.516175	-5.75958e+06	-1.366248E-8	NaN
1000	1.000000	0.515107	7.37483e+06	-50139.1	1055.82	-29756.7	0.000000	0.000000	6.514941	-0.030333	NaN	0.000000	0.001574	0.001740	28.0841	0.068191	0.001941	35.1378	39.2385	-165.31	0.036248	0.513799	-0.495973	-0.497281	-0.030333	35.1378	-0.495325	-2.94971e+06	1.028352E-8	NaN
1000	1.000000	0.523099	7.37483e+06	-50139.1	1055.82	-29756.7	0.000000	0.000000	6.522933	-0.022645	NaN	0.000000	0.001572	0.001698	28.084	0.056197	0.002039	27.5585	-48.0612	-160.974	-0.032191	0.521797	-0.487981	-0.489282	-0.022645	27.5585	-0.487364	-2.28326e+06	9.917744E-9	NaN
1000	1.000000	0.531078	7.37483e+06	-50139.1	1055.82	-29756.7	0.000000	0.000000	6.530914	0.031083	NaN	0.000000	0.001587	0.001695	28.0841	0.019840	0.002022	9.813253	104.251	-166.061	0.022449	0.529825	-0.480002	-0.481255	0.031083	9.813253	-0.482378	-1.94448e+06	-1.598531E-8	NaN
1000	1.000000	0.539129	7.37483e+06	-50139.1	1055.82	-29756.7	0.000000	0.000000	6.538965	0.036476	NaN	0.000000	0.001594	0.001706	28.0843	0.117724	0.002083	56.5184	148.755	-166.094	-0.009165	0.537774	-0.471951	-0.473306	0.036476	56.5184	-0.472435	-1.41107e+06	-2.585008E-8	NaN
1000	1.000000	0.547116	7.37483e+06	-50139.1	1055.82	-29756.7	0.000000	0.000000	6.546950	-0.015468	NaN	0.000000	0.001569	0.001690	28.0841	0.028838	0.001993	14.4712	76.662	-164.288	0.079955	0.545826	-0.463964	-0.465253	-0.015468	14.4712	-0.463162	-1.04578e+06	1.479087E-8	NaN
1000	1.000000	0.555102	7.37483e+06	-50139.1	1055.82	-29756.7	0.000000	0.000000	6.554936	-0.015397	NaN	0.000000	0.001578	0.001686	28.0839	0.046192	0.001805	25.5974	125.802	-163.117	-0.014997	0.553811	-0.455978	-0.457268	-0.015397	25.5974	-0.455527	-816824	1.885029E-8	NaN
1000	1.000000	0.563136	7.37483e+06	-50139.1	1055.82	-29756.7	0.000000	0.000000	6.562975	0.074898	NaN	0.000000	0.001647	0.001696	28.0839	0.047150	0.002008	23.4779	72.0188	-164.33	0.053387	0.561822	-0.447943	-0.449257	0.074898	23.4779	-0.450336	-690353	-1.084926E-7	NaN
1000	1.000000	0.571125	7.37483e+06	-50139.1	1055.82	-29756.7	0.000000	0.000000	6.570962	0.039882	NaN	0.000000	0.001638	0.001670	28.0842	0.024548	0.002179	11.2637	135.736	-164.785	-0.050165	0.569847	-0.439954	-0.441232	0.039882	11.2637	-0.442610	-537266	-7.423102E-8	NaN
1000	1.000000	0.579152	7.37483e+06	-50139.1	1055.82	-29756.7	0.000000	0.000000	6.578985	-0.051031	NaN	0.000000	0.001570	0.001721	28.0841	0.034818	0.002009	17.3317	99.3085	-165.596	-0.011198	0.577851	-0.431928	-0.433229	-0.051031	17.3317	-0.429719	-353258	1.444590E-7	NaN
1000	1.000000	0.587122	7.37483e+06	-50139.1	1055.82	-29756.7	0.000000	0.000000	6.586959	0.039708	NaN	0.000000	0.001556	0.001672	28.0838	0.142429	0.001949	73.0934	138.669	-161.886	-0.007485	0.585853	-0.423957	-0.425227	0.039708	73.0934	-0.424365	-296677	-1.338437E-7	NaN
1000	1.000000	0.595140	7.37483e+06	-50139.1	1055.82	-29756.7	0.000000	0.000000	6.594973	-0.048169	NaN	0.000000	0.001556	0.001676	28.0842	0.137063	0.002098	65.337	-16.0859	-161.922	0.016899	0.593846	-0.415940	-0.417234	-0.048169	65.337	-0.415387	-221284	2.176817E-7	NaN
1000	1.000000	0.603151	7.37483e+06	-50139.1	1055.82	-29756.7	0.000000	0.000000	6.602989	0.059723	NaN	0.000000	0.001533	0.001669	28.084	0.086125	0.001936	44.496	110.109	-166.262	-0.029103	0.601871	-0.407929	-0.409208	0.059723	44.496	-0.408935	-179166	-3.333407E-7	NaN
1000	1.000000	0.611148	7.37483e+06	-50139.1	1055.82	-29756.7	0.000000	0.000000	6.610986	0.052197	NaN	0.000000	0.001571	0.001669	28.0841	0.038217	0.001958	19.5189	147.989	-169.1	-0.022240	0.609805	-0.399931	-0.401274	0.052197	19.5189	-0.401937	-142432	-3.664690E-7	NaN
1000	1.000000	0.619130	7.37483e+06	-50139.1	1055.82	-29756.7	0.000000	0.000000	6.618966	0.014163	NaN	0.000000	0.001582	0.001707	28.0839	0.066470	0.002178	30.5245	-159.193	-164.421	-0.021468	0.617747	-0.391950	-0.393333	0.014163	30.5245	-0.392298	-103758	-1.365016E-7	NaN
1000	1.000000	0.627164	7.37484e+06	-50139.1	1055.82	-29756.7	0.000000	0.000000	6.627002	0.079552	NaN	0.000000	0.001556	0.001681	28.0839	0.063200	0.002010	31.4419	31.2358	-165.766	0.020607	0.625828	-0.383916	-0.385252	0.079552	31.4419	-0.385813	-83798.5	-9.493312E-7	NaN
1000	1.000000	0.635162	7.37484e+06	-50139.1	1055.82	-29756.7	0.000000	0.000000	6.634996	-0.024618	NaN	0.000000	0.001583	0.001696	28.0856	0.077648	0.001917	40.4995	17.6458	-162.722	-0.084980	0.633853	-0.375918	-0.377226	-0.024618	40.4995	-0.375462	-59526.3	4.135632E-7	NaN
1000	1.000000	0.643154	7.37484e+06	-50139.1	1055.82	-29756.7	0.000000	0.000000	6.642988	-0.026403	NaN	0.000000	0.001566	0.001661	28.0851	0.103792	0.001983	52.3295	-56.1642	-163.876	-0.024299	0.641890	-0.367926	-0.369189	-0.026403	52.3295	-0.367548	-45792.5	5.765887E-7	NaN
1000	1.000000	0.651188	7.37484e+06	-50139.1	1055.82	-29756.7	0.000000	0.000000	6.651024	0.002262	NaN	0.000000	0.001553	0.001688	28.0849	0.046129	0.001918	24.0486	101.733	-166.757	0.027175	0.649886	-0.359891	-0.361193	0.002262	24.0486	-0.359962	-35587.1	-6.355333E-8	NaN
1000	1.000000	0.659177	7.37484e+06	-50139.1	1055.82	-29756.7	0.000000	0.000000	6.659008	-0.102145	NaN	0.000000	0.001550	0.001633	28.0852	0.129037	0.001944	66.3768	125.793	-163.404	-0.080232	0.657869	-0.351903	-0.353211	-0.102145	66.3768	-0.350748	-26173.5	3.902614E-6	NaN
1000	1.000000	0.667191	7.37484e+06	-50139.1	1055.82	-29756.7	0.000000	0.000000	6.667026	0.007581	NaN	0.000000	0.001546	0.001661	28.085	0.044637	0.001964	22.724	-53.7066	-160.485	-0.044451	0.665866	-0.343889	-0.345213	0.007581	22.724	-0.344139	-20981.3	-3.613387E-7	NaN
1000	1.000000	0.675180	7.37484e+06	-50139.1	1055.82	-29756.7	0.000000	0.000000	6.675014	-0.013442	NaN	0.000000	0.001539	0.001656	28.0854	0.157444	0.002055	76.6254	-52.7798	-162.744	-0.022469	0.673871	-0.335900	-0.337209	-0.013442	76.6254	-0.335768	-15842	8.485179E-7	NaN
1000	1.000000	0.683185	7.37484e+06	-50139.1	1055.82	-29756.7	0.000000	0.000000	6.683021	0.021669	NaN	0.000000	0.001522	0.001671	28.0849	0.058539	0.001950	30.0151	132.39	-163.924	-0.011220	0.681890	-0.327894	-0.329190	0.021669	30.0151	-0.328436	-12374.7	-1.751104E-6	NaN
1000	1.000000	0.691172	7.37484e+06	-50139.1	1055.82	-29756.7	0.000000	0.000000	6.691007	-0.020428	NaN	0.000000	0.001547	0.001696	28.085	0.035347	0.002203	16.0472	-155.532	-165.052	-0.001759	0.689910	-0.319907	-0.321170	-0.020428	16.0472	-0.318952	-8978.72	2.275180E-6	NaN
1000	1.000000	0.699168	7.37484e+06	-50139.1	1055.82	-29756.7	0.000000	0.000000	6.699002	-0.022376	NaN	0.000000	0.001527	0.001679	28.0851	0.010364	0.002076	4.992807	-89.7476	-165.047	-0.114428	0.697932	-0.311912	-0.313147	-0.022376	4.992807	-0.308551	-6303.79	3.549589E-6	NaN
1000	1.000000	0.707168	7.37484e+06	-50139.1	1055.82	-29756.7	0.000000	0.000000	6.707002	-0.028730	NaN	0.000000	0.001519	0.001699	28.0849	0.097730	0.002020	48.3741	73.1793	-170.266	-0.039221	0.705854	-0.303912	-0.305225	-0.028730	48.3741	-0.303466	-5298.84	5.421972E-6	NaN
1000	1.000000	0.715158	7.37484e+06	-50139.1	1055.82	-29756.7	0.000000	0.000000	6.714990	-0.064713	NaN	0.000000	0.001556	0.001684	28.0853	0.126135	0.001935	65.17	42.6551	-163.387	-0.020761	0.713868	-0.295922	-0.297212	-0.064713	65.17	-0.295177	-3987.83	1.622762E-5	NaN
1000	1.000000	0.723188	7.37484e+06	-50139.1	1055.82	-29756.7	0.000000	0.000000	6.723020	-0.089055	NaN	0.000000	0.001568	0.001708	28.085	0.128236	0.002077	61.7496	-162.252	-165.074	-0.017423	0.721893	-0.287891	-0.289187	-0.089055	61.7496	-0.286810	-2988.52	2.979907E-5	NaN
1000	1.000000	0.731183	7.37484e+06	-50139.1	1055.82	-29756.7	0.000000	0.000000	6.731018	-0.001095	NaN	0.000000	0.001545	0.001673	28.0851	0.062399	0.002025	30.8193	116.136	-164.833	-0.011292	0.729906	-0.279897	-0.281174	-0.001095	30.8193	-0.279870	-2349.67	4.660772E-7	NaN
1000	1.000000	0.739202	7.37484e+06	-50139.1	1055.82	-29756.7	0.000000	0.000000	6.739035	-0.066987	NaN	0.000000	0.001567	0.001698	28.0851	0.021893	0.002112	10.367	-51.416	-165.973	-0.017545	0.737887	-0.271877	-0.273193	-0.066987	10.367	-0.267031	-1500.94	4.462982E-5	NaN
1000	1.000000	0.747193	7.37484e+06	-50139.1	1055.82	-29756.7	0.000000	0.000000	6.747030	0.039538	NaN	0.000000	0.001538	0.001690	28.0853	0.117138	0.002048	57.2003	163.111	-164.721	-0.023170	0.745839	-0.263887	-0.265240	0.039538	57.2003	-0.264405	-1368.69	-2.888714E-5	NaN
1000	1.000000	0.755193	7.37484e+06	-50139.1	1055.82	-29756.7	0.000000	0.000000	6.755030	0.030382	NaN	0.000000	0.001552	0.001678	28.0851	0.064118	0.001976	32.4412	177.355	-163.868	0.060593	0.753956	-0.255886	-0.257124	0.030382	32.4412	-0.256589	-1038.86	-2.924584E-5	NaN
1000	1.000000	0.763230	7.37484e+06	-50139.1	1055.82	-29756.7	0.000000	0.000000	6.763066	0.010305	NaN	0.000000	0.001562	0.001683	28.085	0.018005	0.001886	9.547198	-111.515	-164.504	-0.023848	0.761896	-0.247850	-0.249184	0.010305	9.547198	-0.248659	-783.82	-1.314680E-5	NaN
1000	1.000000	0.771201	7.37484e+06	-50139.1	1055.82	-29756.7	0.000000	0.000000	6.771034	-0.034112	NaN	0.000000	0.001538	0.001681	28.084	0.104954	0.001959	53.5715	-66.3443	-167.132	-0.000320	0.769885	-0.239879	-0.241194	-0.034112	53.5715	-0.239401	-562.601	6.063258E-5	NaN
1000	1.000000	0.779234	7.37484e+06	-50139.1	1055.82	-29756.7	0.000000	0.000000	6.779070	0.036909	NaN	0.000000	0.001564	0.001714	28.0837	0.074895	0.001929	38.8203	-73.5122	-166.925	0.091894	0.777904	-0.231846	-0.233175	0.036909	38.8203	-0.232559	-439.406	-8.399825E-5	NaN
1000	1.000000	0.787229	7.37484e+06	-50139.1	1055.82	-29756.7	0.000000	0.000000	6.787064	-0.006847	NaN	0.000000	0.001551	0.001717	28.0846	0.050036	0.001918	26.0895	156.498	-161.962	-0.072024	0.785881	-0.223851	-0.225198	-0.006847	26.0895	-0.223654	-317.64	2.155666E-5	NaN
1000	1.000000	0.795244	7.37484e+06	-50139.1	1055.82	-29756.7	0.000000	0.000000	6.795079	-0.003437	NaN	0.000000	0.001592	0.001742	28.0838	0.024596	0.002043	12.0373	168.808	-167.383	0.004543	0.793918	-0.215836	-0.217162	-0.003437	12.0373	-0.215622	-236.326	1.454547E-5	NaN
1000	1.000000	0.803244	7.37484e+06	-50139.1	1055.82	-29756.7	0.000000	0.000000	6.803079	-0.011045	NaN	0.000000	0.001609	0.001731	28.0839	0.062834	0.002004	31.3466	150.858	-167.266	0.071559	0.801951	-0.207835	-0.209128	-0.011045	31.3466	-0.207571	-175.153	6.305984E-5	NaN
1000	1.000000	0.811230	7.37484e+06	-50139.1	1055.82	-29756.7	0.000000	0.000000	6.811064	-0.013186	NaN	0.000000	0.001590	0.001742	28.0837	0.107359	0.002030	52.8955	115.692	-166.722	-0.036700	0.809899	-0.199850	-0.201181	-0.013186	52.8955	-0.199663	-130.064	0.000101	NaN
1000	1.000000	0.819246	7.37484e+06	-50139.1	1055.82	-29756.7	0.000000	0.000000	6.819080	-0.017388	NaN	0.000000	0.001594	0.001698	28.084	0.049307	0.002008	24.5521	-33.6993	-165.777	-0.010232	0.817902	-0.191834	-0.193177	-0.017388	24.5521	-0.191303	-94.5728	0.000184	NaN
1000	1.000000	0.827241	7.37484e+06	-50139.1	1055.82	-29756.7	0.000000	0.000000	6.827077	0.006949	NaN	0.000000	0.001601	0.001720	28.0842	0.070920	0.002062	34.3952	103.356	-169.58	-0.093745	0.825917	-0.183838	-0.185163	0.006949	34.3952	-0.183990	-71.2999	-9.745549E-5	NaN
1000	1.000000	0.835225	7.37484e+06	-50139.1	1055.82	-29756.7	0.000000	0.000000	6.835060	0.011956	NaN	0.000000	0.001585	0.001695	28.0838	0.091302	0.002035	44.8558	2.970158	-164.34	0.015372	0.833959	-0.175855	-0.177121	0.011956	44.8558	-0.176055	-52.2499	-0.000229	NaN
1000	1.000000	0.843217	7.37484e+06	-50139.1	1055.82	-29756.7	0.000000	0.000000	6.843052	-0.008097	NaN	0.000000	0.001603	0.001674	28.0838	0.080773	0.001900	42.5171	171.571	-165.151	0.062349	0.841947	-0.167863	-0.169132	-0.008097	42.5171	-0.167720	-37.4903	0.000216	NaN
1000	1.000000	0.851254	7.37484e+06	-50139.1	1055.82	-29756.7	0.000000	0.000000	6.851090	0.019275	NaN	0.000000	0.001594	0.001642	28.0836	0.039457	0.001990	19.8293	-62.5392	-162.609	-0.088198	0.849917	-0.159825	-0.161162	0.019275	19.8293	-0.160555	-28.0435	-0.000687	NaN
1000	1.000000	0.859256	7.37484e+06	-50139.1	1055.82	-29756.7	0.000000	0.000000	6.859089	-0.043252	NaN	0.000000	0.001574	0.001664	28.0841	0.097782	0.002066	47.3361	-93.7099	-166.648	0.000392	0.857942	-0.151824	-0.153137	-0.043252	47.3361	-0.151139	-18.9993	0.002277	NaN
1000	1.000000	0.867260	7.37484e+06	-50139.1	1055.82	-29756.7	0.000000	0.000000	6.867097	0.051880	NaN	0.000000	0.001541	0.001646	28.0841	0.039478	0.001885	20.944	124.861	-167.104	0.055482	0.865920	-0.143820	-0.145159	0.051880	20.944	-0.145677	-15.09	-0.003438	NaN
1000	1.000000	0.875254	7.37484e+06	-50139.1	1055.82	-29756.7	0.000000	0.000000	6.875092	0.076309	NaN	0.000000	0.001589	0.001688	28.0837	0.088221	0.001978	44.6085	-43.6246	-165.415	0.051028	0.873965	-0.135826	-0.137114	0.076309	44.6085	-0.137109	-10.4331	-0.007314	NaN
1000	1.000000	0.883275	7.37484e+06	-50139.1	1055.82	-29756.7	0.000000	0.000000	6.883113	0.053740	NaN	0.000000	0.001572	0.001672	28.084	0.079989	0.002014	39.7248	19.294	-162.811	0.018135	0.881951	-0.127804	-0.129129	0.053740	39.7248	-0.128819	-7.227988	-0.007435	NaN
1000	1.000000	0.891240	7.37484e+06	-50139.1	1055.82	-29756.7	0.000000	0.000000	6.891072	-0.068956	NaN	0.000000	0.001564	0.001698	28.0839	0.080573	0.001930	41.7446	141.67	-159.101	-0.010845	0.889895	-0.119840	-0.121185	-0.068956	41.7446	-0.118601	-4.526506	0.015234	NaN
1000	1.000000	0.899272	7.37484e+06	-50139.1	1055.82	-29756.7	0.000000	0.000000	6.899108	0.014249	NaN	0.000000	0.001570	0.001641	28.084	0.069936	0.002008	34.8356	-49.5614	-165.858	-0.047627	0.897991	-0.111807	-0.113089	0.014249	34.8356	-0.112114	-3.328372	-0.004281	NaN
1000	1.000000	0.907248	7.37484e+06	-50139.1	1055.82	-29756.7	0.000000	0.000000	6.907085	0.041714	NaN	0.000000	0.001593	0.001687	28.0854	0.089197	0.002091	42.6673	-44.1159	-168.494	0.081976	0.905946	-0.103832	-0.105133	0.041714	42.6673	-0.104565	-2.300218	-0.018135	NaN
1000	1.000000	0.915271	7.37484e+06	-50139.1	1055.82	-29756.7	0.000000	0.000000	6.915107	0.036559	NaN	0.000000	0.001561	0.001684	28.0853	0.060993	0.001949	31.2977	-157.256	-165.178	0.037970	0.913978	-0.095809	-0.097102	0.036559	31.2977	-0.096685	-1.540371	-0.023734	NaN
1000	1.000000	0.923290	7.37484e+06	-50139.1	1055.82	-29756.7	0.000000	0.000000	6.923123	-0.053069	NaN	0.000000	0.001599	0.001645	28.0858	0.123583	0.002229	55.4466	49.3259	-167.989	-0.039397	0.922011	-0.087790	-0.089069	-0.053069	55.4466	-0.087072	-0.921497	0.057590	NaN
1000	1.000000	0.931263	7.37484e+06	-50139.1	1055.82	-29756.7	0.000000	0.000000	6.931099	0.030162	NaN	0.000000	0.001574	0.001676	28.0852	0.055037	0.002135	25.7745	-83.2866	-166.858	-0.018418	0.929959	-0.079817	-0.081121	0.030162	25.7745	-0.080694	-0.644181	-0.046823	NaN
1000	1.000000	0.939285	7.37484e+06	-50139.1	1055.82	-29756.7	0.000000	0.000000	6.939121	0.006607	NaN	0.000000	0.001562	0.001671	28.0856	0.052197	0.001848	28.2506	50.8803	-164.946	0.012201	0.938004	-0.071794	-0.073075	0.006607	28.2506	-0.071970	-0.384849	-0.017167	NaN
1000	1.000000	0.947314	7.37484e+06	-50139.1	1055.82	-29756.7	0.000000	0.000000	6.947144	-0.120380	NaN	0.000000	0.001570	0.001681	28.0856	0.056889	0.001864	30.5252	-117.519	-163.82	-0.117570	0.946029	-0.063766	-0.065051	-0.120380	30.5252	-0.060808	-0.189937	0.633786	NaN
1000	1.000000	0.955265	7.37484e+06	-50139.1	1055.82	-29756.7	0.000000	0.000000	6.955098	-0.042013	NaN	0.000000	0.001590	0.001653	28.0851	0.043217	0.001961	22.0362	178.065	-164.618	-0.029324	0.953965	-0.055815	-0.057114	-0.042013	22.0362	-0.054385	-0.123488	0.340219	NaN
1000	1.000000	0.963317	7.37484e+06	-50139.1	1055.82	-29756.7	0.000000	0.000000	6.963151	-0.034420	NaN	0.000000	0.001611	0.001670	28.0858	0.089071	0.002037	43.7235	177.597	-164.097	0.051138	0.961983	-0.047763	-0.049097	-0.034420	43.7235	-0.047172	-0.074876	0.459698	NaN
1000	1.000000	0.971264	7.37484e+06	-50139.1	1055.82	-29756.7	0.000000	0.000000	6.971100	0.037401	NaN	0.000000	0.001572	0.001673	28.0852	0.064980	0.002079	31.2575	-12.6871	-164.564	0.013603	0.969997	-0.039816	-0.041083	0.037401	31.2575	-0.040713	-0.047538	-0.786760	NaN
1000	1.000000	0.979260	7.37484e+06	-50139.1	1055.82	-29756.7	0.000000	0.000000	6.979092	-0.067819	NaN	0.000000	0.001591	0.001617	28.0856	0.131228	0.002155	60.8814	-106.956	-164.826	-0.070700	0.977992	-0.031820	-0.033088	-0.067819	60.8814	-0.030984	-0.024522	2.765587	NaN
1000	1.000000	0.987291	7.37484e+06	-50139.1	1055.82	-29756.7	0.000000	0.000000	6.987127	0.030512	NaN	0.000000	0.001596	0.001680	28.0854	0.041468	0.001803	23.0022	45.6649	-166.534	0.037986	0.985934	-0.023789	-0.025146	0.030512	23.0022	-0.024784	-0.016652	-1.832298	NaN
1000	1.000000	0.995302	7.37484e+06	-50139.1	1055.82	-29756.7	0.000000	0.000000	6.995141	0.086581	NaN	0.000000	0.001561	0.001699	28.0854	0.022032	0.002048	10.7576	86.5971	-163.472	0.102464	0.993993	-0.015777	-0.017087	0.086581	10.7576	-0.021813	-0.013967	-6.198810	NaN
1000	1.000000	1.003287	7.37484e+06	-50139.1	1055.82	-29756.7	0.000000	0.000000	7.003121	-0.009990	NaN	0.000000	0.001557	0.001701	28.0858	0.065624	0.001854	35.3926	99.5279	-163.467	0.019507	1.001982	-0.007793	-0.009097	-0.009990	35.3926	-0.007581	-0.004986	2.003783	NaN
1000	1.000000	1.011273	7.37484e+06	-50139.1	1055.82	-29756.7	0.000000	0.000000	7.011267	3.863680	NaN	0.000000	0.001557	0.001671	28.0854	4.771960	0.001804	2644.49	7.643949	-168.967	2.181728	1.009963	0.000193	-0.001117	3.863680	2644.49	-0.000903	-0.000663	-5826.15	NaN
1000	2.000000	1.015841	7.37484e+06	-50139.1	1055.82	-29756.7	0.000000	0.000000	7.016133	11.1113	NaN	0.000000	0.001543	0.001693	28.0857	9.454971	0.001520	6221.44	3.793019	-170.964	9.739601	1.015547	0.004762	0.004467	11.1113	6221.44	0.003422	0.002738	4057.59	108621
1000	2.000000	1.017876	7.37484e+06	-50139.1	1055.82	-29756.7	0.000000	0.000000	7.018288	14.0237	NaN	0.000000	0.001575	0.001685	28.0853	12.0763	0.001666	7247.43	5.079650	-171.759	13.7074	1.017530	0.006796	0.006451	14.0237	7247.43	0.005345	0.004451	3150.95	99253.9
1000	2.000000	1.019808	7.37484e+06	-50139.1	1055.82	-29756.7	0.000000	0.000000	7.020409	18.643	NaN	0.000000	0.001558	0.001673	28.0854	14.4771	0.001666	8689.84	8.354227	-175.787	18.7485	1.019481	0.008728	0.008402	18.643	8689.84	0.007119	0.006152	3030.52	101224
1000	2.000000	1.021816	7.37484e+06	-50139.1	1055.82	-29756.7	0.000000	0.000000	7.022482	20.2168	NaN	0.000000	0.001566	0.001699	28.0841	16.7074	0.001770	9438.46	6.052019	-173.406	19.9481	1.021453	0.010736	0.010373	20.2168	9438.46	0.009130	0.008230	2456.44	95054.3
1000	2.000000	1.023764	7.37484e+06	-50139.1	1055.82	-29756.7	0.000000	0.000000	7.024668	26.004	NaN	0.000000	0.001618	0.001651	28.0841	18.1478	0.001651	10994.6	6.070987	-175.968	24.9307	1.023422	0.012684	0.012343	26.004	10994.6	0.010910	0.010211	2546.74	99409.2
1000	2.000000	1.025736	7.37484e+06	-50139.1	1055.82	-29756.7	0.000000	0.000000	7.026736	28.3336	NaN	0.000000	0.001580	0.001648	28.0849	21.505	0.001835	11718.6	8.163117	179.615	26.3286	1.025401	0.014657	0.014321	28.3336	11718.6	0.012843	0.012516	2263.84	95701.7
1000	2.000000	1.027742	7.37484e+06	-50139.1	1055.82	-29756.7	0.000000	0.000000	7.028890	31.9326	NaN	0.000000	0.001566	0.001685	28.0841	22.9184	0.001762	13003.5	6.624517	-178.56	30.4062	1.027456	0.016662	0.016376	31.9326	13003.5	0.014820	0.015046	2122.29	96854
1000	2.000000	1.029795	7.37484e+06	-50139.1	1055.82	-29756.7	0.000000	0.000000	7.031286	40.2859	NaN	0.000000	0.001562	0.001678	28.0838	24.4373	0.001771	13800.7	6.134190	-178.062	41.4161	1.029467	0.018715	0.018388	40.2859	13800.7	0.016526	0.017374	2318.73	95658.1
1000	2.000000	1.031723	7.37484e+06	-50139.1	1055.82	-29756.7	0.000000	0.000000	7.033296	42.2555	NaN	0.000000	0.001570	0.001699	28.084	27.0443	0.001806	14972.4	4.772234	-177.985	40.3489	1.031406	0.020644	0.020327	42.2555	14972.4	0.018527	0.020280	2083.6	96057
1000	2.000000	1.033741	7.37484e+06	-50139.1	1055.82	-29756.7	0.000000	0.000000	7.035756	52.9928	NaN	0.000000	0.001571	0.001702	28.0841	28.5284	0.001777	16056.3	3.331624	-176.872	51.5529	1.033385	0.022662	0.022305	52.9928	16056.3	0.020186	0.022836	2320.58	97075.2
1000	2.000000	1.035764	7.37484e+06	-50139.1	1055.82	-29756.7	0.000000	0.000000	7.037718	51.524	NaN	0.000000	0.001557	0.001732	28.0843	31.3199	0.001806	17337.9	5.722756	179.798	51.4522	1.035372	0.024684	0.024292	51.524	17337.9	0.022456	0.026549	1940.73	97218
1000	2.000000	1.037848	7.37484e+06	-50139.1	1055.82	-29756.7	0.000000	0.000000	7.040109	59.0013	NaN	0.000000	0.001510	0.001725	28.084	32.7373	0.001951	16783.8	7.733495	-178.407	61.7308	1.037364	0.026768	0.026284	59.0013	16783.8	0.024132	0.029455	2003.1	89347.9
1000	2.000000	1.039741	7.37484e+06	-50139.1	1055.82	-29756.7	0.000000	0.000000	7.042060	60.4115	NaN	0.000000	0.001525	0.001668	28.0839	34.5188	0.001796	19218.9	3.843613	-178.877	59.7196	1.039381	0.028661	0.028301	60.4115	19218.9	0.026304	0.033431	1807.07	96035
1000	2.000000	1.041678	7.37484e+06	-50139.1	1055.82	-29756.7	0.000000	0.000000	7.044399	70.1671	NaN	0.000000	0.001581	0.001731	28.084	37.4119	0.001922	19464.8	3.821532	-178.694	67.1029	1.041404	0.030599	0.030324	70.1671	19464.8	0.027895	0.036494	1922.69	93091.8
1000	2.000000	1.043757	7.37484e+06	-50139.1	1055.82	-29756.7	0.000000	0.000000	7.046788	77.7189	NaN	0.000000	0.001558	0.001721	28.0842	39.0025	0.001753	22248.9	7.568483	176.093	77.9373	1.043402	0.032677	0.032322	77.7189	22248.9	0.030058	0.040863	1901.93	100558
1000	2.000000	1.045675	7.37484e+06	-50139.1	1055.82	-29756.7	0.000000	0.000000	7.049095	87.1918	NaN	0.000000	0.001552	0.001746	28.0841	40.9798	0.001822	22497.3	3.291103	179.822	84.5163	1.045432	0.034595	0.034353	87.1918	22497.3	0.031689	0.044316	1967.48	97638.7
1000	2.000000	1.047726	7.37484e+06	-50139.1	1055.82	-29756.7	0.000000	0.000000	7.051587	97.9032	NaN	0.000000	0.001565	0.001717	28.0844	43.0037	0.001820	23632.7	1.452427	-178.125	95.8119	1.047418	0.036646	0.036339	97.9032	23632.7	0.033539	0.048399	2022.83	98145
1000	2.000000	1.049681	7.37484e+06	-50139.1	1055.82	-29756.7	0.000000	0.000000	7.054060	110.491	NaN	0.000000	0.001571	0.001706	28.0844	45.1663	0.001846	24471.7	8.667538	174.458	106.59	1.049380	0.038601	0.038300	110.491	24471.7	0.035215	0.052248	2114.74	97814.4
1000	2.000000	1.051700	7.37484e+06	-50139.1	1055.82	-29756.7	0.000000	0.000000	7.056355	117.208	NaN	0.000000	0.001574	0.001679	28.0842	47.2253	0.001727	27351.1	1.887112	179.939	115.109	1.051357	0.040620	0.040278	117.208	27351.1	0.037406	0.057497	2038.5	104214
1000	2.000000	1.053695	7.37484e+06	-50139.1	1055.82	-29756.7	0.000000	0.000000	7.059043	134.078	NaN	0.000000	0.001549	0.001707	28.0842	47.6475	0.001681	28336.5	1.657591	-179.959	132.175	1.053377	0.042615	0.042297	134.078	28336.5	0.039067	0.061638	2175.24	104278
1000	2.000000	1.055708	7.37484e+06	-50139.1	1055.82	-29756.7	0.000000	0.000000	7.061299	139.96	NaN	0.000000	0.001579	0.001707	28.0854	52.6144	0.001806	29129.6	7.210279	173.277	138.622	1.055481	0.044629	0.044402	139.96	29129.6	0.041025	0.066705	2098.19	103046
1000	2.000000	1.057796	7.37484e+06	-50139.1	1055.82	-29756.7	0.000000	0.000000	7.064000	154.875	NaN	0.000000	0.001550	0.001696	28.0853	53.6321	0.001695	31645.4	8.058285	173.275	156.616	1.057307	0.046717	0.046227	154.875	31645.4	0.043046	0.072137	2146.95	107648
1000	2.000000	1.059659	7.37484e+06	-50139.1	1055.82	-29756.7	0.000000	0.000000	7.066083	160.251	NaN	0.000000	0.001575	0.001672	28.0855	55.8801	0.001807	30917.2	4.621209	176.178	156.94	1.059446	0.048579	0.048367	160.251	30917.2	0.044692	0.076714	2088.93	101985
1000	2.000000	1.061643	7.37484e+06	-50139.1	1055.82	-29756.7	0.000000	0.000000	7.068567	172.402	NaN	0.000000	0.001535	0.001672	28.0853	56.7363	0.001849	30680.7	1.164609	-179.856	170.837	1.061361	0.050563	0.050282	172.402	30680.7	0.046349	0.081463	2116.33	98210.8
1000	2.000000	1.063653	7.37484e+06	-50139.1	1055.82	-29756.7	0.000000	0.000000	7.070988	182.381	NaN	0.000000	0.001560	0.001724	28.0855	59.4068	0.001753	33894.3	9.085043	170.109	178.364	1.063419	0.052574	0.052339	182.381	33894.3	0.048538	0.087949	2073.72	104421
1000	2.000000	1.065750	7.37484e+06	-50139.1	1055.82	-29756.7	0.000000	0.000000	7.073413	190.364	NaN	0.000000	0.001593	0.001721	28.0852	61.1058	0.001823	33526.9	5.423814	174.54	194.005	1.065390	0.054671	0.054310	190.364	33526.9	0.050412	0.093692	2031.8	100073
1000	2.000000	1.067711	7.37484e+06	-50139.1	1055.82	-29756.7	0.000000	0.000000	7.075727	198.948	NaN	0.000000	0.001566	0.001710	28.0853	63.1582	0.001846	34216.1	4.751939	175.614	197.47	1.067494	0.056631	0.056415	198.948	34216.1	0.052271	0.099561	1998.26	99074
1000	2.000000	1.069598	7.37484e+06	-50139.1	1055.82	-29756.7	0.000000	0.000000	7.077950	207.123	NaN	0.000000	0.001539	0.001745	28.0855	63.9043	0.001782	35869.2	6.662304	172.819	200.733	1.069289	0.058518	0.058209	207.123	35869.2	0.054187	0.105794	1957.79	100755
1000	2.000000	1.071702	7.37484e+06	-50139.1	1055.82	-29756.7	0.000000	0.000000	7.080684	222.435	NaN	0.000000	0.001523	0.001731	28.0854	66.6255	0.001816	36679.7	4.908501	174.671	221.521	1.071307	0.060623	0.060227	222.435	36679.7	0.056075	0.112110	1984.08	100087
1000	2.000000	1.073673	7.37484e+06	-50139.1	1055.82	-29756.7	0.000000	0.000000	7.082918	228.851	NaN	0.000000	0.001573	0.001679	28.0857	67.3758	0.001633	41250.1	6.271898	170.968	225.983	1.073453	0.062593	0.062373	228.851	41250.1	0.058432	0.120246	1903.19	108683
1000	2.000000	1.075684	7.37484e+06	-50139.1	1055.82	-29756.7	0.000000	0.000000	7.085572	244.475	NaN	0.000000	0.001539	0.001682	28.0852	70.5941	0.001772	39839.2	3.867837	174.608	243.463	1.075290	0.064605	0.064210	244.475	39839.2	0.060002	0.125817	1943.1	102616
1000	2.000000	1.077678	7.37484e+06	-50139.1	1055.82	-29756.7	0.000000	0.000000	7.088177	259.327	NaN	0.000000	0.001584	0.001676	28.0852	72.3024	0.001780	40610	9.488936	168.952	258.234	1.077355	0.066599	0.066275	259.327	40610	0.061810	0.132377	1959.01	101976
1000	2.000000	1.079781	7.37484e+06	-50139.1	1055.82	-29756.7	0.000000	0.000000	7.090350	261.022	NaN	0.000000	0.001558	0.001675	28.0854	73.7295	0.001748	42181.1	7.546729	170.807	266.907	1.079429	0.068701	0.068350	261.022	42181.1	0.064060	0.140769	1854.25	102716
1000	2.000000	1.081640	7.37484e+06	-50139.1	1055.82	-29756.7	0.000000	0.000000	7.092650	271.761	NaN	0.000000	0.001559	0.001680	28.0852	75.6607	0.001914	39534.2	3.826530	174.207	269.194	1.081469	0.070561	0.070390	271.761	39534.2	0.065405	0.145901	1862.64	94562.2
1000	2.000000	1.083640	7.37484e+06	-50139.1	1055.82	-29756.7	0.000000	0.000000	7.095300	287.572	NaN	0.000000	0.001552	0.001703	28.0853	76.2672	0.001802	42330.3	0.308790	177.59	284.026	1.083378	0.072561	0.072298	287.572	42330.3	0.067466	0.153931	1868.19	98573.9
1000	2.000000	1.085657	7.37484e+06	-50139.1	1055.82	-29756.7	0.000000	0.000000	7.098167	308.256	NaN	0.000000	0.001645	0.001711	28.0852	79.0644	0.001858	42556.5	3.505427	173.983	305.467	1.085463	0.074577	0.074384	308.256	42556.5	0.069144	0.160625	1919.11	97013.6
1000	2.000000	1.087632	7.37484e+06	-50139.1	1055.82	-29756.7	0.000000	0.000000	7.100875	326.068	NaN	0.000000	0.001609	0.001691	28.0854	80.8297	0.001778	45471	2.695817	174.866	320.249	1.087231	0.076553	0.076151	326.068	45471	0.071174	0.168898	1930.56	101087
1000	2.000000	1.089688	7.37484e+06	-50139.1	1055.82	-29756.7	0.000000	0.000000	7.103432	338.238	NaN	0.000000	0.001503	0.001696	28.0842	82.1901	0.001735	47368	5.634193	171.788	340.169	1.089326	0.078609	0.078246	338.238	47368	0.073253	0.177573	1904.78	102700
1000	2.000000	1.091708	7.37484e+06	-50139.1	1055.82	-29756.7	0.000000	0.000000	7.106188	356.138	NaN	0.000000	0.001575	0.001728	28.0838	85.091	0.001799	47301.8	4.053144	173.967	354.832	1.091218	0.080629	0.080139	356.138	47301.8	0.074982	0.184943	1925.67	100492
1000	2.000000	1.093626	7.37484e+06	-50139.1	1055.82	-29756.7	0.000000	0.000000	7.108825	373.617	NaN	0.000000	0.001569	0.001706	28.0837	86.5923	0.001839	47078.6	4.709763	172.286	370.329	1.093304	0.082547	0.082224	373.617	47078.6	0.076595	0.191944	1946.49	98177.1
1000	2.000000	1.095611	7.37484e+06	-50139.1	1055.82	-29756.7	0.000000	0.000000	7.111160	382.125	NaN	0.000000	0.001572	0.001739	28.0837	88.6507	0.001792	49482	5.650285	171.132	377.213	1.095250	0.084532	0.084170	382.125	49482	0.078740	0.201447	1896.9	100726
1000	2.000000	1.097746	7.37484e+06	-50139.1	1055.82	-29756.7	0.000000	0.000000	7.113944	397.929	NaN	0.000000	0.001591	0.001747	28.0838	90.7532	0.001778	51051.5	5.475588	171.237	400.115	1.097357	0.086667	0.086278	397.929	51051.5	0.080821	0.210868	1887.1	101573
1000	2.000000	1.099567	7.37484e+06	-50139.1	1055.82	-29756.7	0.000000	0.000000	7.116391	413.135	NaN	0.000000	0.001579	0.001759	28.0836	91.749	0.001800	50962.8	6.771480	169.84	407.911	1.099251	0.088488	0.088172	413.135	50962.8	0.082408	0.218191	1893.46	99680.2
1000	2.000000	1.101700	7.37484e+06	-50139.1	1055.82	-29756.7	0.000000	0.000000	7.118872	421.611	NaN	0.000000	0.001628	0.001748	28.0832	94.3893	0.001779	53050	5.583173	170.52	422.468	1.101396	0.090621	0.090317	421.611	53050	0.084660	0.228784	1842.84	101332
1000	2.000000	1.103638	7.37484e+06	-50139.1	1055.82	-29756.7	0.000000	0.000000	7.121554	439.713	NaN	0.000000	0.001573	0.001736	28.0836	95.2131	0.001809	52623.8	7.418853	168.406	437.511	1.103328	0.092558	0.092248	439.713	52623.8	0.086292	0.236601	1858.46	98843.2
1000	2.000000	1.105561	7.37484e+06	-50139.1	1055.82	-29756.7	0.000000	0.000000	7.124440	463.14	NaN	0.000000	0.001542	0.001731	28.0836	96.9259	0.001863	52024.1	4.499374	172.131	457.82	1.105255	0.094481	0.094176	463.14	52024.1	0.087804	0.243961	1898.42	96231.5
1000	2.000000	1.107729	7.37484e+06	-50139.1	1055.82	-29756.7	0.000000	0.000000	7.126735	466.213	NaN	0.000000	0.001598	0.001749	28.0837	99.0663	0.001704	58132.7	5.073430	170.655	467.003	1.107423	0.096650	0.096343	466.213	58132.7	0.090635	0.258013	1806.94	104562
1000	2.000000	1.109725	7.37484e+06	-50139.1	1055.82	-29756.7	0.000000	0.000000	7.129410	482.71	NaN	0.000000	0.001593	0.001729	28.0838	99.8037	0.001787	55858.2	4.765123	171.413	487.077	1.109465	0.098646	0.098385	482.71	55858.2	0.092164	0.265759	1816.34	98995.6
1000	2.000000	1.111799	7.37484e+06	-50139.1	1055.82	-29756.7	0.000000	0.000000	7.132324	503.167	NaN	0.000000	0.001556	0.001767	28.0836	103.002	0.001826	56400.4	4.562082	171.458	510.841	1.111301	0.100719	0.100221	503.167	56400.4	0.094028	0.275343	1827.42	98201.6
1000	2.000000	1.113079	7.37484e+06	-50139.1	1055.82	-29756.7	0.000000	0.000000	7.134543	525.982	NaN	0.000000	0.001547	0.001781	28.0836	102.716	0.001763	58278	6.715349	-10.4548	520.656	1.112577	0.102000	0.101498	525.982	58278	0.095231	0.281612	1867.76	100335