File: remote_trans/data/nanoindenter/0828-1/data/Data_2025-08-06,11h17m57s/2025-07-22_16-23-58_1_243.txt
2025-07-22, 16:23:58, 1
Index	Phase	Displacement	Time	Pos X	Pos Y	Pos Z	Rot A	Rot B	Piezo Z	Force A	Force B	Gripper	Voltage A	Voltage B	Temperature	Amplitude force	Amplitude pos	Stiffness	Phase shift	Phase excitation	Force A raw	Displacement raw	HMax	HMax raw	Real Force	Real Stiffness	Contact Depth	Area	Hardness	Reduced Mod.
[#]	[#]	[um]	[s]	[um]	[um]	[um]	[m°]	[m°]	[um]	[uN]	[uN]	[V]	[V]	[V]	[°C]	[uN]	[um]	[N/m]	[°]	[°]	[uN]	[um]	[um]	[um]	[uN]	[N/m]	[um]	[um^2]	[MPa]	[MPa]
243	1.000000	0.002546	7.36742e+06	-50789.1	955.818	-29754.9	0.000000	0.000000	6.002829	0.037303	NaN	0.000000	0.001590	0.001687	28.079	0.063439	0.000936	67.7706	128.276	-170.483	-0.045704	0.001244	-1.066575	-1.067877	0.037303	67.7706	-1.066988	-1.806022E+14	-2.065482E-16	NaN
243	1.000000	0.010476	7.36742e+06	-50789.1	955.819	-29754.9	0.000000	0.000000	6.010757	-0.020825	NaN	0.000000	0.001585	0.001698	28.0788	0.068912	0.001005	68.5827	148.919	-166.029	-0.119701	0.009146	-1.058645	-1.059976	-0.020825	68.5827	-1.058417	-1.385319E+14	1.503294E-16	NaN
243	1.000000	0.018472	7.36742e+06	-50789.1	955.819	-29754.9	0.000000	0.000000	6.018753	-0.001610	NaN	0.000000	0.001554	0.001698	28.0803	0.041962	0.001811	23.1677	-18.9456	-166.01	0.061401	0.017163	-1.050649	-1.051959	-0.001610	23.1677	-1.050597	-1.087526E+14	1.480397E-17	NaN
243	1.000000	0.026510	7.36742e+06	-50789.1	955.818	-29754.9	0.000000	0.000000	6.026790	-0.029714	NaN	0.000000	0.001554	0.001685	28.0801	0.014448	0.001916	7.541657	41.0873	-166.368	0.020660	0.025204	-1.042612	-1.043917	-0.029714	7.541657	-1.039657	-7.750878E+13	3.833585E-16	NaN
243	1.000000	0.034482	7.36742e+06	-50789.1	955.818	-29754.9	0.000000	0.000000	6.034761	-0.058236	NaN	0.000000	0.001587	0.001705	28.0799	0.026826	0.001914	14.0165	-134.751	-167.426	-0.063134	0.033175	-1.034639	-1.035946	-0.058236	14.0165	-1.031523	-6.025105E+13	9.665606E-16	NaN
243	1.000000	0.042476	7.36742e+06	-50789.1	955.819	-29754.9	0.000000	0.000000	6.042757	-0.022439	NaN	0.000000	0.001596	0.001679	28.0806	0.115225	0.002004	57.5038	164.935	-165.686	-0.035631	0.041174	-1.026645	-1.027947	-0.022439	57.5038	-1.026352	-5.133529E+13	4.371157E-16	NaN
243	1.000000	0.050490	7.36742e+06	-50789.1	955.818	-29754.9	0.000000	0.000000	6.050770	-0.025953	NaN	0.000000	0.001561	0.001694	28.0798	0.051017	0.001913	26.6716	-173.265	-165.272	-0.044142	0.049183	-1.018631	-1.019938	-0.025953	26.6716	-1.017902	-3.951107E+13	6.568587E-16	NaN
243	1.000000	0.058461	7.36742e+06	-50789.1	955.818	-29754.9	0.000000	0.000000	6.058745	0.063294	NaN	0.000000	0.001585	0.001662	28.0804	0.113493	0.002134	53.1719	-98.712	-163.961	0.003948	0.057188	-1.010661	-1.011933	0.063294	53.1719	-1.011553	-3.245543E+13	-1.950185E-15	NaN
243	1.000000	0.066465	7.36742e+06	-50789.1	955.818	-29754.9	0.000000	0.000000	6.066747	0.025321	NaN	0.000000	0.001596	0.001708	28.08	0.060085	0.002067	29.0718	-24.889	-167.498	-0.015356	0.065194	-1.002656	-1.003927	0.025321	29.0718	-1.003310	-2.513773E+13	-1.007281E-15	NaN
243	1.000000	0.074466	7.36742e+06	-50789.1	955.818	-29754.9	0.000000	0.000000	6.074748	0.005773	NaN	0.000000	0.001599	0.001679	28.0799	0.092480	0.002094	44.1575	-56.3679	-166.999	-0.046021	0.073187	-0.994655	-0.995934	0.005773	44.1575	-0.994753	-1.928054E+13	-2.993997E-16	NaN
243	1.000000	0.082515	7.36742e+06	-50789.1	955.818	-29754.9	0.000000	0.000000	6.082794	-0.045471	NaN	0.000000	0.001580	0.001695	28.0802	0.028385	0.001862	15.2474	12.936	-166.231	-0.118024	0.081194	-0.986606	-0.987927	-0.045471	15.2474	-0.984370	-1.397261E+13	3.254260E-15	NaN
243	1.000000	0.090492	7.36742e+06	-50789.1	955.818	-29754.9	0.000000	0.000000	6.090774	0.012442	NaN	0.000000	0.001531	0.001709	28.0801	0.023571	0.001978	11.9177	-50.5813	-166.207	-0.028054	0.089171	-0.978629	-0.979951	0.012442	11.9177	-0.979412	-1.198098E+13	-1.038449E-15	NaN
243	1.000000	0.098459	7.36742e+06	-50789.1	955.818	-29754.9	0.000000	0.000000	6.098738	-0.043798	NaN	0.000000	0.001580	0.001672	28.0805	0.013692	0.001881	7.279603	27.9694	-167.668	-0.072439	0.097172	-0.970663	-0.971949	-0.043798	7.279603	-0.966150	-7.939158E+12	5.516717E-15	NaN
243	1.000000	0.106507	7.36742e+06	-50789.1	955.818	-29754.9	0.000000	0.000000	6.106790	0.043998	NaN	0.000000	0.001584	0.001709	28.0799	0.018482	0.001992	9.279693	14.2261	-167.611	0.038315	0.105155	-0.962614	-0.963967	0.043998	9.279693	-0.966170	-7.944076E+12	-5.538489E-15	NaN
243	1.000000	0.114503	7.36742e+06	-50789.1	955.819	-29754.9	0.000000	0.000000	6.114783	-0.041953	NaN	0.000000	0.001570	0.001700	28.08	0.083151	0.002052	40.5144	-101.995	-166.691	-0.064229	0.113243	-0.954618	-0.955878	-0.041953	40.5144	-0.953842	-5.417955E+12	7.743297E-15	NaN
243	1.000000	0.122495	7.36742e+06	-50789.1	955.818	-29754.9	0.000000	0.000000	6.122775	-0.026370	NaN	0.000000	0.001602	0.001698	28.0801	0.040903	0.001992	20.533	-169.063	-171.897	-0.024877	0.121244	-0.946627	-0.947877	-0.026370	20.533	-0.945663	-4.202783E+12	6.274521E-15	NaN
243	1.000000	0.130485	7.36742e+06	-50789.1	955.819	-29754.9	0.000000	0.000000	6.130764	-0.055359	NaN	0.000000	0.001566	0.001700	28.0801	0.036305	0.002086	17.407	24.2686	-165.206	-0.013547	0.129218	-0.938636	-0.939903	-0.055359	17.407	-0.936251	-3.137288E+12	1.764564E-14	NaN
243	1.000000	0.138485	7.36742e+06	-50789.1	955.819	-29754.9	0.000000	0.000000	6.138770	0.068863	NaN	0.000000	0.001548	0.001675	28.0805	0.051275	0.002069	24.7799	-39.5903	-170.018	0.046676	0.137186	-0.930636	-0.931936	0.068863	24.7799	-0.932720	-2.811306E+12	-2.449520E-14	NaN
243	1.000000	0.146507	7.36742e+06	-50789.1	955.819	-29754.9	0.000000	0.000000	6.146786	-0.051589	NaN	0.000000	0.001557	0.001691	28.0799	0.114731	0.001932	59.3878	167.296	-169.285	-0.006556	0.145213	-0.922615	-0.923908	-0.051589	59.3878	-0.921963	-2.012383E+12	2.563571E-14	NaN
243	1.000000	0.154525	7.36742e+06	-50789.1	955.819	-29754.9	0.000000	0.000000	6.154806	-0.012341	NaN	0.000000	0.001572	0.001664	28.0796	0.047071	0.001978	23.8027	64.6178	-165.242	-0.002808	0.153189	-0.914597	-0.915932	-0.012341	23.8027	-0.914208	-1.581217E+12	7.804730E-15	NaN
243	1.000000	0.162513	7.36742e+06	-50789.1	955.818	-29754.9	0.000000	0.000000	6.162794	-0.018862	NaN	0.000000	0.001592	0.001665	28.079	0.044614	0.002069	21.5623	16.6695	-166.225	-0.057804	0.161221	-0.906608	-0.907901	-0.018862	21.5623	-0.905952	-1.223160E+12	1.542108E-14	NaN
243	1.000000	0.170518	7.36742e+06	-50789.1	955.818	-29754.9	0.000000	0.000000	6.170795	-0.097872	NaN	0.000000	0.001603	0.001643	28.0788	0.099953	0.002010	49.7397	149.825	-165.46	-0.034488	0.169210	-0.898603	-0.899911	-0.097872	49.7397	-0.897128	-9.295043E+11	1.052952E-13	NaN
243	1.000000	0.178550	7.36742e+06	-50789.1	955.818	-29754.9	0.000000	0.000000	6.178828	-0.058024	NaN	0.000000	0.001586	0.001670	28.079	0.037960	0.001911	19.8648	151.598	-166.548	-0.005511	0.177167	-0.890572	-0.891954	-0.058024	19.8648	-0.888381	-7.079950E+11	8.195558E-14	NaN
243	1.000000	0.186513	7.36742e+06	-50789.1	955.818	-29754.9	0.000000	0.000000	6.186795	0.035615	NaN	0.000000	0.001536	0.001657	28.0788	0.017323	0.002035	8.510710	30.1826	-168.082	0.005292	0.185190	-0.882609	-0.883931	0.035615	8.510710	-0.885747	-6.522609E+11	-5.460248E-14	NaN
243	1.000000	0.194523	7.36742e+06	-50789.1	955.819	-29754.9	0.000000	0.000000	6.194803	-0.029383	NaN	0.000000	0.001557	0.001664	28.0793	0.039328	0.002090	18.8134	-178.079	-166.764	0.005307	0.193247	-0.874599	-0.875874	-0.029383	18.8134	-0.873427	-4.444384E+11	6.611272E-14	NaN
243	1.000000	0.202514	7.36742e+06	-50789.1	955.818	-29754.9	0.000000	0.000000	6.202796	0.012387	NaN	0.000000	0.001583	0.001668	28.0792	0.013985	0.002005	6.974997	-115.39	-163.489	-0.020072	0.201236	-0.866607	-0.867885	0.012387	6.974997	-0.867939	-3.745959E+11	-3.306748E-14	NaN
243	1.000000	0.210513	7.36742e+06	-50789.1	955.817	-29754.9	0.000000	0.000000	6.210794	0.005136	NaN	0.000000	0.001603	0.001683	28.0791	0.056447	0.002062	27.3791	-87.5133	-166.746	-0.043032	0.209213	-0.858608	-0.859908	0.005136	27.3791	-0.858749	-2.813127E+11	-1.825559E-14	NaN
243	1.000000	0.218532	7.36742e+06	-50789.1	955.819	-29754.9	0.000000	0.000000	6.218812	-0.029198	NaN	0.000000	0.001563	0.001683	28.0789	0.045787	0.001912	23.9496	-137.252	-168.092	-0.083721	0.217257	-0.850589	-0.851864	-0.029198	23.9496	-0.849675	-2.119977E+11	1.377257E-13	NaN
243	1.000000	0.226539	7.36742e+06	-50789.1	955.819	-29754.9	0.000000	0.000000	6.226820	0.007067	NaN	0.000000	0.001561	0.001682	28.0789	0.038103	0.001988	19.1673	72.1473	-165.447	-0.021154	0.225208	-0.842582	-0.843913	0.007067	19.1673	-0.842859	-1.714044E+11	-4.123121E-14	NaN
243	1.000000	0.234557	7.36742e+06	-50789.1	955.818	-29754.9	0.000000	0.000000	6.234837	-0.038829	NaN	0.000000	0.001581	0.001670	28.0793	0.143282	0.002056	69.6864	102.24	-166.557	-0.029462	0.233195	-0.834564	-0.835926	-0.038829	69.6864	-0.834146	-1.306106E+11	2.972849E-13	NaN
243	1.000000	0.242559	7.36742e+06	-50789.1	955.819	-29754.9	0.000000	0.000000	6.242838	-0.050591	NaN	0.000000	0.001580	0.001714	28.079	0.052473	0.001975	26.562	-40.8303	-167.012	-0.034137	0.241209	-0.826562	-0.827912	-0.050591	26.562	-0.825134	-9.858747E+10	5.131620E-13	NaN
243	1.000000	0.250557	7.36742e+06	-50789.1	955.82	-29754.9	0.000000	0.000000	6.250839	0.026558	NaN	0.000000	0.001584	0.001711	28.0791	0.076156	0.001944	39.1686	108.324	-167.194	-0.026690	0.249270	-0.818564	-0.819852	0.026558	39.1686	-0.819073	-8.159042E+10	-3.255067E-13	NaN
243	1.000000	0.258562	7.36742e+06	-50789.1	955.818	-29754.9	0.000000	0.000000	6.258842	-0.037637	NaN	0.000000	0.001551	0.001694	28.079	0.043263	0.002068	20.9168	111.635	-165.59	0.042726	0.257265	-0.810559	-0.811856	-0.037637	20.9168	-0.809210	-5.995874E+10	6.277108E-13	NaN
243	1.000000	0.266532	7.36742e+06	-50789.1	955.818	-29754.9	0.000000	0.000000	6.266811	-0.060859	NaN	0.000000	0.001551	0.001690	28.0793	0.031892	0.001950	16.3589	-133.251	-167.67	-0.007027	0.265242	-0.802589	-0.803880	-0.060859	16.3589	-0.799799	-4.468173E+10	1.362052E-12	NaN
243	1.000000	0.274549	7.36742e+06	-50789.1	955.819	-29754.9	0.000000	0.000000	6.274830	0.000740	NaN	0.000000	0.001598	0.001673	28.0796	0.075937	0.001875	40.5056	123.138	-166.536	0.027297	0.273274	-0.794572	-0.795847	0.000740	40.5056	-0.794586	-3.796313E+10	-1.948506E-14	NaN
243	1.000000	0.282559	7.36742e+06	-50789.1	955.819	-29754.9	0.000000	0.000000	6.282840	-0.001488	NaN	0.000000	0.001565	0.001684	28.079	0.114651	0.001885	60.8186	-93.5852	-166.645	0.038965	0.281258	-0.786562	-0.787863	-0.001488	60.8186	-0.786544	-2.952146E+10	5.038907E-14	NaN
243	1.000000	0.290602	7.36742e+06	-50789.1	955.818	-29754.9	0.000000	0.000000	6.290882	-0.016232	NaN	0.000000	0.001613	0.001656	28.0797	0.029691	0.001970	15.0681	-126.407	-163.748	-0.042725	0.289191	-0.778520	-0.779931	-0.016232	15.0681	-0.777712	-2.239406E+10	7.248322E-13	NaN
243	1.000000	0.298580	7.36742e+06	-50789.1	955.818	-29754.9	0.000000	0.000000	6.298859	-0.044876	NaN	0.000000	0.001586	0.001658	28.0805	0.015799	0.002102	7.517386	-67.4561	-165.735	-0.030325	0.297293	-0.770542	-0.771828	-0.044876	7.517386	-0.766065	-1.555219E+10	2.885484E-12	NaN
243	1.000000	0.306583	7.36742e+06	-50789.1	955.82	-29754.9	0.000000	0.000000	6.306864	0.004814	NaN	0.000000	0.001623	0.001704	28.0804	0.028869	0.001985	14.5432	-38.2413	-163.805	-0.035823	0.305250	-0.762539	-0.763871	0.004814	14.5432	-0.762787	-1.403501E+10	-3.430131E-13	NaN
243	1.000000	0.314583	7.36742e+06	-50789.1	955.819	-29754.9	0.000000	0.000000	6.314867	0.049515	NaN	0.000000	0.001651	0.001686	28.0801	0.167568	0.002011	83.3085	-103.118	-166.609	0.023449	0.313246	-0.754538	-0.755875	0.049515	83.3085	-0.754984	-1.099129E+10	-4.504930E-12	NaN
243	1.000000	0.322586	7.36742e+06	-50789.1	955.818	-29754.9	0.000000	0.000000	6.322866	-0.021618	NaN	0.000000	0.001672	0.001710	28.0802	0.044725	0.002035	21.9796	161.111	-165.471	-0.090185	0.321266	-0.746536	-0.747855	-0.021618	21.9796	-0.745798	-8.241663E+9	2.622981E-12	NaN
243	1.000000	0.330573	7.36742e+06	-50789.1	955.818	-29754.9	0.000000	0.000000	6.330854	-0.001750	NaN	0.000000	0.001642	0.001690	28.0806	0.077672	0.001980	39.235	-6.358473	-166.616	-0.030868	0.329285	-0.738548	-0.739836	-0.001750	39.235	-0.738515	-6.558845E+9	2.668911E-13	NaN
243	1.000000	0.338625	7.36742e+06	-50789.1	955.818	-29754.9	0.000000	0.000000	6.338906	-0.009382	NaN	0.000000	0.001645	0.001709	28.0802	0.071091	0.002135	33.2944	-59.7482	-167.431	-0.010445	0.337268	-0.730496	-0.731853	-0.009382	33.2944	-0.730285	-5.066302E+9	1.851764E-12	NaN
243	1.000000	0.346573	7.36742e+06	-50789.1	955.818	-29754.9	0.000000	0.000000	6.346854	-0.011300	NaN	0.000000	0.001664	0.001663	28.0802	0.106581	0.002052	51.9511	-159.328	-168.535	0.018891	0.345262	-0.722548	-0.723859	-0.011300	51.9511	-0.722385	-3.953613E+9	2.858020E-12	NaN
243	1.000000	0.354595	7.36742e+06	-50789.1	955.819	-29754.9	0.000000	0.000000	6.354875	-0.029840	NaN	0.000000	0.001639	0.001723	28.0801	0.070121	0.002027	34.5912	127.153	-164.914	-0.006344	0.353330	-0.714526	-0.715792	-0.029840	34.5912	-0.713879	-3.026763E+9	9.858827E-12	NaN
243	1.000000	0.362588	7.36742e+06	-50789.1	955.818	-29754.9	0.000000	0.000000	6.362868	-0.032250	NaN	0.000000	0.001623	0.001736	28.0801	0.040447	0.001986	20.3621	-130.55	-167.382	-0.054410	0.361279	-0.706533	-0.707843	-0.032250	20.3621	-0.705345	-2.314799E+9	1.393228E-11	NaN
243	1.000000	0.370590	7.36742e+06	-50789.1	955.819	-29754.9	0.000000	0.000000	6.370871	-0.013298	NaN	0.000000	0.001635	0.001733	28.0806	0.101609	0.001989	51.0955	-64.6816	-167.91	-0.048827	0.369270	-0.698531	-0.699851	-0.013298	51.0955	-0.698336	-1.856965E+9	7.161008E-12	NaN
243	1.000000	0.378607	7.36742e+06	-50789.1	955.819	-29754.9	0.000000	0.000000	6.378887	-0.039406	NaN	0.000000	0.001609	0.001665	28.0801	0.099333	0.001987	49.9985	94.5319	-167.261	-0.122962	0.377319	-0.690514	-0.691802	-0.039406	49.9985	-0.689923	-1.425170E+9	2.764995E-11	NaN
243	1.000000	0.386587	7.36742e+06	-50789.1	955.819	-29754.9	0.000000	0.000000	6.386869	0.003818	NaN	0.000000	0.001601	0.001672	28.0802	0.068280	0.002035	33.5556	0.962209	-163.358	0.003575	0.385300	-0.682534	-0.683821	0.003818	33.5556	-0.682619	-1.132463E+9	-3.371721E-12	NaN
243	1.000000	0.394595	7.36742e+06	-50789.1	955.819	-29754.9	0.000000	0.000000	6.394877	0.017786	NaN	0.000000	0.001633	0.001694	28.0799	0.076839	0.002019	38.065	81.2005	-165.219	-0.017354	0.393417	-0.674527	-0.675704	0.017786	38.065	-0.674877	-8.874171E+8	-2.004283E-11	NaN
243	1.000000	0.402620	7.36742e+06	-50789.1	955.819	-29754.9	0.000000	0.000000	6.402904	0.065683	NaN	0.000000	0.001611	0.001698	28.0797	0.054885	0.001902	28.8628	149.666	-166.805	0.067841	0.401282	-0.666501	-0.667839	0.065683	28.8628	-0.668208	-7.192137E+8	-9.132644E-11	NaN
243	1.000000	0.410597	7.36742e+06	-50789.1	955.819	-29754.9	0.000000	0.000000	6.410878	0.012286	NaN	0.000000	0.001615	0.001659	28.0802	0.045995	0.001944	23.6545	176.75	-166.61	-0.091629	0.409334	-0.658525	-0.659787	0.012286	23.6545	-0.658914	-5.365327E+8	-2.289844E-11	NaN
243	1.000000	0.418628	7.36742e+06	-50789.1	955.819	-29754.9	0.000000	0.000000	6.418906	-0.087978	NaN	0.000000	0.001599	0.001716	28.08	0.109884	0.002052	53.5382	-147.47	-165.678	-0.033185	0.417315	-0.650493	-0.651807	-0.087978	53.5382	-0.649261	-3.956422E+8	2.223685E-10	NaN
243	1.000000	0.426616	7.36742e+06	-50789.1	955.818	-29754.9	0.000000	0.000000	6.426895	-0.036396	NaN	0.000000	0.001640	0.001721	28.0802	0.065345	0.002066	31.6253	155.105	-168.099	0.019693	0.425375	-0.642506	-0.643746	-0.036396	31.6253	-0.641643	-3.110474E+8	1.170106E-10	NaN
243	1.000000	0.434638	7.36742e+06	-50789.1	955.818	-29754.9	0.000000	0.000000	6.434920	0.008735	NaN	0.000000	0.001620	0.001728	28.0787	0.040865	0.002015	20.2786	116.618	-166.207	-0.019308	0.433368	-0.634483	-0.635753	0.008735	20.2786	-0.634806	-2.506186E+8	-3.485273E-11	NaN
243	1.000000	0.442634	7.36742e+06	-50789.1	955.819	-29754.9	0.000000	0.000000	6.442913	-0.046172	NaN	0.000000	0.001654	0.001698	28.0787	0.129574	0.002083	62.2025	-28.1035	-168.538	-0.030224	0.441305	-0.626488	-0.627817	-0.046172	62.2025	-0.625931	-1.892938E+8	2.439189E-10	NaN
243	1.000000	0.450645	7.36742e+06	-50789.1	955.818	-29754.9	0.000000	0.000000	6.450927	0.002303	NaN	0.000000	0.001596	0.001660	28.0793	0.175548	0.002109	83.2365	-122.872	-164.45	0.037998	0.449310	-0.618476	-0.619811	0.002303	83.2365	-0.618497	-1.496138E+8	-1.538970E-11	NaN
243	1.000000	0.458640	7.36742e+06	-50789.1	955.819	-29754.9	0.000000	0.000000	6.458920	-0.045882	NaN	0.000000	0.001612	0.001693	28.0788	0.064552	0.001872	34.4767	136.419	-165.645	0.055861	0.457289	-0.610481	-0.611833	-0.045882	34.4767	-0.609483	-1.124608E+8	4.079844E-10	NaN
243	1.000000	0.466675	7.36742e+06	-50789.1	955.818	-29754.9	0.000000	0.000000	6.466954	-0.076985	NaN	0.000000	0.001619	0.001657	28.0791	0.060345	0.001950	30.9393	116.65	-168.263	-0.004410	0.465369	-0.602446	-0.603752	-0.076985	30.9393	-0.600580	-8.480952E+7	9.077360E-10	NaN
243	1.000000	0.474650	7.36742e+06	-50789.1	955.818	-29754.9	0.000000	0.000000	6.474933	0.029156	NaN	0.000000	0.001622	0.001684	28.0789	0.101349	0.002019	50.2096	-28.8722	-168.401	0.031889	0.473346	-0.594471	-0.595776	0.029156	50.2096	-0.594907	-7.084261E+7	-4.115543E-10	NaN
243	1.000000	0.482631	7.36742e+06	-50789.1	955.818	-29754.9	0.000000	0.000000	6.482916	0.096279	NaN	0.000000	0.001619	0.001676	28.079	0.009478	0.001844	5.140484	-14.978	-166.946	0.071043	0.481348	-0.586490	-0.587774	0.096279	5.140484	-0.600537	-8.469588E+7	-1.136766E-9	NaN
243	1.000000	0.490655	7.36742e+06	-50789.1	955.819	-29754.9	0.000000	0.000000	6.490935	-0.019231	NaN	0.000000	0.001664	0.001700	28.0788	0.091438	0.001991	45.9151	-110.5	-165.018	-0.004113	0.489337	-0.578467	-0.579784	-0.019231	45.9151	-0.578153	-4.161261E+7	4.621483E-10	NaN
243	1.000000	0.498653	7.36743e+06	-50789.1	955.818	-29754.9	0.000000	0.000000	6.498933	-0.035944	NaN	0.000000	0.001618	0.001682	28.0785	0.100973	0.002068	48.829	11.8996	-169.54	-0.126597	0.497362	-0.570469	-0.571760	-0.035944	48.829	-0.569916	-3.202414E+7	1.122418E-9	NaN
243	1.000000	0.506660	7.36743e+06	-50789.1	955.818	-29754.9	0.000000	0.000000	6.506939	-0.067842	NaN	0.000000	0.001585	0.001665	28.0788	0.045863	0.001804	25.4211	110.951	-165.192	-0.003533	0.505347	-0.562461	-0.563775	-0.067842	25.4211	-0.560460	-2.369931E+7	2.862613E-9	NaN
243	1.000000	0.514682	7.36743e+06	-50789.1	955.819	-29754.9	0.000000	0.000000	6.514961	-0.076819	NaN	0.000000	0.001630	0.001636	28.0786	0.031754	0.001960	16.2027	-128.448	-164.874	-0.065124	0.513388	-0.554439	-0.555733	-0.076819	16.2027	-0.550883	-1.746572E+7	4.398289E-9	NaN
243	1.000000	0.522682	7.36743e+06	-50789.1	955.819	-29754.9	0.000000	0.000000	6.522966	0.069931	NaN	0.000000	0.001636	0.001670	28.0787	0.058564	0.002130	27.4978	-6.377851	-164.683	0.034736	0.521411	-0.546439	-0.547710	0.069931	27.4978	-0.548347	-1.610847E+7	-4.341243E-9	NaN
243	1.000000	0.530664	7.36743e+06	-50789.1	955.818	-29754.9	0.000000	0.000000	6.530944	-0.039108	NaN	0.000000	0.001648	0.001682	28.0784	0.139341	0.001900	73.326	-170.075	-165.724	0.002198	0.529369	-0.538457	-0.539753	-0.039108	73.326	-0.538057	-1.159880E+7	3.371712E-9	NaN
243	1.000000	0.538671	7.36743e+06	-50789.1	955.818	-29754.9	0.000000	0.000000	6.538952	-0.011504	NaN	0.000000	0.001633	0.001671	28.0785	0.008055	0.002059	3.912085	-50.8497	-167.462	-0.021077	0.537359	-0.530450	-0.531762	-0.011504	3.912085	-0.528245	-8.47607e+06	1.357228E-9	NaN
243	1.000000	0.546692	7.36743e+06	-50789.1	955.819	-29754.9	0.000000	0.000000	6.546971	-0.048540	NaN	0.000000	0.001623	0.001683	28.0788	0.127583	0.001966	64.9046	-123.522	-166.658	-0.059305	0.545363	-0.522429	-0.523758	-0.048540	64.9046	-0.521868	-6.91159e+06	7.023039E-9	NaN
243	1.000000	0.554693	7.36743e+06	-50789.1	955.818	-29754.9	0.000000	0.000000	6.554977	0.064736	NaN	0.000000	0.001648	0.001654	28.0785	0.075526	0.002044	36.9437	125.637	-170.543	0.015360	0.553401	-0.514428	-0.515720	0.064736	36.9437	-0.515743	-5.68025e+06	-1.139661E-8	NaN
243	1.000000	0.562682	7.36743e+06	-50789.1	955.819	-29754.9	0.000000	0.000000	6.562965	0.040035	NaN	0.000000	0.001695	0.001687	28.0787	0.043234	0.001974	21.8986	-120.356	-163.586	0.088196	0.561392	-0.506439	-0.507729	0.040035	21.8986	-0.507810	-4.40464e+06	-9.089369E-9	NaN
243	1.000000	0.570733	7.36743e+06	-50789.1	955.819	-29754.9	0.000000	0.000000	6.571014	-0.014449	NaN	0.000000	0.001673	0.001721	28.0794	0.037145	0.002045	18.1624	102.912	-164.831	0.008589	0.569326	-0.498388	-0.499796	-0.014449	18.1624	-0.497792	-3.19305e+06	4.525020E-9	NaN
243	1.000000	0.578693	7.36743e+06	-50789.1	955.819	-29754.9	0.000000	0.000000	6.578971	-0.070566	NaN	0.000000	0.001654	0.001695	28.0797	0.077783	0.001825	42.6268	132.397	-167.877	-0.089847	0.577419	-0.490428	-0.491703	-0.070566	42.6268	-0.489187	-2.42119e+06	2.914493E-8	NaN
243	1.000000	0.586678	7.36743e+06	-50789.1	955.818	-29754.9	0.000000	0.000000	6.586960	0.015391	NaN	0.000000	0.001672	0.001680	28.0798	0.114427	0.001954	58.5673	-71.1493	-165.659	0.008716	0.585418	-0.482443	-0.483704	0.015391	58.5673	-0.482640	-1.96099e+06	-7.848595E-9	NaN
243	1.000000	0.594694	7.36743e+06	-50789.1	955.819	-29754.9	0.000000	0.000000	6.594976	0.008698	NaN	0.000000	0.001661	0.001672	28.0797	0.070120	0.002159	32.4832	-160.783	-167.244	0.094605	0.593375	-0.474427	-0.475747	0.008698	32.4832	-0.474628	-1.51456e+06	-5.742772E-9	NaN
243	1.000000	0.602686	7.36743e+06	-50789.1	955.818	-29754.9	0.000000	0.000000	6.602969	0.031075	NaN	0.000000	0.001647	0.001681	28.08	0.105000	0.001933	54.3223	107.965	-168.473	0.029346	0.601414	-0.466435	-0.467708	0.031075	54.3223	-0.466864	-1.17872e+06	-2.636360E-8	NaN
243	1.000000	0.610689	7.36743e+06	-50789.1	955.818	-29754.9	0.000000	0.000000	6.610973	0.064287	NaN	0.000000	0.001670	0.001689	28.0798	0.064452	0.001862	34.6103	166.691	-162.382	-0.021083	0.609426	-0.458432	-0.459695	0.064287	34.6103	-0.459825	-938782	-6.847932E-8	NaN
243	1.000000	0.618674	7.36743e+06	-50789.1	955.818	-29754.9	0.000000	0.000000	6.618954	-0.032933	NaN	0.000000	0.001662	0.001652	28.0797	0.075460	0.002038	37.0182	119.374	-169.256	0.007467	0.617331	-0.450447	-0.451790	-0.032933	37.0182	-0.449780	-678020	4.857224E-8	NaN
243	1.000000	0.626724	7.36743e+06	-50789.1	955.819	-29754.9	0.000000	0.000000	6.627006	0.025565	NaN	0.000000	0.001643	0.001644	28.0798	0.034530	0.001953	17.6822	165.539	-168.493	0.017516	0.625426	-0.442398	-0.443695	0.025565	17.6822	-0.443482	-552701	-4.625545E-8	NaN
243	1.000000	0.634720	7.36743e+06	-50789.1	955.818	-29754.9	0.000000	0.000000	6.634997	-0.107818	NaN	0.000000	0.001669	0.001670	28.0796	0.133961	0.001982	67.5844	-154.276	-166.625	0.007516	0.633401	-0.434401	-0.435721	-0.107818	67.5844	-0.433205	-395711	2.724665E-7	NaN
243	1.000000	0.642738	7.36743e+06	-50789.1	955.818	-29754.9	0.000000	0.000000	6.643022	0.056891	NaN	0.000000	0.001628	0.001675	28.0798	0.060090	0.002000	30.0513	-104.908	-165.263	0.023794	0.641408	-0.426383	-0.427714	0.056891	30.0513	-0.427803	-331870	-1.714267E-7	NaN
243	1.000000	0.650735	7.36743e+06	-50789.1	955.819	-29754.9	0.000000	0.000000	6.651015	-0.029357	NaN	0.000000	0.001630	0.001705	28.0798	0.056253	0.002037	27.6116	48.7173	-166.127	0.024174	0.649394	-0.418386	-0.419728	-0.029357	27.6116	-0.417589	-237797	1.234534E-7	NaN
243	1.000000	0.658741	7.36743e+06	-50789.1	955.818	-29754.9	0.000000	0.000000	6.659023	-0.002333	NaN	0.000000	0.001660	0.001679	28.08	0.041981	0.001955	21.4759	-52.2295	-168.587	0.003207	0.657367	-0.410380	-0.411755	-0.002333	21.4759	-0.410298	-187346	1.245164E-8	NaN
243	1.000000	0.666719	7.36743e+06	-50789.1	955.818	-29754.9	0.000000	0.000000	6.667001	0.006084	NaN	0.000000	0.001682	0.001657	28.0798	0.113762	0.002059	55.2496	156.602	-163.537	-0.022107	0.665415	-0.402402	-0.403706	0.006084	55.2496	-0.402485	-145015	-4.195404E-8	NaN
243	1.000000	0.674741	7.36743e+06	-50789.1	955.818	-29754.9	0.000000	0.000000	6.675023	0.014068	NaN	0.000000	0.001648	0.001694	28.0798	0.138316	0.001915	72.2456	-33.3102	-165.633	-0.047173	0.673388	-0.394381	-0.395734	0.014068	72.2456	-0.394527	-111654	-1.259929E-7	NaN
243	1.000000	0.682736	7.36743e+06	-50789.1	955.819	-29754.9	0.000000	0.000000	6.683017	-0.026008	NaN	0.000000	0.001608	0.001711	28.0798	0.033229	0.001929	17.2306	-14.8829	-166.983	0.068466	0.681416	-0.386385	-0.387705	-0.026008	17.2306	-0.385253	-82263.9	3.161550E-7	NaN
243	1.000000	0.690714	7.36743e+06	-50789.1	955.818	-29754.9	0.000000	0.000000	6.690996	0.032313	NaN	0.000000	0.001633	0.001674	28.08	0.014106	0.002050	6.881390	173.143	-166.638	-0.010481	0.689466	-0.378408	-0.379655	0.032313	6.881390	-0.381930	-73717.9	-4.383324E-7	NaN
243	1.000000	0.698733	7.36743e+06	-50789.1	955.819	-29754.9	0.000000	0.000000	6.699012	-0.044179	NaN	0.000000	0.001632	0.001694	28.0806	0.057555	0.002007	28.6798	-178.323	-164.727	0.011816	0.697378	-0.370389	-0.371743	-0.044179	28.6798	-0.369233	-48426.8	9.122938E-7	NaN
243	1.000000	0.706761	7.36743e+06	-50789.1	955.819	-29754.9	0.000000	0.000000	6.707044	0.029875	NaN	0.000000	0.001644	0.001699	28.0786	0.109969	0.001995	55.1212	125.384	-167.168	0.057714	0.705366	-0.362360	-0.363755	0.029875	55.1212	-0.362767	-39067.8	-7.646947E-7	NaN
243	1.000000	0.714756	7.36743e+06	-50789.1	955.819	-29754.9	0.000000	0.000000	6.715036	-0.033520	NaN	0.000000	0.001674	0.001686	28.0787	0.023568	0.002079	11.3384	-173.418	-166.34	0.025452	0.713439	-0.354365	-0.355682	-0.033520	11.3384	-0.352148	-27426.2	1.222174E-6	NaN
243	1.000000	0.722766	7.36743e+06	-50789.1	955.819	-29754.9	0.000000	0.000000	6.723046	-0.048369	NaN	0.000000	0.001660	0.001703	28.0788	0.095557	0.001975	48.3953	-82.2267	-163.643	-0.076119	0.721433	-0.346355	-0.347689	-0.048369	48.3953	-0.345605	-22037.4	2.194868E-6	NaN
243	1.000000	0.730758	7.36743e+06	-50789.1	955.818	-29754.9	0.000000	0.000000	6.731038	-0.032482	NaN	0.000000	0.001627	0.001722	28.0787	0.129427	0.001956	66.1728	168.479	-165.295	-0.085443	0.729475	-0.338364	-0.339646	-0.032482	66.1728	-0.337996	-17073.5	1.902468E-6	NaN
243	1.000000	0.738765	7.36743e+06	-50789.1	955.819	-29754.9	0.000000	0.000000	6.739044	-0.050365	NaN	0.000000	0.001569	0.001699	28.0791	0.051190	0.002037	25.1247	146.282	-163.369	0.009254	0.737417	-0.330356	-0.331704	-0.050365	25.1247	-0.328853	-12550.1	4.013096E-6	NaN
243	1.000000	0.746758	7.36743e+06	-50789.1	955.818	-29754.9	0.000000	0.000000	6.747035	-0.112023	NaN	0.000000	0.001564	0.001680	28.0788	0.022714	0.001949	11.654	-6.710412	-166.835	-0.039463	0.745430	-0.322363	-0.323692	-0.112023	11.654	-0.315154	-7892.53	1.419357E-5	NaN
243	1.000000	0.754789	7.36743e+06	-50789.1	955.818	-29754.9	0.000000	0.000000	6.755067	-0.086311	NaN	0.000000	0.001583	0.001712	28.0794	0.014486	0.001889	7.668512	-11.8405	-166.717	-0.023454	0.753455	-0.314332	-0.315666	-0.086311	7.668512	-0.305890	-5756.62	1.499340E-5	NaN
243	1.000000	0.762804	7.36743e+06	-50789.1	955.818	-29754.9	0.000000	0.000000	6.763085	-0.012353	NaN	0.000000	0.001588	0.001705	28.0788	0.105173	0.001919	54.7949	42.4132	-165.87	-0.033208	0.761423	-0.306317	-0.307698	-0.012353	54.7949	-0.306148	-5807.47	2.127140E-6	NaN
243	1.000000	0.770774	7.36743e+06	-50789.1	955.818	-29754.9	0.000000	0.000000	6.771058	0.048874	NaN	0.000000	0.001602	0.001703	28.0788	0.038006	0.002090	18.1845	85.0709	-165.651	-0.091552	0.769458	-0.298347	-0.299663	0.048874	18.1845	-0.300363	-4764.71	-1.025747E-5	NaN
243	1.000000	0.778787	7.36743e+06	-50789.1	955.818	-29754.9	0.000000	0.000000	6.779071	0.067810	NaN	0.000000	0.001610	0.001661	28.0787	0.084252	0.001900	44.3327	10.7037	-166.767	0.035210	0.777481	-0.290334	-0.291640	0.067810	44.3327	-0.291481	-3511.41	-1.931125E-5	NaN
243	1.000000	0.786785	7.36743e+06	-50789.1	955.818	-29754.9	0.000000	0.000000	6.787064	-0.060234	NaN	0.000000	0.001610	0.001708	28.0786	0.044341	0.001944	22.8079	-22.3398	-166.681	0.027677	0.785508	-0.282336	-0.283614	-0.060234	22.8079	-0.280356	-2389.65	2.520637E-5	NaN
243	1.000000	0.794768	7.36743e+06	-50789.1	955.818	-29754.9	0.000000	0.000000	6.795050	0.030271	NaN	0.000000	0.001618	0.001713	28.079	0.008265	0.001981	4.171396	-27.603	-168.189	0.047605	0.793460	-0.274353	-0.275661	0.030271	4.171396	-0.279796	-2343.64	-1.291618E-5	NaN
243	1.000000	0.802802	7.36743e+06	-50789.1	955.818	-29754.9	0.000000	0.000000	6.803083	-0.008179	NaN	0.000000	0.001635	0.001669	28.0787	0.042203	0.002212	19.0795	131.327	-167.026	-0.025499	0.801515	-0.266319	-0.267606	-0.008179	19.0795	-0.265998	-1447.47	5.650582E-6	NaN
243	1.000000	0.810797	7.36743e+06	-50789.1	955.818	-29754.9	0.000000	0.000000	6.811077	-0.030413	NaN	0.000000	0.001656	0.001677	28.0787	0.039117	0.002095	18.6725	142.138	-166.266	-0.062288	0.809485	-0.258325	-0.259636	-0.030413	18.6725	-0.257103	-1057.94	2.874773E-5	NaN
243	1.000000	0.818789	7.36743e+06	-50789.1	955.818	-29754.9	0.000000	0.000000	6.819071	0.020276	NaN	0.000000	0.001605	0.001667	28.0788	0.028008	0.002105	13.3041	56.9294	-169.986	-0.036542	0.817473	-0.250332	-0.251648	0.020276	13.3041	-0.251475	-866.488	-2.339990E-5	NaN
243	1.000000	0.826788	7.36743e+06	-50789.1	955.817	-29754.9	0.000000	0.000000	6.827068	-0.016515	NaN	0.000000	0.001636	0.001656	28.0788	0.070843	0.002006	35.3216	-38.1854	-168.336	-0.012706	0.825444	-0.242333	-0.243677	-0.016515	35.3216	-0.241983	-617.293	2.675457E-5	NaN
243	1.000000	0.834824	7.36743e+06	-50789.1	955.819	-29754.9	0.000000	0.000000	6.835105	-0.001825	NaN	0.000000	0.001616	0.001685	28.0787	0.073635	0.001890	38.9673	8.006239	-167.389	0.044017	0.833451	-0.234297	-0.235670	-0.001825	38.9673	-0.234262	-467.37	3.905747E-6	NaN
243	1.000000	0.842834	7.36743e+06	-50789.1	955.818	-29754.9	0.000000	0.000000	6.843115	-0.007419	NaN	0.000000	0.001573	0.001673	28.0799	0.056630	0.002058	27.5122	-75.6235	-165.01	-0.008188	0.841514	-0.226287	-0.227607	-0.007419	27.5122	-0.226085	-347.179	2.136833E-5	NaN
243	1.000000	0.850844	7.36743e+06	-50789.1	955.818	-29754.9	0.000000	0.000000	6.851124	-0.038561	NaN	0.000000	0.001594	0.001695	28.0801	0.029298	0.001920	15.2572	0.467764	-169.267	-0.015253	0.849465	-0.218277	-0.219656	-0.038561	15.2572	-0.216382	-243.063	0.000159	NaN
243	1.000000	0.858810	7.36743e+06	-50789.1	955.819	-29754.9	0.000000	0.000000	6.859090	-0.045193	NaN	0.000000	0.001584	0.001713	28.08	0.122817	0.001957	62.7639	-159.882	-165.323	0.001291	0.857505	-0.210311	-0.211617	-0.045193	62.7639	-0.209771	-190.156	0.000238	NaN
243	1.000000	0.866805	7.36743e+06	-50789.1	955.818	-29754.9	0.000000	0.000000	6.867084	-0.074508	NaN	0.000000	0.001601	0.001699	28.0798	0.118826	0.001958	60.6853	-65.3629	-169.206	-0.048558	0.865515	-0.202316	-0.203606	-0.074508	60.6853	-0.201395	-138.868	0.000537	NaN
243	1.000000	0.874818	7.36743e+06	-50789.1	955.819	-29754.9	0.000000	0.000000	6.875094	-0.117073	NaN	0.000000	0.001592	0.001680	28.0799	0.048263	0.001910	25.2711	93.9847	-167.788	-0.068926	0.873528	-0.194303	-0.195594	-0.117073	25.2711	-0.190829	-92.8675	0.001261	NaN
243	1.000000	0.882815	7.36743e+06	-50789.1	955.818	-29754.9	0.000000	0.000000	6.883097	0.025160	NaN	0.000000	0.001591	0.001658	28.0799	0.050262	0.002056	24.4507	52.5902	-162.347	0.012698	0.881500	-0.186306	-0.187622	0.025160	24.4507	-0.187078	-80.369	-0.000313	NaN
243	1.000000	0.890801	7.36743e+06	-50789.1	955.818	-29754.9	0.000000	0.000000	6.891083	0.013510	NaN	0.000000	0.001582	0.001681	28.0802	0.045244	0.002061	21.9567	-83.2038	-166.683	0.024101	0.889475	-0.178320	-0.179646	0.013510	21.9567	-0.178782	-58.1725	-0.000232	NaN
243	1.000000	0.898841	7.36743e+06	-50789.1	955.817	-29754.9	0.000000	0.000000	6.899124	0.045376	NaN	0.000000	0.001573	0.001679	28.0799	0.018635	0.001978	9.422165	-56.3397	-165.237	0.013492	0.897490	-0.170281	-0.171631	0.045376	9.422165	-0.173892	-47.9653	-0.000946	NaN
243	1.000000	0.906800	7.36743e+06	-50789.1	955.818	-29754.9	0.000000	0.000000	6.907081	-0.002266	NaN	0.000000	0.001599	0.001659	28.0799	0.090970	0.002005	45.3613	134.08	-168.105	-0.015976	0.905534	-0.162322	-0.163587	-0.002266	45.3613	-0.162284	-30.0931	7.529920E-5	NaN
243	1.000000	0.914836	7.36743e+06	-50789.1	955.82	-29754.9	0.000000	0.000000	6.915117	-0.009620	NaN	0.000000	0.001609	0.001702	28.0798	0.074957	0.002117	35.4033	-120.273	-164.15	0.031741	0.913537	-0.154285	-0.155584	-0.009620	35.4033	-0.154081	-21.4797	0.000448	NaN
243	1.000000	0.922831	7.36743e+06	-50789.1	955.819	-29754.9	0.000000	0.000000	6.923111	-0.027354	NaN	0.000000	0.001629	0.001674	28.0796	0.120332	0.001950	61.7076	83.1122	-167.454	-0.028187	0.921517	-0.146290	-0.147604	-0.027354	61.7076	-0.145958	-15.2708	0.001791	NaN
243	1.000000	0.930844	7.36743e+06	-50789.1	955.819	-29754.9	0.000000	0.000000	6.931126	0.025342	NaN	0.000000	0.001626	0.001678	28.0799	0.079521	0.002039	38.9956	-92.4528	-167.013	-0.030783	0.929520	-0.138277	-0.139602	0.025342	38.9956	-0.138765	-11.213	-0.002260	NaN
243	1.000000	0.938841	7.36743e+06	-50789.1	955.818	-29754.9	0.000000	0.000000	6.939122	-0.001136	NaN	0.000000	0.001595	0.001654	28.0798	0.073102	0.001809	40.4	-21.2211	-169.13	-0.018172	0.937518	-0.130280	-0.131603	-0.001136	40.4	-0.130259	-7.709882	0.000147	NaN
243	1.000000	0.946872	7.36743e+06	-50789.1	955.818	-29754.9	0.000000	0.000000	6.947153	0.011677	NaN	0.000000	0.001632	0.001703	28.0801	0.060486	0.001939	31.2024	51.1118	-166.995	0.041624	0.945485	-0.122250	-0.123636	0.011677	31.2024	-0.122530	-5.431163	-0.002150	NaN
243	1.000000	0.954822	7.36743e+06	-50789.1	955.818	-29754.9	0.000000	0.000000	6.955101	-0.054266	NaN	0.000000	0.001610	0.001660	28.0798	0.095145	0.002065	46.0714	127.428	-165.273	-0.013591	0.953555	-0.114300	-0.115566	-0.054266	46.0714	-0.113416	-3.542809	0.015317	NaN
243	1.000000	0.962837	7.36743e+06	-50789.1	955.819	-29754.9	0.000000	0.000000	6.963118	-0.011750	NaN	0.000000	0.001569	0.001692	28.08	0.110345	0.001909	57.8018	38.7048	-166.531	0.004275	0.961519	-0.106284	-0.107602	-0.011750	57.8018	-0.106131	-2.486259	0.004726	NaN
243	1.000000	0.970855	7.36743e+06	-50789.1	955.819	-29754.9	0.000000	0.000000	6.971136	0.000784	NaN	0.000000	0.001628	0.001664	28.0799	0.117068	0.001875	62.4366	-14.4093	-165.45	0.009686	0.969557	-0.098266	-0.099564	0.000784	62.4366	-0.098276	-1.672520	-0.000469	NaN
243	1.000000	0.978846	7.36743e+06	-50789.1	955.818	-29754.9	0.000000	0.000000	6.979125	-0.048291	NaN	0.000000	0.001582	0.001709	28.0787	0.087477	0.001988	44.0054	-11.3094	-167.98	-0.008032	0.977570	-0.090275	-0.091552	-0.048291	44.0054	-0.089452	-1.049410	0.046017	NaN
243	1.000000	0.986868	7.36743e+06	-50789.1	955.818	-29754.9	0.000000	0.000000	6.987148	-0.025864	NaN	0.000000	0.001565	0.001667	28.0787	0.031843	0.001875	16.9792	-84.3308	-161.899	-0.049573	0.985583	-0.082254	-0.083539	-0.025864	16.9792	-0.081111	-0.659741	0.039203	NaN
243	1.000000	0.994849	7.36743e+06	-50789.1	955.819	-29754.9	0.000000	0.000000	6.995129	-0.019242	NaN	0.000000	0.001557	0.001695	28.0786	0.094826	0.002085	45.4759	1.555686	-163.883	-0.020645	0.993585	-0.074273	-0.075537	-0.019242	45.4759	-0.073955	-0.433907	0.044347	NaN
243	1.000000	1.002888	7.36743e+06	-50789.1	955.818	-29754.9	0.000000	0.000000	7.003169	-0.008120	NaN	0.000000	0.001600	0.001701	28.0789	0.057509	0.001905	30.1912	-2.393583	-164.741	-0.010392	1.001537	-0.066233	-0.067585	-0.008120	30.1912	-0.066031	-0.266124	0.030512	NaN
243	1.000000	1.010873	7.36743e+06	-50789.1	955.818	-29754.9	0.000000	0.000000	7.011155	0.009638	NaN	0.000000	0.001600	0.001684	28.0787	0.097658	0.001968	49.6281	122.941	-166.764	-0.147234	1.009547	-0.058248	-0.059575	0.009638	49.6281	-0.058394	-0.161876	-0.059538	NaN
243	1.000000	1.018886	7.36743e+06	-50789.1	955.82	-29754.9	0.000000	0.000000	7.019168	0.022182	NaN	0.000000	0.001565	0.001705	28.0786	0.089281	0.001984	44.9924	81.0712	-167.374	-0.003015	1.017520	-0.050236	-0.051601	0.022182	44.9924	-0.050605	-0.095176	-0.233059	NaN
243	1.000000	1.026858	7.36743e+06	-50789.1	955.819	-29754.9	0.000000	0.000000	7.027139	-0.016228	NaN	0.000000	0.001580	0.001704	28.0789	0.089890	0.002010	44.7113	50.6766	-166.793	-0.003229	1.025569	-0.042263	-0.043552	-0.016228	44.7113	-0.041991	-0.051999	0.312091	NaN
243	1.000000	1.034887	7.36743e+06	-50789.1	955.819	-29754.9	0.000000	0.000000	7.035169	0.001678	NaN	0.000000	0.001576	0.001685	28.0786	0.059286	0.002049	28.9322	34.0273	-167.006	0.070154	1.033559	-0.034234	-0.035563	0.001678	28.9322	-0.034277	-0.030498	-0.055034	NaN
243	1.000000	1.042871	7.36743e+06	-50789.1	955.819	-29754.9	0.000000	0.000000	7.043152	-0.003710	NaN	0.000000	0.001573	0.001692	28.0791	0.069161	0.002031	34.0542	176.163	-163.631	-0.045196	1.041581	-0.026251	-0.027540	-0.003710	34.0542	-0.026169	-0.018108	0.204861	NaN
243	1.000000	1.050863	7.36743e+06	-50789.1	955.819	-29754.9	0.000000	0.000000	7.051143	-0.007533	NaN	0.000000	0.001608	0.001718	28.0786	0.022822	0.001987	11.486	-68.2133	-168.218	0.003916	1.049619	-0.018259	-0.019502	-0.007533	11.486	-0.017767	-0.011008	0.684318	NaN
243	1.000000	1.058894	7.36743e+06	-50789.1	955.818	-29754.9	0.000000	0.000000	7.059172	-0.081229	NaN	0.000000	0.001546	0.001715	28.0786	0.020737	0.002036	10.1841	133.769	-168.681	-0.061098	1.057630	-0.010228	-0.011491	-0.081229	10.1841	-0.004246	-0.002937	27.6542	NaN
243	1.000000	1.066890	7.36743e+06	-50789.1	955.819	-29754.9	0.000000	0.000000	7.067173	0.033904	NaN	0.000000	0.001598	0.001730	28.0789	0.077072	0.002014	38.2588	152.819	-166.548	0.047401	1.065601	-0.002231	-0.003520	0.033904	38.2588	-0.002896	-0.002050	-16.5348	NaN
243	1.000000	1.074857	7.36743e+06	-50789.1	955.819	-29754.9	0.000000	0.000000	7.075284	3.546384	NaN	0.000000	0.001599	0.001686	28.0786	4.269025	0.001886	2263.84	11.7556	-167.756	2.399670	1.073552	0.005736	0.004431	3.546384	2263.84	0.004561	0.003736	949.158	33837.3
243	2.000000	1.080444	7.36743e+06	-50789.1	955.819	-29754.9	0.000000	0.000000	7.081048	7.842985	NaN	0.000000	0.001635	0.001682	28.0795	8.955655	0.001654	5416.06	10.2082	-178.391	7.363200	1.080150	0.011323	0.011028	7.842985	5416.06	0.010237	0.009446	830.316	50914.1
243	2.000000	1.082439	7.36743e+06	-50789.1	955.818	-29754.9	0.000000	0.000000	7.083132	10.0037	NaN	0.000000	0.001605	0.001694	28.0786	10.4786	0.001581	6626.1	11.7355	-177.937	10.9741	1.082161	0.013318	0.013039	10.0037	6626.1	0.012185	0.011713	854.092	55937.5
243	2.000000	1.084419	7.36743e+06	-50789.1	955.82	-29754.9	0.000000	0.000000	7.085224	12.7298	NaN	0.000000	0.001623	0.001687	28.0785	13.428	0.001777	7556.62	3.975934	-174.096	12.0561	1.084109	0.015298	0.014988	12.7298	7556.62	0.014034	0.014019	908.045	58310.1
243	2.000000	1.086394	7.36743e+06	-50789.1	955.819	-29754.9	0.000000	0.000000	7.087288	14.9099	NaN	0.000000	0.001645	0.001703	28.0786	15.4946	0.001735	8932.06	8.757500	-179.571	14.2247	1.086102	0.017272	0.016981	14.9099	8932.06	0.016020	0.016670	894.401	63205.3
243	2.000000	1.088382	7.36743e+06	-50789.1	955.819	-29754.9	0.000000	0.000000	7.089446	19.0277	NaN	0.000000	0.001683	0.001693	28.0797	17.675	0.001853	9540.99	6.730329	-177.066	19.7851	1.088068	0.019260	0.018947	19.0277	9540.99	0.017765	0.019151	993.569	62990.2
243	2.000000	1.090388	7.36743e+06	-50789.1	955.819	-29754.9	0.000000	0.000000	7.091574	22.016	NaN	0.000000	0.001658	0.001724	28.0804	19.4146	0.001785	10878.6	3.923711	-174.708	21.8922	1.090028	0.021266	0.020907	22.016	10878.6	0.019748	0.022148	994.019	66784.5
243	2.000000	1.092349	7.36743e+06	-50789.1	955.82	-29754.9	0.000000	0.000000	7.093616	23.978	NaN	0.000000	0.001680	0.001675	28.0798	21.1365	0.001796	11770.1	8.367514	178.836	23.1852	1.092107	0.023227	0.022985	23.978	11770.1	0.021700	0.025284	948.363	67629.4
243	2.000000	1.094370	7.36743e+06	-50789.1	955.819	-29754.9	0.000000	0.000000	7.095845	29.032	NaN	0.000000	0.001652	0.001689	28.0799	23.5179	0.001809	13002.7	6.332757	-178.489	29.2381	1.094067	0.025248	0.024945	29.032	13002.7	0.023574	0.028472	1019.66	70404
243	2.000000	1.096351	7.36743e+06	-50789.1	955.818	-29754.9	0.000000	0.000000	7.098044	34.3423	NaN	0.000000	0.001672	0.001686	28.0801	25.0332	0.001732	14449.8	1.416262	-175.608	32.7283	1.096067	0.027229	0.026946	34.3423	14449.8	0.025447	0.031834	1078.8	73993.2
243	2.000000	1.098391	7.36743e+06	-50789.1	955.819	-29754.9	0.000000	0.000000	7.100298	39.5485	NaN	0.000000	0.001640	0.001701	28.0799	27.6345	0.001785	15483.8	6.987889	179.264	41.2638	1.097991	0.029269	0.028870	39.5485	15483.8	0.027354	0.035437	1116.02	75148.6
243	2.000000	1.100349	7.36743e+06	-50789.1	955.819	-29754.9	0.000000	0.000000	7.102459	44.4681	NaN	0.000000	0.001579	0.001657	28.0814	29.9549	0.001754	17080.2	6.367333	177.97	44.0361	1.100078	0.031228	0.030956	44.4681	17080.2	0.029275	0.039254	1132.82	78763.2
243	2.000000	1.102312	7.36743e+06	-50789.1	955.819	-29754.9	0.000000	0.000000	7.104755	52.5603	NaN	0.000000	0.001604	0.001671	28.0798	30.8457	0.001793	17198.7	2.663429	-176.953	52.5018	1.101969	0.033191	0.032847	52.5603	17198.7	0.030899	0.042627	1233.03	76107.5
243	2.000000	1.104311	7.36743e+06	-50789.1	955.819	-29754.9	0.000000	0.000000	7.106966	57.7287	NaN	0.000000	0.001555	0.001704	28.0798	34.2622	0.001841	18608.1	3.711431	179.705	56.8114	1.103978	0.035189	0.034857	57.7287	18608.1	0.032863	0.046886	1231.25	78514.9
243	2.000000	1.106297	7.36743e+06	-50789.1	955.818	-29754.9	0.000000	0.000000	7.109161	62.8117	NaN	0.000000	0.001584	0.001698	28.0801	36.7276	0.001874	19600.8	7.386138	176.24	62.1096	1.106040	0.037175	0.036918	62.8117	19600.8	0.034772	0.051216	1226.4	79130.2
243	2.000000	1.108310	7.36743e+06	-50789.1	955.819	-29754.9	0.000000	0.000000	7.111489	70.4714	NaN	0.000000	0.001579	0.001708	28.0798	38.6439	0.001944	19875.6	8.550436	174.64	69.3251	1.107984	0.039188	0.038863	70.4714	19875.6	0.036529	0.055366	1272.83	77174
243	2.000000	1.110305	7.36743e+06	-50789.1	955.819	-29754.9	0.000000	0.000000	7.113722	76.2483	NaN	0.000000	0.001564	0.001681	28.0803	40.7976	0.001855	21997.3	7.375321	175.198	76.8637	1.109981	0.041184	0.040859	76.2483	21997.3	0.038584	0.060421	1261.96	81761.6
243	2.000000	1.112338	7.36743e+06	-50789.1	955.819	-29754.9	0.000000	0.000000	7.116002	82.2618	NaN	0.000000	0.001599	0.001698	28.0797	40.9796	0.001812	22615.3	5.948960	176.557	81.2964	1.112001	0.043216	0.042880	82.2618	22615.3	0.040488	0.065297	1259.82	80859.6
243	2.000000	1.114259	7.36743e+06	-50789.1	955.819	-29754.9	0.000000	0.000000	7.118244	90.0674	NaN	0.000000	0.001556	0.001685	28.08	44.178	0.001858	23773.1	7.414832	174.175	87.048	1.113944	0.045138	0.044823	90.0674	23773.1	0.042297	0.070098	1284.88	82036.1
243	2.000000	1.116317	7.36743e+06	-50789.1	955.819	-29754.9	0.000000	0.000000	7.120617	97.72	NaN	0.000000	0.001560	0.001659	28.0805	45.6266	0.001901	23996	4.083247	177.606	98.1219	1.116016	0.047196	0.046895	97.72	23996	0.044141	0.075168	1300.01	79964
243	2.000000	1.118299	7.36743e+06	-50789.1	955.82	-29754.9	0.000000	0.000000	7.122796	102.511	NaN	0.000000	0.001539	0.001666	28.08	46.4456	0.001786	26006.7	2.697098	177.256	101.632	1.118122	0.049178	0.049000	102.511	26006.7	0.046221	0.081092	1264.13	83438.8
243	2.000000	1.120273	7.36743e+06	-50789.1	955.819	-29754.9	0.000000	0.000000	7.125224	113.562	NaN	0.000000	0.001564	0.001693	28.0803	48.5947	0.001950	24918.8	4.317408	176.974	111.707	1.120050	0.051152	0.050929	113.562	24918.8	0.047734	0.085538	1327.63	77843.5
243	2.000000	1.122312	7.36743e+06	-50789.1	955.82	-29754.9	0.000000	0.000000	7.127618	122.21	NaN	0.000000	0.001592	0.001676	28.0787	49.2974	0.001828	26975	5.425814	176.154	122.583	1.121962	0.053190	0.052841	122.21	26975	0.049792	0.091773	1331.66	81353.8
243	2.000000	1.124299	7.36743e+06	-50789.1	955.819	-29754.9	0.000000	0.000000	7.129998	131.751	NaN	0.000000	0.001580	0.001679	28.0788	50.7552	0.001749	29018.1	3.448142	177.189	131.361	1.123962	0.055178	0.054841	131.751	29018.1	0.051772	0.097970	1344.81	84702.2
243	2.000000	1.126300	7.36743e+06	-50789.1	955.82	-29754.9	0.000000	0.000000	7.132303	139.119	NaN	0.000000	0.001603	0.001653	28.0796	53.5732	0.001734	30893.4	5.174809	174.721	137.009	1.125932	0.057179	0.056810	139.119	30893.4	0.053802	0.104525	1330.97	87303.1
243	2.000000	1.128209	7.36743e+06	-50789.1	955.819	-29754.9	0.000000	0.000000	7.134635	149.417	NaN	0.000000	0.001580	0.001660	28.0789	55.6793	0.001876	29676.6	5.973192	173.597	144.581	1.127969	0.059088	0.058848	149.417	29676.6	0.055312	0.109537	1364.08	81923.3
243	2.000000	1.130281	7.36743e+06	-50789.1	955.82	-29754.9	0.000000	0.000000	7.136985	156.197	NaN	0.000000	0.001550	0.001689	28.0788	57.5314	0.001767	32566	2.167403	176.381	155.155	1.130032	0.061159	0.060911	156.197	32566	0.057562	0.117211	1332.61	86906.7
243	2.000000	1.132208	7.36743e+06	-50789.1	955.819	-29754.9	0.000000	0.000000	7.139268	164.848	NaN	0.000000	0.001589	0.001686	28.0788	57.2502	0.001717	33335	1.409126	176.901	160.462	1.131936	0.063087	0.062815	164.848	33335	0.059378	0.123587	1333.86	86633.8
243	2.000000	1.134271	7.36743e+06	-50789.1	955.819	-29754.9	0.000000	0.000000	7.141995	180.983	NaN	0.000000	0.001605	0.001708	28.079	62.0081	0.001795	34544.6	5.057302	173.41	179.551	1.133948	0.065150	0.064827	180.983	34544.6	0.061220	0.130221	1389.82	87460.7
243	2.000000	1.136287	7.36743e+06	-50789.1	955.82	-29754.9	0.000000	0.000000	7.144260	187.05	NaN	0.000000	0.001604	0.001709	28.0788	63.5893	0.001773	35863.4	3.702967	174.918	184.742	1.136004	0.067166	0.066883	187.05	35863.4	0.063254	0.137735	1358.04	88288.2
243	2.000000	1.138244	7.36743e+06	-50789.1	955.82	-29754.9	0.000000	0.000000	7.146601	196.39	NaN	0.000000	0.001630	0.001695	28.0787	65.6406	0.001728	37990.8	5.175975	172.176	194.727	1.138034	0.069122	0.068912	196.39	37990.8	0.065245	0.145285	1351.75	91062.6
243	2.000000	1.140255	7.36743e+06	-50789.1	955.819	-29754.9	0.000000	0.000000	7.149108	208.445	NaN	0.000000	0.001631	0.001688	28.079	68.2654	0.001810	37724.7	5.106863	173.123	206.671	1.139967	0.071133	0.070845	208.445	37724.7	0.066989	0.152056	1370.84	88388.7
243	2.000000	1.142198	7.36743e+06	-50789.1	955.819	-29754.9	0.000000	0.000000	7.151464	218.48	NaN	0.000000	0.001572	0.001697	28.0788	69.9311	0.001874	37311.8	5.136551	172.574	214.889	1.141914	0.073077	0.072793	218.48	37311.8	0.068685	0.158780	1376	85550.5
243	2.000000	1.144220	7.36743e+06	-50789.1	955.82	-29754.9	0.000000	0.000000	7.153830	226.864	NaN	0.000000	0.001590	0.001670	28.079	71.433	0.001756	40673.4	5.250110	171.707	222.263	1.143929	0.075098	0.074808	226.864	40673.4	0.070915	0.167830	1351.75	90708.7
243	2.000000	1.146269	7.36743e+06	-50789.1	955.819	-29754.9	0.000000	0.000000	7.156433	240.321	NaN	0.000000	0.001585	0.001680	28.0787	74.3316	0.001891	39299.3	8.725280	169.15	237.194	1.145946	0.077147	0.076825	240.321	39299.3	0.072561	0.174662	1375.92	85913
243	2.000000	1.148322	7.36743e+06	-50789.1	955.82	-29754.9	0.000000	0.000000	7.158874	249.76	NaN	0.000000	0.001560	0.001678	28.0787	74.2176	0.001736	42741.9	1.083219	175.897	252.503	1.147923	0.079201	0.078801	249.76	42741.9	0.074818	0.184239	1355.63	90978
243	2.000000	1.150212	7.36743e+06	-50789.1	955.819	-29754.9	0.000000	0.000000	7.161286	262.474	NaN	0.000000	0.001589	0.001668	28.0791	77.647	0.001843	42124.9	3.522062	173.169	257.12	1.149880	0.081090	0.080759	262.474	42124.9	0.076417	0.191167	1373.01	88024.8
243	2.000000	1.152304	7.36743e+06	-50789.1	955.819	-29754.9	0.000000	0.000000	7.163846	273.847	NaN	0.000000	0.001613	0.001655	28.0788	78.4093	0.001771	44264.9	7.198508	169.998	274.61	1.151903	0.083183	0.082782	273.847	44264.9	0.078543	0.200564	1365.39	90303.8
243	2.000000	1.154188	7.36743e+06	-50789.1	955.819	-29754.9	0.000000	0.000000	7.166398	290.099	NaN	0.000000	0.001605	0.001661	28.0789	81.2005	0.001737	46760.6	4.757003	171.715	285.217	1.153863	0.085066	0.084742	290.099	46760.6	0.080413	0.209008	1387.98	93448.4
243	2.000000	1.156253	7.36743e+06	-50789.1	955.819	-29754.9	0.000000	0.000000	7.168975	302.546	NaN	0.000000	0.001608	0.001659	28.0802	83.7835	0.001853	45203.9	6.266357	170.653	300.09	1.155993	0.087131	0.086871	302.546	45203.9	0.082111	0.216815	1395.41	88696.1
243	2.000000	1.158325	7.36743e+06	-50789.1	955.82	-29754.9	0.000000	0.000000	7.171431	311.873	NaN	0.000000	0.001586	0.001688	28.0803	85.5053	0.001774	48203.3	5.546228	170.47	316.518	1.157940	0.089203	0.088819	311.873	48203.3	0.084351	0.227315	1371.98	92371
243	2.000000	1.160177	7.36743e+06	-50789.1	955.818	-29754.9	0.000000	0.000000	7.173899	326.843	NaN	0.000000	0.001594	0.001646	28.0802	87.6893	0.001747	50204.5	4.798721	170.86	321.115	1.159930	0.091056	0.090809	326.843	50204.5	0.086173	0.236028	1384.76	94413.3
243	2.000000	1.162131	7.36743e+06	-50789.1	955.819	-29754.9	0.000000	0.000000	7.176515	342.948	NaN	0.000000	0.001580	0.001662	28.0803	88.1862	0.001723	51190.8	4.499636	170.776	337.734	1.161911	0.093010	0.092790	342.948	51190.8	0.087985	0.244847	1400.66	94518.6
243	2.000000	1.164308	7.36743e+06	-50789.1	955.819	-29754.9	0.000000	0.000000	7.178950	349.219	NaN	0.000000	0.001599	0.001718	28.0801	91.7173	0.001873	48962.1	6.833677	169.308	352.806	1.163853	0.095187	0.094731	349.219	48962.1	0.089837	0.254017	1374.78	88756.9
243	2.000000	1.166228	7.36743e+06	-50789.1	955.819	-29754.9	0.000000	0.000000	7.181848	372.993	NaN	0.000000	0.001605	0.001713	28.0803	92.6266	0.001834	50514.2	5.628426	170.588	369.099	1.165765	0.097107	0.096643	372.993	50514.2	0.091569	0.262732	1419.67	90038.9
243	2.000000	1.168219	7.36743e+06	-50789.1	955.819	-29754.9	0.000000	0.000000	7.184276	383.651	NaN	0.000000	0.001615	0.001706	28.0804	93.7986	0.001797	52185.4	6.453935	169.304	382.257	1.167839	0.099097	0.098718	383.651	52185.4	0.093583	0.273042	1405.1	91244.7
243	2.000000	1.170221	7.36743e+06	-50789.1	955.82	-29754.9	0.000000	0.000000	7.186867	397.952	NaN	0.000000	0.001562	0.001701	28.0803	95.261	0.001705	55868.9	4.844373	169.672	396.254	1.169915	0.101100	0.100793	397.952	55868.9	0.095758	0.284379	1399.37	95718.3
243	2.000000	1.172136	7.36743e+06	-50789.1	955.82	-29754.9	0.000000	0.000000	7.189159	407.125	NaN	0.000000	0.001576	0.001711	28.0803	96.5668	0.001744	55381.7	5.987018	168.611	401.048	1.171938	0.103015	0.102816	407.125	55381.7	0.097501	0.293626	1386.55	93377.5
243	2.000000	1.174222	7.36743e+06	-50789.1	955.818	-29754.9	0.000000	0.000000	7.192212	430.634	NaN	0.000000	0.001580	0.001697	28.0804	98.8423	0.001728	57213.8	4.829295	169.975	429.043	1.173861	0.105101	0.104740	430.634	57213.8	0.099456	0.304155	1415.84	94782
243	2.000000	1.176309	7.36743e+06	-50789.1	955.819	-29754.9	0.000000	0.000000	7.194980	447.206	NaN	0.000000	0.001549	0.001699	28.0801	102.152	0.001761	57998.6	10.5283	164.844	449.467	1.175825	0.107187	0.106704	447.206	57998.6	0.101404	0.314826	1420.48	94439.9
243	2.000000	1.178246	7.36743e+06	-50789.1	955.82	-29754.9	0.000000	0.000000	7.197690	465.975	NaN	0.000000	0.001564	0.001678	28.0802	101.643	0.001799	56514.1	6.820011	169.273	465.37	1.177756	0.109125	0.108634	465.975	56514.1	0.102941	0.323364	1441.02	90799.6