File: remote_trans/data/nanoindenter/0828-1/data/Data_2025-08-06,11h17m57s/2025-07-22_16-23-58_1_633.txt
2025-07-22, 16:23:58, 1
Index	Phase	Displacement	Time	Pos X	Pos Y	Pos Z	Rot A	Rot B	Piezo Z	Force A	Force B	Gripper	Voltage A	Voltage B	Temperature	Amplitude force	Amplitude pos	Stiffness	Phase shift	Phase excitation	Force A raw	Displacement raw	HMax	HMax raw	Real Force	Real Stiffness	Contact Depth	Area	Hardness	Reduced Mod.
[#]	[#]	[um]	[s]	[um]	[um]	[um]	[m°]	[m°]	[um]	[uN]	[uN]	[V]	[V]	[V]	[°C]	[uN]	[um]	[N/m]	[°]	[°]	[uN]	[um]	[um]	[um]	[uN]	[N/m]	[um]	[um^2]	[MPa]	[MPa]
633	1.000000	0.002685	7.37124e+06	-45439.1	1005.82	-29772.4	0.000000	0.000000	6.002821	0.010115	NaN	0.000000	0.001568	0.001734	28.0828	0.126526	0.000892	141.8	-172.352	-164.839	-0.063483	0.001425	-1.157191	-1.158451	0.010115	141.8	-1.157244	-2.937194E+15	-3.443801E-18	NaN
633	1.000000	0.012723	7.37124e+06	-45439.1	1005.82	-29772.4	0.000000	0.000000	6.012859	0.003101	NaN	0.000000	0.001577	0.001710	28.0823	0.030204	0.001184	25.5166	146.615	16.425	-0.014032	0.011302	-1.147153	-1.148574	0.003101	25.5166	-1.147244	-2.157084E+15	-1.437522E-18	NaN
633	1.000000	0.022639	7.37124e+06	-45439.1	1005.82	-29772.4	0.000000	0.000000	6.022774	-0.023212	NaN	0.000000	0.001568	0.001734	28.0821	0.023660	0.001784	13.2626	176.763	-162.651	0.005368	0.021301	-1.137237	-1.138575	-0.023212	13.2626	-1.135924	-1.520810E+15	1.526311E-17	NaN
633	1.000000	0.032640	7.37124e+06	-45439.1	1005.82	-29772.4	0.000000	0.000000	6.032776	-0.010528	NaN	0.000000	0.001552	0.001713	28.0821	0.064120	0.001935	33.1379	-157.334	10.3424	0.051080	0.031277	-1.127235	-1.128599	-0.010528	33.1379	-1.126997	-1.154353E+15	9.120031E-18	NaN
633	1.000000	0.042616	7.37124e+06	-45439.1	1005.82	-29772.4	0.000000	0.000000	6.042752	-0.002532	NaN	0.000000	0.001550	0.001690	28.0836	0.042960	0.002145	20.0269	-148.596	-164.025	-0.025193	0.041326	-1.117260	-1.118550	-0.002532	20.0269	-1.117165	-8.519877E+14	2.971714E-18	NaN
633	1.000000	0.052619	7.37124e+06	-45439.1	1005.82	-29772.4	0.000000	0.000000	6.052756	0.023380	NaN	0.000000	0.001564	0.001712	28.0821	0.026843	0.001959	13.7031	-26.0513	17.321	0.007443	0.051222	-1.107257	-1.108654	0.023380	13.7031	-1.108536	-6.525937E+14	-3.582553E-17	NaN
633	1.000000	0.062644	7.37124e+06	-45439.1	1005.82	-29772.4	0.000000	0.000000	6.062782	0.054207	NaN	0.000000	0.001540	0.001719	28.0824	0.117374	0.002014	58.2767	111.988	-165.079	0.112445	0.061299	-1.097232	-1.098576	0.054207	58.2767	-1.097929	-4.701869E+14	-1.152880E-16	NaN
633	1.000000	0.072613	7.37124e+06	-45439.1	1005.82	-29772.4	0.000000	0.000000	6.072749	-0.024144	NaN	0.000000	0.001571	0.001727	28.082	0.039204	0.002071	18.9337	29.8519	14.2999	-0.044603	0.071224	-1.087262	-1.088651	-0.024144	18.9337	-1.086306	-3.282504E+14	7.355375E-17	NaN
633	1.000000	0.082631	7.37124e+06	-45439.1	1005.82	-29772.4	0.000000	0.000000	6.082769	0.025379	NaN	0.000000	0.001553	0.001713	28.0823	0.021325	0.001860	11.4669	49.6178	-165.681	0.034996	0.081263	-1.077244	-1.078613	0.025379	11.4669	-1.078904	-2.610963E+14	-9.720280E-17	NaN
633	1.000000	0.092622	7.37124e+06	-45439.1	1005.82	-29772.4	0.000000	0.000000	6.092759	0.013276	NaN	0.000000	0.001559	0.001712	28.0822	0.030228	0.002037	14.8401	115.674	9.709375	-0.002814	0.091246	-1.067253	-1.068630	0.013276	14.8401	-1.067924	-1.859096E+14	-7.141250E-17	NaN
633	1.000000	0.102636	7.37124e+06	-45439.1	1005.82	-29772.4	0.000000	0.000000	6.102771	-0.036825	NaN	0.000000	0.001538	0.001712	28.0823	0.108744	0.001942	55.9976	-140.754	-161.929	-0.077238	0.101336	-1.057239	-1.058540	-0.036825	55.9976	-1.056746	-1.315505E+14	2.799320E-16	NaN
633	1.000000	0.112640	7.37124e+06	-45439.1	1005.82	-29772.4	0.000000	0.000000	6.112775	-0.020204	NaN	0.000000	0.001579	0.001719	28.0833	0.070209	0.002044	34.3466	-124.82	17.7182	-0.105363	0.111245	-1.047236	-1.048631	-0.020204	34.3466	-1.046794	-9.667647E+13	2.089881E-16	NaN
633	1.000000	0.122633	7.37124e+06	-45439.1	1005.82	-29772.4	0.000000	0.000000	6.122768	-0.019573	NaN	0.000000	0.001596	0.001734	28.0835	0.023145	0.001985	11.6625	-152.422	-165.723	0.036060	0.121335	-1.037243	-1.038541	-0.019573	11.6625	-1.035984	-6.917781E+13	2.829445E-16	NaN
633	1.000000	0.132680	7.37124e+06	-45439.1	1005.82	-29772.4	0.000000	0.000000	6.132818	0.040346	NaN	0.000000	0.001614	0.001723	28.0833	0.072361	0.002129	33.9884	-30.1294	15.1431	-0.009828	0.131260	-1.027196	-1.028615	0.040346	33.9884	-1.028086	-5.416723E+13	-7.448385E-16	NaN
633	1.000000	0.142650	7.37124e+06	-45439.1	1005.82	-29772.4	0.000000	0.000000	6.142787	0.031683	NaN	0.000000	0.001624	0.001715	28.0833	0.021353	0.002148	9.939370	-107.434	-163.676	-0.023981	0.141297	-1.017226	-1.018578	0.031683	9.939370	-1.019617	-4.166710E+13	-7.603754E-16	NaN
633	1.000000	0.152664	7.37124e+06	-45439.1	1005.82	-29772.4	0.000000	0.000000	6.152798	-0.053005	NaN	0.000000	0.001576	0.001725	28.0835	0.049327	0.001917	25.7347	-78.6255	14.9547	-0.096841	0.151334	-1.007212	-1.008542	-0.053005	25.7347	-1.005667	-2.704319E+13	1.960025E-15	NaN
633	1.000000	0.162618	7.37124e+06	-45439.1	1005.82	-29772.4	0.000000	0.000000	6.162753	-0.047728	NaN	0.000000	0.001584	0.001734	28.0832	0.104144	0.002037	51.1317	128.157	-162.74	-0.068576	0.161365	-0.997257	-0.998511	-0.047728	51.1317	-0.996557	-2.038994E+13	2.340783E-15	NaN
633	1.000000	0.172661	7.37124e+06	-45439.1	1005.82	-29772.4	0.000000	0.000000	6.172795	-0.065602	NaN	0.000000	0.001616	0.001706	28.0831	0.042304	0.001945	21.7497	50.3385	15.4121	-0.082580	0.171260	-0.987215	-0.988616	-0.065602	21.7497	-0.984952	-1.422742E+13	4.610951E-15	NaN
633	1.000000	0.182684	7.37124e+06	-45439.1	1005.82	-29772.4	0.000000	0.000000	6.182819	-0.026250	NaN	0.000000	0.001609	0.001716	28.0831	0.047438	0.001884	25.1741	103.985	-165.795	-0.020573	0.181329	-0.977192	-0.978546	-0.026250	25.1741	-0.976410	-1.091543E+13	2.404875E-15	NaN
633	1.000000	0.192696	7.37124e+06	-45439.1	1005.82	-29772.4	0.000000	0.000000	6.192831	-0.032860	NaN	0.000000	0.001621	0.001710	28.0832	0.111209	0.002192	50.7348	116.584	14.2447	-0.060610	0.191276	-0.967180	-0.968600	-0.032860	50.7348	-0.966694	-8.074258E+12	4.069730E-15	NaN
633	1.000000	0.202677	7.37124e+06	-45439.1	1005.82	-29772.4	0.000000	0.000000	6.202814	0.013146	NaN	0.000000	0.001625	0.001719	28.0831	0.074885	0.001860	40.2574	128.266	-166.739	0.047875	0.201402	-0.957199	-0.958473	0.013146	40.2574	-0.957444	-6.059011E+12	-2.169699E-15	NaN
633	1.000000	0.212655	7.37124e+06	-45439.1	1005.82	-29772.4	0.000000	0.000000	6.212790	-0.041468	NaN	0.000000	0.001632	0.001700	28.0832	0.055456	0.002044	27.1297	116.408	16.7275	0.038724	0.211305	-0.947221	-0.948571	-0.041468	27.1297	-0.946074	-4.256747E+12	9.741625E-15	NaN
633	1.000000	0.222681	7.37124e+06	-45439.1	1005.82	-29772.4	0.000000	0.000000	6.222814	-0.062908	NaN	0.000000	0.001599	0.001738	28.0835	0.123240	0.002034	60.5909	15.2922	-165.354	0.014222	0.221377	-0.937195	-0.938498	-0.062908	60.5909	-0.936416	-3.153426E+12	1.994897E-14	NaN
633	1.000000	0.232682	7.37124e+06	-45439.1	1005.82	-29772.4	0.000000	0.000000	6.232821	0.056553	NaN	0.000000	0.001611	0.001705	28.0833	0.051814	0.001868	27.7444	-171.005	14.0659	0.078817	0.231351	-0.927193	-0.928525	0.056553	27.7444	-0.928722	-2.482856E+12	-2.277734E-14	NaN
633	1.000000	0.242712	7.37124e+06	-45439.1	1005.82	-29772.4	0.000000	0.000000	6.242846	-0.034046	NaN	0.000000	0.001635	0.001703	28.0822	0.027242	0.002042	13.3402	151.848	-163.152	-0.155536	0.241375	-0.917164	-0.918501	-0.034046	13.3402	-0.915250	-1.633297E+12	2.084525E-14	NaN
633	1.000000	0.252710	7.37124e+06	-45439.1	1005.82	-29772.4	0.000000	0.000000	6.252847	0.028548	NaN	0.000000	0.001596	0.001694	28.0821	0.067319	0.002028	33.1982	60.8823	15.8116	0.019630	0.251309	-0.907166	-0.908567	0.028548	33.1982	-0.907811	-1.295953E+12	-2.202837E-14	NaN
633	1.000000	0.262692	7.37124e+06	-45439.1	1005.82	-29772.4	0.000000	0.000000	6.262825	-0.086566	NaN	0.000000	0.001614	0.001727	28.0823	0.016899	0.002101	8.042375	91.3995	-162.879	-0.027666	0.261353	-0.897184	-0.898523	-0.086566	8.042375	-0.889111	-7.242616E+11	1.195234E-13	NaN
633	1.000000	0.272691	7.37124e+06	-45439.1	1005.82	-29772.4	0.000000	0.000000	6.272829	0.029648	NaN	0.000000	0.001585	0.001732	28.0821	0.097276	0.001901	51.1619	12.0776	11.7113	0.033748	0.271291	-0.887184	-0.888584	0.029648	51.1619	-0.887619	-6.913922E+11	-4.288205E-14	NaN
633	1.000000	0.282724	7.37124e+06	-45439.1	1005.82	-29772.4	0.000000	0.000000	6.282860	-0.020518	NaN	0.000000	0.001607	0.001719	28.082	0.084956	0.001959	43.3747	179.391	-166.117	-0.072772	0.281388	-0.877151	-0.878488	-0.020518	43.3747	-0.876797	-4.936102E+11	4.156681E-14	NaN
633	1.000000	0.292740	7.37124e+06	-45439.1	1005.82	-29772.4	0.000000	0.000000	6.292873	-0.084821	NaN	0.000000	0.001579	0.001723	28.0825	0.064797	0.002064	31.3906	-115.807	12.243	-0.129805	0.291309	-0.867136	-0.868567	-0.084821	31.3906	-0.865109	-3.429799E+11	2.473051E-13	NaN
633	1.000000	0.302741	7.37124e+06	-45439.1	1005.82	-29772.4	0.000000	0.000000	6.302874	-0.061618	NaN	0.000000	0.001606	0.001766	28.0821	0.043401	0.002007	21.622	67.5278	-164.763	0.003708	0.301420	-0.857135	-0.858455	-0.061618	21.622	-0.854998	-2.502677E+11	2.462091E-13	NaN
633	1.000000	0.312688	7.37124e+06	-45439.1	1005.82	-29772.4	0.000000	0.000000	6.312824	-0.021469	NaN	0.000000	0.001674	0.001732	28.082	0.069765	0.002013	34.6546	-107.104	13.6193	-0.061620	0.311367	-0.847187	-0.848508	-0.021469	34.6546	-0.846723	-1.933556E+11	1.110341E-13	NaN
633	1.000000	0.322720	7.37124e+06	-45439.1	1005.82	-29772.4	0.000000	0.000000	6.322857	-0.002516	NaN	0.000000	0.001664	0.001653	28.0819	0.082199	0.002000	41.0984	-27.8628	-164.813	0.002437	0.321430	-0.837155	-0.838446	-0.002516	41.0984	-0.837109	-1.432609E+11	1.756162E-14	NaN
633	1.000000	0.332752	7.37124e+06	-45439.1	1005.82	-29772.4	0.000000	0.000000	6.332889	0.012424	NaN	0.000000	0.001670	0.001703	28.0823	0.018911	0.002103	8.990606	163.062	15.6048	0.048155	0.331376	-0.827123	-0.828500	0.012424	8.990606	-0.828160	-1.083532E+11	-1.146615E-13	NaN
633	1.000000	0.342745	7.37124e+06	-45439.1	1005.82	-29772.4	0.000000	0.000000	6.342881	0.003965	NaN	0.000000	0.001684	0.001715	28.0818	0.135054	0.001948	69.3249	-33.7353	-165.561	0.008325	0.341367	-0.817131	-0.818509	0.003965	69.3249	-0.817174	-7.689215E+10	-5.156253E-14	NaN
633	1.000000	0.352746	7.37124e+06	-45439.1	1005.82	-29772.4	0.000000	0.000000	6.352883	0.016714	NaN	0.000000	0.001583	0.001734	28.0819	0.190226	0.002134	89.1322	41.4978	13.5669	-0.010600	0.351353	-0.807129	-0.808523	0.016714	89.1322	-0.807270	-5.643234E+10	-2.961764E-13	NaN
633	1.000000	0.362726	7.37124e+06	-45439.1	1005.82	-29772.4	0.000000	0.000000	6.362864	0.035968	NaN	0.000000	0.001644	0.001724	28.0818	0.122756	0.001860	66.0089	3.656206	-167.242	0.009326	0.361393	-0.797149	-0.798483	0.035968	66.0089	-0.797558	-4.165908E+10	-8.633805E-13	NaN
633	1.000000	0.372788	7.37124e+06	-45439.1	1005.82	-29772.4	0.000000	0.000000	6.372921	-0.077711	NaN	0.000000	0.001596	0.001717	28.0819	0.029769	0.001897	15.6886	-9.490280	14.4864	-0.018296	0.371342	-0.787088	-0.788533	-0.077711	15.6886	-0.783373	-2.673390E+10	2.906842E-12	NaN
633	1.000000	0.382745	7.37124e+06	-45439.1	1005.82	-29772.4	0.000000	0.000000	6.382877	-0.092168	NaN	0.000000	0.001616	0.001718	28.083	0.094219	0.001865	50.5139	-173.825	-165.386	-0.064305	0.381456	-0.777131	-0.778419	-0.092168	50.5139	-0.775762	-2.106885E+10	4.374593E-12	NaN
633	1.000000	0.392760	7.37124e+06	-45439.1	1005.82	-29772.4	0.000000	0.000000	6.392898	0.040014	NaN	0.000000	0.001654	0.001730	28.083	0.051402	0.002124	24.1967	62.1001	16.5906	0.005778	0.391400	-0.767115	-0.768476	0.040014	24.1967	-0.768356	-1.670893E+10	-2.394781E-12	NaN
633	1.000000	0.402759	7.37124e+06	-45439.1	1005.82	-29772.4	0.000000	0.000000	6.402897	0.043691	NaN	0.000000	0.001637	0.001712	28.0831	0.059174	0.001891	31.2905	-58.2184	-167.667	0.015462	0.401443	-0.757116	-0.758432	0.043691	31.2905	-0.758164	-1.214281E+10	-3.598104E-12	NaN
633	1.000000	0.412739	7.37124e+06	-45439.1	1005.82	-29772.4	0.000000	0.000000	6.412876	0.018479	NaN	0.000000	0.001658	0.001716	28.0832	0.053182	0.002053	25.9019	77.2645	14.3223	-0.035344	0.411396	-0.747137	-0.748480	0.018479	25.9019	-0.747672	-8.740323E+9	-2.114280E-12	NaN
633	1.000000	0.422777	7.37124e+06	-45439.1	1005.82	-29772.4	0.000000	0.000000	6.422912	-0.023268	NaN	0.000000	0.001612	0.001724	28.0831	0.079976	0.001907	41.9334	-108.146	-166.785	-0.039767	0.421448	-0.737098	-0.738428	-0.023268	41.9334	-0.736682	-6.192446E+9	3.757496E-12	NaN
633	1.000000	0.432773	7.37124e+06	-45439.1	1005.82	-29772.4	0.000000	0.000000	6.432906	-0.077748	NaN	0.000000	0.001621	0.001686	28.0832	0.053535	0.001963	27.2775	107.39	17.1824	0.017418	0.431423	-0.727103	-0.728452	-0.077748	27.2775	-0.724965	-4.287249E+9	1.813481E-11	NaN
633	1.000000	0.442768	7.37124e+06	-45439.1	1005.82	-29772.4	0.000000	0.000000	6.442903	-0.029630	NaN	0.000000	0.001627	0.001709	28.0835	0.061982	0.002108	29.4046	165.459	-164.828	0.005818	0.441469	-0.717108	-0.718407	-0.029630	29.4046	-0.716352	-3.271277E+9	9.057679E-12	NaN
633	1.000000	0.452768	7.37124e+06	-45439.1	1005.82	-29772.4	0.000000	0.000000	6.452904	-0.011367	NaN	0.000000	0.001644	0.001729	28.0834	0.068111	0.002026	33.6231	-19.5835	11.3895	-0.009259	0.451436	-0.707108	-0.708440	-0.011367	33.6231	-0.706854	-2.427240E+9	4.682891E-12	NaN
633	1.000000	0.462777	7.37124e+06	-45439.1	1005.82	-29772.4	0.000000	0.000000	6.462915	0.047692	NaN	0.000000	0.001605	0.001716	28.0834	0.091313	0.001921	47.541	-85.6415	-167.809	0.149702	0.461489	-0.697098	-0.698387	0.047692	47.541	-0.697851	-1.828852E+9	-2.607773E-11	NaN
633	1.000000	0.472776	7.37124e+06	-45439.1	1005.82	-29772.4	0.000000	0.000000	6.472911	-0.036676	NaN	0.000000	0.001626	0.001761	28.0836	0.077807	0.001942	40.0652	-126.014	15.641	-0.021747	0.471463	-0.687099	-0.688413	-0.036676	40.0652	-0.686413	-1.276101E+9	2.874034E-11	NaN
633	1.000000	0.482799	7.37124e+06	-45439.1	1005.82	-29772.4	0.000000	0.000000	6.482934	-0.025098	NaN	0.000000	0.001691	0.001742	28.0835	0.039255	0.002040	19.2408	-3.433665	-164.87	-0.021261	0.481476	-0.677077	-0.678400	-0.025098	19.2408	-0.676098	-9.222220E+8	2.721510E-11	NaN
633	1.000000	0.492784	7.37124e+06	-45439.1	1005.82	-29772.4	0.000000	0.000000	6.492921	0.019979	NaN	0.000000	0.001710	0.001764	28.0835	0.112060	0.002079	53.8883	-120.87	14.5071	0.050654	0.491413	-0.667091	-0.668462	0.019979	53.8883	-0.667369	-7.004577E+8	-2.852270E-11	NaN
633	1.000000	0.502800	7.37124e+06	-45439.1	1005.82	-29772.4	0.000000	0.000000	6.502938	0.039898	NaN	0.000000	0.001728	0.001754	28.0835	0.098466	0.001995	49.3526	-74.7837	-165.763	0.014641	0.501512	-0.657076	-0.658364	0.039898	49.3526	-0.657682	-5.160811E+8	-7.731009E-11	NaN
633	1.000000	0.512827	7.37124e+06	-45439.1	1005.82	-29772.4	0.000000	0.000000	6.512964	0.012356	NaN	0.000000	0.001705	0.001770	28.0835	0.041979	0.002068	20.2961	110.395	14.8549	-0.005542	0.511451	-0.647049	-0.648424	0.012356	20.2961	-0.647505	-3.743122E+8	-3.301005E-11	NaN
633	1.000000	0.522814	7.37124e+06	-45439.1	1005.82	-29772.4	0.000000	0.000000	6.522949	-0.027432	NaN	0.000000	0.001739	0.001717	28.0821	0.118530	0.001973	60.0821	80.0618	-165.358	0.008384	0.521513	-0.637061	-0.638362	-0.027432	60.0821	-0.636719	-2.662361E+8	1.030373E-10	NaN
633	1.000000	0.532832	7.37124e+06	-45439.1	1005.82	-29772.4	0.000000	0.000000	6.532970	0.043441	NaN	0.000000	0.001713	0.001770	28.082	0.074904	0.001968	38.06	-122.62	12.8601	0.007223	0.531478	-0.627044	-0.628398	0.043441	38.06	-0.627900	-2.014577E+8	-2.156325E-10	NaN
633	1.000000	0.542840	7.37125e+06	-45439.1	1005.82	-29772.4	0.000000	0.000000	6.542975	-0.012259	NaN	0.000000	0.001688	0.001772	28.0821	0.092157	0.002101	43.8558	-97.6435	-166.21	-0.046389	0.541497	-0.617036	-0.618379	-0.012259	43.8558	-0.616826	-1.419068E+8	8.638448E-11	NaN
633	1.000000	0.552828	7.37125e+06	-45439.1	1005.82	-29772.4	0.000000	0.000000	6.552966	0.037955	NaN	0.000000	0.001699	0.001736	28.0822	0.091307	0.001947	46.8884	35.9668	15.4797	0.046977	0.551496	-0.607048	-0.608380	0.037955	46.8884	-0.607655	-1.061310E+8	-3.576196E-10	NaN
633	1.000000	0.562825	7.37125e+06	-45439.1	1005.82	-29772.4	0.000000	0.000000	6.562962	0.024487	NaN	0.000000	0.001706	0.001730	28.0822	0.095804	0.002102	45.5823	-143.943	-166.871	-0.040628	0.561491	-0.597051	-0.598385	0.024487	45.5823	-0.597454	-7.680534E+7	-3.188150E-10	NaN
633	1.000000	0.572842	7.37125e+06	-45439.1	1005.82	-29772.4	0.000000	0.000000	6.572978	0.002988	NaN	0.000000	0.001629	0.001722	28.0822	0.023316	0.001961	11.8922	124.476	12.4605	-0.110371	0.571481	-0.587034	-0.588395	0.002988	11.8922	-0.587222	-5.550955E+7	-5.382162E-11	NaN
633	1.000000	0.582823	7.37125e+06	-45439.1	1005.82	-29772.4	0.000000	0.000000	6.582960	0.018328	NaN	0.000000	0.001638	0.001731	28.0826	0.034233	0.001837	18.6324	131.253	-168.51	0.071350	0.581496	-0.577053	-0.578380	0.018328	18.6324	-0.577790	-4.113623E+7	-4.455440E-10	NaN
633	1.000000	0.592858	7.37125e+06	-45439.1	1005.82	-29772.4	0.000000	0.000000	6.592991	-0.066828	NaN	0.000000	0.001660	0.001730	28.0822	0.025089	0.001886	13.3016	-152.169	11.7149	-0.030340	0.591517	-0.567018	-0.568359	-0.066828	13.3016	-0.563250	-2.590165E+7	2.580060E-9	NaN
633	1.000000	0.602844	7.37125e+06	-45439.1	1005.82	-29772.4	0.000000	0.000000	6.602981	0.027724	NaN	0.000000	0.001634	0.001745	28.0821	0.135127	0.002045	66.0921	-126.928	-167.317	0.056939	0.601541	-0.557032	-0.558334	0.027724	66.0921	-0.557346	-2.146163E+7	-1.291804E-9	NaN
633	1.000000	0.612816	7.37125e+06	-45439.1	1005.82	-29772.4	0.000000	0.000000	6.612953	0.011232	NaN	0.000000	0.001617	0.001733	28.0821	0.003482	0.002100	1.658478	113.585	11.4381	0.008173	0.611449	-0.547060	-0.548426	0.011232	1.658478	-0.552139	-1.817950E+7	-6.178638E-10	NaN
633	1.000000	0.622820	7.37125e+06	-45439.1	1005.82	-29772.4	0.000000	0.000000	6.622956	0.007007	NaN	0.000000	0.001623	0.001740	28.0822	0.051855	0.002121	24.4488	-114.868	-165.394	-0.040868	0.621554	-0.537056	-0.538322	0.007007	24.4488	-0.537271	-1.131100E+7	-6.194700E-10	NaN
633	1.000000	0.632869	7.37125e+06	-45439.1	1005.82	-29772.4	0.000000	0.000000	6.633007	0.046984	NaN	0.000000	0.001686	0.001710	28.082	0.115475	0.002025	57.0135	-146.011	13.7318	0.059494	0.631480	-0.527007	-0.528395	0.046984	57.0135	-0.527625	-8.30969e+06	-5.654115E-9	NaN
633	1.000000	0.642835	7.37125e+06	-45439.1	1005.82	-29772.4	0.000000	0.000000	6.642972	0.017463	NaN	0.000000	0.001687	0.001741	28.0823	0.112765	0.002046	55.1125	-148.82	-167.695	-0.040761	0.641539	-0.517040	-0.518337	0.017463	55.1125	-0.517278	-5.96667e+06	-2.926713E-9	NaN
633	1.000000	0.652905	7.37125e+06	-45439.1	1005.82	-29772.4	0.000000	0.000000	6.653042	0.024800	NaN	0.000000	0.001691	0.001718	28.0836	0.001468	0.001950	0.752512	102.067	13.0631	-0.039970	0.651550	-0.506970	-0.508325	0.024800	0.752512	-0.531688	-9.4627e+06	-2.620859E-9	NaN
633	1.000000	0.662870	7.37125e+06	-45439.1	1005.82	-29772.4	0.000000	0.000000	6.663003	-0.084445	NaN	0.000000	0.001741	0.001696	28.0835	0.067569	0.001971	34.2771	-48.7918	-164.356	-0.012200	0.661591	-0.497005	-0.498285	-0.084445	34.2771	-0.495158	-2.93384e+06	2.878316E-8	NaN
633	1.000000	0.672867	7.37125e+06	-45439.1	1005.82	-29772.4	0.000000	0.000000	6.673002	-0.018119	NaN	0.000000	0.001709	0.001702	28.0834	0.070936	0.002029	34.962	163.602	15.1643	-0.003941	0.671496	-0.487009	-0.488380	-0.018119	34.962	-0.486620	-2.22921e+06	8.128183E-9	NaN
633	1.000000	0.682869	7.37125e+06	-45439.1	1005.82	-29772.4	0.000000	0.000000	6.683005	-0.002176	NaN	0.000000	0.001744	0.001697	28.0835	0.113463	0.001999	56.7708	-157.849	-167.96	-0.049172	0.681550	-0.477007	-0.478326	-0.002176	56.7708	-0.476978	-1.63385e+06	1.331963E-9	NaN
633	1.000000	0.692871	7.37125e+06	-45439.1	1005.82	-29772.4	0.000000	0.000000	6.693010	0.074432	NaN	0.000000	0.001726	0.001675	28.0835	0.041349	0.001874	22.0654	-81.3188	8.489224	-0.013854	0.691513	-0.467005	-0.468362	0.074432	22.0654	-0.469535	-1.28494e+06	-5.792689E-8	NaN
633	1.000000	0.702901	7.37125e+06	-45439.1	1005.82	-29772.4	0.000000	0.000000	6.703037	-0.007640	NaN	0.000000	0.001747	0.001721	28.0834	0.070062	0.001921	36.472	-83.5503	-163.711	-0.101849	0.701558	-0.456975	-0.458318	-0.007640	36.472	-0.456818	-851688	8.970353E-9	NaN
633	1.000000	0.712884	7.37125e+06	-45439.1	1005.82	-29772.4	0.000000	0.000000	6.713019	-0.035131	NaN	0.000000	0.001668	0.001730	28.0833	0.011206	0.001935	5.790374	-82.7829	14.2821	0.067656	0.711521	-0.446992	-0.448354	-0.035131	5.790374	-0.442442	-534335	6.574722E-8	NaN
633	1.000000	0.722888	7.37125e+06	-45439.1	1005.82	-29772.4	0.000000	0.000000	6.723026	0.026439	NaN	0.000000	0.001668	0.001724	28.0833	0.064087	0.002118	30.2517	-134.556	-167.073	-0.022234	0.721595	-0.436987	-0.438281	0.026439	30.2517	-0.437643	-457176	-5.783060E-8	NaN
633	1.000000	0.732879	7.37125e+06	-45439.1	1005.82	-29772.4	0.000000	0.000000	6.733014	-0.023640	NaN	0.000000	0.001652	0.001746	28.0834	0.146818	0.002041	71.9394	64.4157	15.36	-0.045036	0.731570	-0.426996	-0.428306	-0.023640	71.9394	-0.426750	-320675	7.371886E-8	NaN
633	1.000000	0.742889	7.37125e+06	-45439.1	1005.82	-29772.4	0.000000	0.000000	6.743026	0.013707	NaN	0.000000	0.001616	0.001733	28.0832	0.059900	0.002133	28.0841	-48.3065	-166.541	-0.036076	0.741564	-0.416986	-0.418311	0.013707	28.0841	-0.417352	-235966	-5.808882E-8	NaN
633	1.000000	0.752914	7.37125e+06	-45439.1	1005.82	-29772.4	0.000000	0.000000	6.753051	-0.002016	NaN	0.000000	0.001666	0.001777	28.0833	0.059190	0.002036	29.0768	-71.4158	13.8023	-0.069347	0.751529	-0.406961	-0.408347	-0.002016	29.0768	-0.406909	-167660	1.202272E-8	NaN
633	1.000000	0.762899	7.37125e+06	-45439.1	1005.82	-29772.4	0.000000	0.000000	6.763038	0.061842	NaN	0.000000	0.001660	0.001778	28.0834	0.063307	0.002014	31.4289	54.5213	-168.906	-0.011207	0.761615	-0.396977	-0.398261	0.061842	31.4289	-0.398453	-127034	-4.868164E-7	NaN
633	1.000000	0.772926	7.37125e+06	-45439.1	1005.82	-29772.4	0.000000	0.000000	6.773063	0.005785	NaN	0.000000	0.001673	0.001740	28.0836	0.025581	0.001934	13.2273	40.893	12.033	0.005427	0.771536	-0.386950	-0.388339	0.005785	13.2273	-0.387278	-87944.1	-6.577881E-8	NaN
633	1.000000	0.782927	7.37125e+06	-45439.1	1005.82	-29772.4	0.000000	0.000000	6.783062	-0.023703	NaN	0.000000	0.001648	0.001739	28.0835	0.051509	0.002001	25.7418	-111.71	-170.458	-0.038394	0.781634	-0.376948	-0.378241	-0.023703	25.7418	-0.376258	-61115.2	3.878481E-7	NaN
633	1.000000	0.792950	7.37125e+06	-45439.1	1005.82	-29772.4	0.000000	0.000000	6.793085	-0.023591	NaN	0.000000	0.001633	0.001742	28.0823	0.091566	0.001902	48.1411	75.4249	17.9727	-0.023366	0.791558	-0.366926	-0.368318	-0.023591	48.1411	-0.366558	-44312.9	5.323795E-7	NaN
633	1.000000	0.802946	7.37125e+06	-45439.1	1005.82	-29772.4	0.000000	0.000000	6.803079	-0.075329	NaN	0.000000	0.001617	0.001725	28.0825	0.048711	0.002221	21.9349	31.0222	-163.929	-0.022804	0.801632	-0.356930	-0.358244	-0.075329	21.9349	-0.354354	-29521.7	2.551649E-6	NaN
633	1.000000	0.812913	7.37125e+06	-45439.1	1005.82	-29772.4	0.000000	0.000000	6.813050	0.024459	NaN	0.000000	0.001651	0.001769	28.0822	0.048686	0.002029	23.9973	126.534	12.8136	0.095719	0.811636	-0.346963	-0.348239	0.024459	23.9973	-0.347727	-23659.4	-1.033817E-6	NaN
633	1.000000	0.822968	7.37125e+06	-45439.1	1005.82	-29772.4	0.000000	0.000000	6.823101	-0.063668	NaN	0.000000	0.001632	0.001728	28.0822	0.051428	0.002011	25.5704	-100.85	-166.116	-0.017704	0.821596	-0.336908	-0.338280	-0.063668	25.5704	-0.335041	-15459	4.118513E-6	NaN
633	1.000000	0.832937	7.37125e+06	-45439.1	1005.82	-29772.4	0.000000	0.000000	6.833072	-0.029164	NaN	0.000000	0.001630	0.001774	28.0822	0.090517	0.001967	46.0063	-155.273	14.3544	0.012649	0.831574	-0.326939	-0.328301	-0.029164	46.0063	-0.326464	-11577.5	2.518999E-6	NaN
633	1.000000	0.842954	7.37125e+06	-45439.1	1005.82	-29772.4	0.000000	0.000000	6.843091	0.027910	NaN	0.000000	0.001616	0.001778	28.0831	0.099249	0.001963	50.5591	90.3751	-166.783	0.007386	0.841649	-0.316922	-0.318227	0.027910	50.5591	-0.317336	-8499.66	-3.283621E-6	NaN
633	1.000000	0.852977	7.37125e+06	-45439.1	1005.82	-29772.4	0.000000	0.000000	6.853113	-0.007599	NaN	0.000000	0.001576	0.001782	28.0821	0.082544	0.002171	38.022	-108.74	11.9839	0.069456	0.851610	-0.306898	-0.308266	-0.007599	38.022	-0.306749	-5927.79	1.281918E-6	NaN
633	1.000000	0.862966	7.37125e+06	-45439.1	1005.82	-29772.4	0.000000	0.000000	6.863101	-0.037229	NaN	0.000000	0.001651	0.001776	28.0821	0.171810	0.002061	83.374	139.615	-165.963	-0.056035	0.861609	-0.296909	-0.298266	-0.037229	83.374	-0.296574	-4183.96	8.898054E-6	NaN
633	1.000000	0.872976	7.37125e+06	-45439.1	1005.82	-29772.4	0.000000	0.000000	6.873110	-0.055419	NaN	0.000000	0.001630	0.001756	28.0822	0.084713	0.001894	44.7257	-24.9882	11.1451	-0.049750	0.871647	-0.286900	-0.288228	-0.055419	44.7257	-0.285971	-2903.05	1.908980E-5	NaN
633	1.000000	0.882945	7.37125e+06	-45439.1	1005.82	-29772.4	0.000000	0.000000	6.883080	-0.045742	NaN	0.000000	0.001620	0.001751	28.0823	0.090870	0.002027	44.8333	164.519	-167.587	-0.116972	0.881648	-0.276930	-0.278228	-0.045742	44.8333	-0.276165	-2065.54	2.214537E-5	NaN
633	1.000000	0.892962	7.37125e+06	-45439.1	1005.82	-29772.4	0.000000	0.000000	6.893097	-0.034308	NaN	0.000000	0.001650	0.001756	28.0817	0.088513	0.001950	45.3973	111.018	12.5082	-0.044004	0.891587	-0.266914	-0.268288	-0.034308	45.3973	-0.266347	-1465.33	2.341322E-5	NaN
633	1.000000	0.902954	7.37125e+06	-45439.1	1005.82	-29772.4	0.000000	0.000000	6.903089	-0.026720	NaN	0.000000	0.001627	0.001759	28.0819	0.061617	0.001927	31.9704	-140.354	-167.729	-0.086435	0.901621	-0.256922	-0.258254	-0.026720	31.9704	-0.256295	-1028.11	2.598975E-5	NaN
633	1.000000	0.912982	7.37125e+06	-45439.1	1005.82	-29772.4	0.000000	0.000000	6.913121	0.060660	NaN	0.000000	0.001667	0.001760	28.082	0.021241	0.002073	10.2482	-144.89	13.0327	0.063260	0.911582	-0.246893	-0.248293	0.060660	10.2482	-0.251333	-862.118	-7.036191E-5	NaN
633	1.000000	0.922982	7.37125e+06	-45439.1	1005.82	-29772.4	0.000000	0.000000	6.923116	-0.032132	NaN	0.000000	0.001564	0.001813	28.0823	0.023130	0.001909	12.114	12.1483	-168.999	-0.076477	0.921657	-0.236894	-0.238219	-0.032132	12.114	-0.234905	-478.357	6.717201E-5	NaN
633	1.000000	0.932963	7.37125e+06	-45439.1	1005.82	-29772.4	0.000000	0.000000	6.933100	0.012312	NaN	0.000000	0.001567	0.001752	28.0833	0.133242	0.001966	67.7685	-73.001	11.3844	-0.046357	0.931605	-0.226913	-0.228270	0.012312	67.7685	-0.227049	-359.616	-3.423792E-5	NaN
633	1.000000	0.942980	7.37125e+06	-45439.1	1005.82	-29772.4	0.000000	0.000000	6.943117	0.003622	NaN	0.000000	0.001620	0.001774	28.0833	0.039724	0.002093	18.9838	167.225	-164.181	-0.034787	0.941634	-0.216895	-0.218241	0.003622	18.9838	-0.217038	-249.034	-1.454403E-5	NaN
633	1.000000	0.952990	7.37125e+06	-45439.1	1005.82	-29772.4	0.000000	0.000000	6.953124	-0.038924	NaN	0.000000	0.001592	0.001768	28.0832	0.084514	0.001944	43.4751	36.703	16.1491	-0.020058	0.951684	-0.206886	-0.208192	-0.038924	43.4751	-0.206214	-166.475	0.000234	NaN
633	1.000000	0.963009	7.37125e+06	-45439.1	1005.82	-29772.4	0.000000	0.000000	6.963144	-0.030887	NaN	0.000000	0.001588	0.001768	28.0833	0.102165	0.001888	54.1131	-148.587	-168.079	0.041086	0.961687	-0.196867	-0.198188	-0.030887	54.1131	-0.196439	-115.082	0.000268	NaN
633	1.000000	0.973007	7.37125e+06	-45439.1	1005.82	-29772.4	0.000000	0.000000	6.973143	-0.007852	NaN	0.000000	0.001597	0.001757	28.0832	0.042263	0.002052	20.5951	32.9288	12.3794	-0.029638	0.971669	-0.186869	-0.188207	-0.007852	20.5951	-0.186583	-78.8442	9.959182E-5	NaN
633	1.000000	0.982999	7.37125e+06	-45439.1	1005.82	-29772.4	0.000000	0.000000	6.983135	-0.023337	NaN	0.000000	0.001634	0.001769	28.0833	0.021475	0.001901	11.298	-48.3288	-167.786	0.045525	0.981663	-0.176876	-0.178212	-0.023337	11.298	-0.175327	-50.769	0.000460	NaN
633	1.000000	0.993033	7.37125e+06	-45439.1	1005.82	-29772.4	0.000000	0.000000	6.993168	-0.026231	NaN	0.000000	0.001594	0.001764	28.0835	0.036820	0.002081	17.6914	-170.882	12.0439	0.045548	0.991562	-0.166843	-0.168314	-0.026231	17.6914	-0.165731	-34.6045	0.000758	NaN
633	1.000000	1.003005	7.37125e+06	-45439.1	1005.82	-29772.4	0.000000	0.000000	7.003139	-0.035776	NaN	0.000000	0.001655	0.001774	28.0835	0.107173	0.002012	53.2569	-77.9	-166.377	-0.034116	1.001714	-0.156871	-0.158162	-0.035776	53.2569	-0.156367	-23.6124	0.001515	NaN
633	1.000000	1.013032	7.37125e+06	-45439.1	1005.82	-29772.4	0.000000	0.000000	7.013167	-0.030487	NaN	0.000000	0.001587	0.001747	28.0835	0.010552	0.001963	5.376227	6.844751	13.9836	-0.043619	1.011653	-0.146844	-0.148223	-0.030487	5.376227	-0.142591	-13.2263	0.002305	NaN
633	1.000000	1.023013	7.37125e+06	-45439.1	1005.82	-29772.4	0.000000	0.000000	7.023148	-0.026634	NaN	0.000000	0.001588	0.001800	28.0835	0.096236	0.001873	51.3754	-101.484	-168.061	0.013319	1.021716	-0.136863	-0.138159	-0.026634	51.3754	-0.136474	-10.1477	0.002625	NaN
633	1.000000	1.033062	7.37125e+06	-45439.1	1005.82	-29772.4	0.000000	0.000000	7.033197	-0.032218	NaN	0.000000	0.001682	0.001765	28.0836	0.077457	0.002022	38.3127	-60.5254	9.873793	-0.029722	1.031585	-0.126814	-0.128290	-0.032218	38.3127	-0.126183	-6.417239	0.005021	NaN
633	1.000000	1.042997	7.37125e+06	-45439.1	1005.82	-29772.4	0.000000	0.000000	7.043133	-0.002133	NaN	0.000000	0.001694	0.001759	28.0834	0.095362	0.002030	46.9743	59.3782	-166.701	-0.052088	1.041676	-0.116879	-0.118200	-0.002133	46.9743	-0.116845	-4.168482	0.000512	NaN
633	1.000000	1.052994	7.37125e+06	-45439.1	1005.82	-29772.4	0.000000	0.000000	7.053132	0.031416	NaN	0.000000	0.001670	0.001742	28.0834	0.081265	0.002050	39.636	28.3807	11.8884	0.035825	1.051702	-0.106881	-0.108173	0.031416	39.636	-0.107476	-2.656610	-0.011826	NaN
633	1.000000	1.063042	7.37125e+06	-45439.1	1005.82	-29772.4	0.000000	0.000000	7.063177	-0.022958	NaN	0.000000	0.001690	0.001795	28.0823	0.068267	0.001857	36.7634	-13.2458	-169.29	-0.088804	1.061689	-0.096834	-0.098187	-0.022958	36.7634	-0.096366	-1.514993	0.015154	NaN
633	1.000000	1.073036	7.37125e+06	-45439.1	1005.82	-29772.4	0.000000	0.000000	7.073170	-0.072375	NaN	0.000000	0.001662	0.001745	28.0824	0.020333	0.002124	9.571951	-124.716	15.2577	-0.053140	1.071646	-0.086839	-0.088230	-0.072375	9.571951	-0.081168	-0.661897	0.109345	NaN
633	1.000000	1.083012	7.37125e+06	-45439.1	1005.82	-29772.4	0.000000	0.000000	7.083148	-0.012629	NaN	0.000000	0.001671	0.001726	28.0824	0.077192	0.001892	40.7926	-118.139	-165.053	0.072630	1.081742	-0.076863	-0.078134	-0.012629	40.7926	-0.076631	-0.508725	0.024824	NaN
633	1.000000	1.093062	7.37125e+06	-45439.1	1005.82	-29772.4	0.000000	0.000000	7.093196	-0.061289	NaN	0.000000	0.001661	0.001765	28.0825	0.035706	0.001988	17.9567	43.8797	17.2604	-0.073774	1.091723	-0.066813	-0.068153	-0.061289	17.9567	-0.064253	-0.237582	0.257968	NaN
633	1.000000	1.103036	7.37125e+06	-45439.1	1005.82	-29772.4	0.000000	0.000000	7.103170	-0.045795	NaN	0.000000	0.001691	0.001737	28.0825	0.042120	0.002058	20.4632	106.777	-164.713	0.039831	1.101749	-0.056840	-0.058126	-0.045795	20.4632	-0.055161	-0.130199	0.351730	NaN
633	1.000000	1.113047	7.37125e+06	-45439.1	1005.82	-29772.4	0.000000	0.000000	7.113183	0.002295	NaN	0.000000	0.001698	0.001712	28.0826	0.026175	0.002060	12.7058	-178.691	12.4424	-0.023029	1.111735	-0.046829	-0.048141	0.002295	12.7058	-0.046965	-0.073792	-0.031099	NaN
633	1.000000	1.123067	7.37125e+06	-45439.1	1005.82	-29772.4	0.000000	0.000000	7.123201	-0.039861	NaN	0.000000	0.001684	0.001724	28.0825	0.000882	0.002010	0.438857	44.7236	-167.884	-0.046771	1.121735	-0.036809	-0.038141	-0.039861	0.438857	0.031313	0.043509	-0.916157	1.922235
633	1.000000	1.133068	7.37125e+06	-45439.1	1005.82	-29772.4	0.000000	0.000000	7.133205	0.024507	NaN	0.000000	0.001656	0.001767	28.0826	0.068557	0.002031	33.7478	78.9799	16.7014	-0.001184	1.131710	-0.026808	-0.028166	0.024507	33.7478	-0.027353	-0.019475	-1.258386	NaN
633	1.000000	1.143075	7.37125e+06	-45439.1	1005.82	-29772.4	0.000000	0.000000	7.143209	-0.067212	NaN	0.000000	0.001669	0.001706	28.0828	0.032249	0.001908	16.9027	-27.1972	-166.173	0.003928	1.141716	-0.016800	-0.018159	-0.067212	16.9027	-0.013818	-0.008577	7.836312	NaN
633	1.000000	1.153070	7.37125e+06	-45439.1	1005.82	-29772.4	0.000000	0.000000	7.153220	0.317928	NaN	0.000000	0.001645	0.001747	28.0827	0.545447	0.001953	279.259	27.0224	9.782970	0.089961	1.151703	-0.006805	-0.008173	0.317928	279.259	-0.007659	-0.005031	-63.1889	NaN
633	1.000000	1.163019	7.37125e+06	-45439.1	1005.82	-29772.4	0.000000	0.000000	7.163429	6.663972	NaN	0.000000	0.001659	0.001774	28.0826	7.149677	0.001706	4190.32	14.555	-172.605	4.684736	1.161691	0.003143	0.001815	6.663972	4190.32	0.001951	0.001515	4398.99	98362.6
633	2.000000	1.167137	7.37125e+06	-45439.1	1005.82	-29772.4	0.000000	0.000000	7.167899	15.233	NaN	0.000000	0.001648	0.001714	28.0825	11.7508	0.001603	7329.86	8.983136	3.717578	13.8979	1.166714	0.007261	0.006838	15.233	7329.86	0.005702	0.004784	3184.4	96825.5
633	2.000000	1.169595	7.37125e+06	-45439.1	1005.82	-29772.4	0.000000	0.000000	7.170663	22.6599	NaN	0.000000	0.001695	0.001744	28.0829	14.5273	0.001671	8694.18	4.552077	-174.476	21.8255	1.169291	0.009720	0.009416	22.6599	8694.18	0.007765	0.006802	3331.5	96314.7
633	2.000000	1.172011	7.37125e+06	-45439.1	1005.82	-29772.4	0.000000	0.000000	7.173563	34.4479	NaN	0.000000	0.001690	0.001764	28.0825	18.3154	0.001822	10053.4	7.433722	1.006901	32.3808	1.171713	0.012135	0.011837	34.4479	10053.4	0.009565	0.008702	3958.55	98462.9
633	2.000000	1.174512	7.37125e+06	-45439.1	1005.82	-29772.4	0.000000	0.000000	7.176585	47.1142	NaN	0.000000	0.001677	0.001776	28.0837	21.0778	0.001789	11784.5	6.152068	-178.803	45.0081	1.174165	0.014636	0.014289	47.1142	11784.5	0.011638	0.011059	4260.32	102384
633	2.000000	1.177024	7.37125e+06	-45439.1	1005.82	-29772.4	0.000000	0.000000	7.179830	64.9661	NaN	0.000000	0.001644	0.001756	28.0838	23.3036	0.001767	13187.5	3.139865	3.992796	62.2169	1.176659	0.017148	0.016783	64.9661	13187.5	0.013453	0.013278	4892.85	104562
633	2.000000	1.179479	7.37125e+06	-45439.1	1005.82	-29772.4	0.000000	0.000000	7.183041	83.3355	NaN	0.000000	0.001634	0.001762	28.0839	26.8692	0.001804	14896.2	10.4877	174.55	81.4565	1.179195	0.019603	0.019319	83.3355	14896.2	0.015407	0.015833	5263.56	108162
633	2.000000	1.181985	7.37125e+06	-45439.1	1005.82	-29772.4	0.000000	0.000000	7.186280	101.15	NaN	0.000000	0.001632	0.001748	28.0837	29.1754	0.001730	16868.8	3.363657	-0.009696	98.1187	1.181591	0.022110	0.021715	101.15	16868.8	0.017613	0.018929	5343.72	112020
633	2.000000	1.184524	7.37125e+06	-45439.1	1005.82	-29772.4	0.000000	0.000000	7.189621	120.681	NaN	0.000000	0.001599	0.001747	28.0838	32.1547	0.001749	18381	3.926704	178.915	118.924	1.184197	0.024648	0.024322	120.681	18381	0.019724	0.022110	5458.19	112940
633	2.000000	1.186978	7.37125e+06	-45439.1	1005.82	-29772.4	0.000000	0.000000	7.192965	142.327	NaN	0.000000	0.001592	0.001767	28.0839	33.6152	0.001671	20112.9	4.495075	-2.005572	138.989	1.186620	0.027102	0.026744	142.327	20112.9	0.021795	0.025441	5594.36	115207
633	2.000000	1.189441	7.37125e+06	-45439.1	1005.82	-29772.4	0.000000	0.000000	7.196352	164.803	NaN	0.000000	0.001641	0.001753	28.0839	35.5472	0.001731	20536.1	0.957599	-178.752	161.026	1.189170	0.029565	0.029294	164.803	20536.1	0.023547	0.028425	5797.92	111287
633	2.000000	1.191955	7.37125e+06	-45439.1	1005.82	-29772.4	0.000000	0.000000	7.199723	185.66	NaN	0.000000	0.001586	0.001734	28.0837	38.984	0.001817	21456.9	3.161818	-0.837294	181.683	1.191593	0.032080	0.031717	185.66	21456.9	0.025590	0.032098	5784.18	109421
633	2.000000	1.194471	7.37125e+06	-45439.1	1005.82	-29772.4	0.000000	0.000000	7.203083	206.188	NaN	0.000000	0.001587	0.001736	28.0839	41.4198	0.001759	23545.8	5.455840	175.503	204.716	1.194149	0.034595	0.034274	206.188	23545.8	0.028027	0.036754	5609.91	112210
633	2.000000	1.197082	7.37125e+06	-45439.1	1005.82	-29772.4	0.000000	0.000000	7.206457	224.74	NaN	0.000000	0.001592	0.001760	28.0838	43.0062	0.001881	22858.2	4.786122	-1.838214	226.587	1.196621	0.037206	0.036746	224.74	22858.2	0.029832	0.040397	5563.28	103906
633	2.000000	1.199431	7.37125e+06	-45439.1	1005.82	-29772.4	0.000000	0.000000	7.209438	240.125	NaN	0.000000	0.001626	0.001773	28.0839	45.4305	0.001837	24731.5	4.546525	176.349	237.746	1.199187	0.039555	0.039311	240.125	24731.5	0.032273	0.045587	5267.4	105829
633	2.000000	1.202027	7.37125e+06	-45439.1	1005.82	-29772.4	0.000000	0.000000	7.212579	253.378	NaN	0.000000	0.001623	0.001720	28.0837	47.5498	0.001823	26078.2	4.052826	-3.312498	253.719	1.201722	0.042151	0.041846	253.378	26078.2	0.034864	0.051430	4926.64	105061
633	2.000000	1.204508	7.37125e+06	-45439.1	1005.82	-29772.4	0.000000	0.000000	7.216053	277.523	NaN	0.000000	0.001593	0.001743	28.0837	50.2442	0.001840	27308.2	1.856144	178.531	277.948	1.204185	0.044633	0.044309	277.523	27308.2	0.037011	0.056532	4909.14	104935
633	2.000000	1.206997	7.37125e+06	-45439.1	1005.82	-29772.4	0.000000	0.000000	7.219279	295.475	NaN	0.000000	0.001561	0.001745	28.0835	51.4475	0.001885	27295.6	2.451909	-1.008239	294.628	1.206697	0.047121	0.046822	295.475	27295.6	0.039003	0.061476	4806.34	100580
633	2.000000	1.209384	7.37125e+06	-45439.1	1005.82	-29772.4	0.000000	0.000000	7.222782	322.631	NaN	0.000000	0.001568	0.001713	28.0825	53.3861	0.001769	30173.3	2.222926	177.853	316.154	1.208955	0.049508	0.049080	322.631	30173.3	0.041489	0.067932	4749.32	105769
633	2.000000	1.211867	7.37125e+06	-45439.1	1005.82	-29772.4	0.000000	0.000000	7.226071	342.244	NaN	0.000000	0.001587	0.001774	28.0824	56.7195	0.001807	31386.2	4.730044	-6.090417	336.375	1.211600	0.051991	0.051724	342.244	31386.2	0.043813	0.074253	4609.19	105234
633	2.000000	1.214577	7.37125e+06	-45439.1	1005.82	-29772.4	0.000000	0.000000	7.229264	353.982	NaN	0.000000	0.001588	0.001761	28.0824	59.0015	0.001858	31760.3	2.795784	176.297	357.458	1.214330	0.054701	0.054455	353.982	31760.3	0.046342	0.081443	4346.35	101679
633	2.000000	1.217012	7.37125e+06	-45439.1	1005.82	-29772.4	0.000000	0.000000	7.232991	385.393	NaN	0.000000	0.001599	0.001737	28.0825	61.323	0.001865	32872.9	3.963823	-5.265637	384.528	1.216646	0.057136	0.056770	385.393	32872.9	0.048343	0.087362	4411.46	101613
633	2.000000	1.219404	7.37125e+06	-45439.1	1005.82	-29772.4	0.000000	0.000000	7.236383	409.714	NaN	0.000000	0.001630	0.001763	28.0824	62.3386	0.001740	35825.6	1.173477	177.005	408.283	1.219103	0.059529	0.059227	409.714	35825.6	0.050952	0.095377	4295.73	105985
633	2.000000	1.221861	7.37125e+06	-45439.1	1005.82	-29772.4	0.000000	0.000000	7.239786	432.729	NaN	0.000000	0.001608	0.001749	28.0825	64.9689	0.001797	36147.7	4.890860	-6.840504	426.298	1.221589	0.061986	0.061714	432.729	36147.7	0.053007	0.101935	4245.13	103441
633	2.000000	1.224552	7.37125e+06	-45439.1	1005.82	-29772.4	0.000000	0.000000	7.243048	446.62	NaN	0.000000	0.001600	0.001763	28.0823	68.3035	0.001773	38526.3	6.246945	171.024	451.811	1.224254	0.064677	0.064379	446.62	38526.3	0.055982	0.111796	3994.94	105273
633	2.000000	1.226961	7.37125e+06	-45439.1	1005.82	-29772.4	0.000000	0.000000	7.246476	471.426	NaN	0.000000	0.001618	0.001722	28.0824	70.1081	0.001846	37972.7	6.179445	-8.093396	467.888	1.226553	0.067085	0.066678	471.426	37972.7	0.057774	0.117948	3996.91	101018
633	2.000000	1.229432	7.37125e+06	-45439.1	1005.82	-29772.4	0.000000	0.000000	7.249822	492.717	NaN	0.000000	0.001614	0.001739	28.0825	72.4715	0.001816	39905.7	8.127721	168.787	491.537	1.229164	0.069556	0.069289	492.717	39905.7	0.060296	0.126871	3883.59	102359
633	2.000000	1.231869	7.37125e+06	-45439.1	1005.82	-29772.4	0.000000	0.000000	7.252920	508.778	NaN	0.000000	0.001660	0.001759	28.0825	74.2409	0.001892	39235.5	2.379635	-5.032221	504.676	1.231650	0.071993	0.071775	508.778	39235.5	0.062268	0.134066	3794.99	97902.4
633	2.000000	1.234361	7.37125e+06	-45439.1	1005.82	-29772.4	0.000000	0.000000	7.256651	538.911	NaN	0.000000	0.001644	0.001769	28.0827	76.9715	0.001827	42137.4	8.192131	169.44	535.049	1.233924	0.074486	0.074048	538.911	42137.4	0.064894	0.143939	3744.03	101473
633	2.000000	1.236964	7.37125e+06	-45439.1	1005.82	-29772.4	0.000000	0.000000	7.260151	560.74	NaN	0.000000	0.001619	0.001785	28.0826	77.7306	0.001732	44891.3	6.244149	-9.289934	558.853	1.236558	0.077088	0.076683	560.74	44891.3	0.067720	0.154937	3619.14	104198
633	2.000000	1.239522	7.37125e+06	-45439.1	1005.82	-29772.4	0.000000	0.000000	7.262912	565.672	NaN	0.000000	0.001649	0.001775	28.082	79.5376	0.001919	41448.3	4.068247	172.632	567.369	1.239362	0.079647	0.079487	565.672	41448.3	0.069411	0.161701	3498.26	94172.5
633	2.000000	1.241897	7.37125e+06	-45439.1	1005.82	-29772.4	0.000000	0.000000	7.266542	596.212	NaN	0.000000	0.001557	0.001805	28.0837	80.392	0.001733	46385	1.227768	-5.129282	591.235	1.241614	0.082021	0.081738	596.212	46385	0.072381	0.173908	3428.32	101623
633	2.000000	1.244446	7.37125e+06	-45439.1	1005.82	-29772.4	0.000000	0.000000	7.270161	622.246	NaN	0.000000	0.001610	0.001797	28.0839	83.7867	0.001669	50207.5	1.511118	173.894	622.011	1.244193	0.084571	0.084317	622.246	50207.5	0.075276	0.186208	3341.67	106302
633	2.000000	1.247091	7.37125e+06	-45439.1	1005.82	-29772.4	0.000000	0.000000	7.273910	649.115	NaN	0.000000	0.001598	0.001791	28.0839	86.8179	0.001790	48506.9	6.714220	-10.0835	654.684	1.246679	0.087215	0.086804	649.115	48506.9	0.077179	0.194510	3337.18	100486
633	2.000000	1.249305	7.37125e+06	-45439.1	1005.82	-29772.4	0.000000	0.000000	7.277029	671.096	NaN	0.000000	0.001580	0.001787	28.0838	88.2365	0.001784	49450.4	2.247189	173.918	665.858	1.249143	0.089430	0.089267	671.096	49450.4	0.079252	0.203745	3293.81	100092
633	2.000000	1.252004	7.37125e+06	-45439.1	1005.82	-29772.4	0.000000	0.000000	7.280486	689.552	NaN	0.000000	0.001595	0.001790	28.0846	92.5577	0.001876	49335.3	6.691434	-10.726	690.815	1.251575	0.092129	0.091699	689.552	49335.3	0.081646	0.214662	3212.27	97286.8
633	2.000000	1.254353	7.37125e+06	-45439.1	1005.82	-29772.4	0.000000	0.000000	7.284145	721.426	NaN	0.000000	0.001609	0.001806	28.0839	94.061	0.001782	52773.9	4.162617	171.428	719.854	1.254089	0.094477	0.094213	721.426	52773.9	0.084225	0.226718	3182.04	101263
633	2.000000	1.256844	7.37125e+06	-45439.1	1005.82	-29772.4	0.000000	0.000000	7.287557	743.821	NaN	0.000000	0.001613	0.001807	28.0836	95.7433	0.001832	52262.1	4.480710	-8.849097	736.205	1.256591	0.096969	0.096716	743.821	52262.1	0.086294	0.236614	3143.6	98161.1
633	2.000000	1.259456	7.37125e+06	-45439.1	1005.82	-29772.4	0.000000	0.000000	7.291126	767.094	NaN	0.000000	0.001622	0.001787	28.0836	97.5867	0.001746	55902.2	3.905669	171.535	769.901	1.259202	0.099581	0.099326	767.094	55902.2	0.089289	0.251286	3052.67	101887
633	2.000000	1.261916	7.37125e+06	-45439.1	1005.82	-29772.4	0.000000	0.000000	7.295034	802.352	NaN	0.000000	0.001643	0.001797	28.0837	100.58	0.001804	55743.4	6.530162	-11.0034	798.452	1.261487	0.102040	0.101611	802.352	55743.4	0.091245	0.261090	3073.09	99671.6
633	2.000000	1.263922	7.37125e+06	-45439.1	1005.82	-29772.4	0.000000	0.000000	7.297705	818.519	NaN	0.000000	0.001627	0.001773	28.0837	102.741	0.001919	53543.7	4.237453	-8.413297	815.455	1.263472	0.104046	0.103597	818.519	53543.7	0.092581	0.267888	3055.45	94515.9