File: remote_trans/data/nanoindenter/0828-1/data/Data_2025-08-06,11h17m57s/2025-07-22_16-23-58_1_679.txt
2025-07-22, 16:23:58, 1
Index	Phase	Displacement	Time	Pos X	Pos Y	Pos Z	Rot A	Rot B	Piezo Z	Force A	Force B	Gripper	Voltage A	Voltage B	Temperature	Amplitude force	Amplitude pos	Stiffness	Phase shift	Phase excitation	Force A raw	Displacement raw	HMax	HMax raw	Real Force	Real Stiffness	Contact Depth	Area	Hardness	Reduced Mod.
[#]	[#]	[um]	[s]	[um]	[um]	[um]	[m°]	[m°]	[um]	[uN]	[uN]	[V]	[V]	[V]	[°C]	[uN]	[um]	[N/m]	[°]	[°]	[uN]	[um]	[um]	[um]	[uN]	[N/m]	[um]	[um^2]	[MPa]	[MPa]
679	1.000000	0.002339	7.37169e+06	-43139.1	1005.82	-29780.1	0.000000	0.000000	6.002800	0.030416	NaN	0.000000	0.001640	0.001625	28.0821	0.113741	0.000898	126.664	109.974	-165.483	0.110581	0.001108	-1.123108	-1.124339	0.030416	126.664	-1.123288	-1.029388E+15	-2.954799E-17	NaN
679	1.000000	0.012412	7.37169e+06	-43139.1	1005.82	-29780.1	0.000000	0.000000	6.012870	-0.029568	NaN	0.000000	0.001594	0.001637	28.0822	0.076852	0.001227	62.6103	100.034	19.9018	0.054527	0.010916	-1.113035	-1.114531	-0.029568	62.6103	-1.112681	-7.417535E+14	3.986165E-17	NaN
679	1.000000	0.022267	7.37169e+06	-43139.1	1005.82	-29780.1	0.000000	0.000000	6.022725	-0.037555	NaN	0.000000	0.001608	0.001642	28.0819	0.026491	0.001729	15.3194	133.108	-164.721	0.057468	0.020943	-1.103179	-1.104504	-0.037555	15.3194	-1.101341	-5.224732E+14	7.188020E-17	NaN
679	1.000000	0.032273	7.37169e+06	-43139.1	1005.82	-29780.1	0.000000	0.000000	6.032732	-0.015168	NaN	0.000000	0.001622	0.001629	28.0809	0.098944	0.001802	54.9113	-86.202	17.409	-0.074165	0.030895	-1.093174	-1.094552	-0.015168	54.9113	-1.092967	-4.033159E+14	3.760891E-17	NaN
679	1.000000	0.042289	7.37169e+06	-43139.1	1005.82	-29780.1	0.000000	0.000000	6.042750	0.041726	NaN	0.000000	0.001634	0.001658	28.081	0.020553	0.002008	10.2335	81.5403	-163.144	0.095794	0.040992	-1.083158	-1.084454	0.041726	10.2335	-1.086216	-3.273396E+14	-1.274703E-16	NaN
679	1.000000	0.052301	7.37169e+06	-43139.1	1005.82	-29780.1	0.000000	0.000000	6.052762	0.036969	NaN	0.000000	0.001650	0.001641	28.0808	0.105385	0.002002	52.64	-121.52	15.0211	0.013827	0.050912	-1.073145	-1.074535	0.036969	52.64	-1.073672	-2.220852E+14	-1.664630E-16	NaN
679	1.000000	0.062290	7.37169e+06	-43139.1	1005.82	-29780.1	0.000000	0.000000	6.062751	0.035199	NaN	0.000000	0.001621	0.001665	28.0809	0.124005	0.001869	66.3392	-172.844	-168.139	0.040626	0.060947	-1.063157	-1.064499	0.035199	66.3392	-1.063555	-1.624011E+14	-2.167418E-16	NaN
679	1.000000	0.072303	7.37169e+06	-43139.1	1005.82	-29780.1	0.000000	0.000000	6.072768	0.136688	NaN	0.000000	0.001604	0.001748	28.081	0.030128	0.002145	14.0455	177.223	14.4337	0.093926	0.070955	-1.053144	-1.054492	0.136688	14.0455	-1.060443	-1.474924E+14	-9.267432E-16	NaN
679	1.000000	0.082292	7.37169e+06	-43139.1	1005.82	-29780.1	0.000000	0.000000	6.082748	-0.073227	NaN	0.000000	0.001550	0.001726	28.0811	0.067039	0.001985	33.7788	-151.158	-162.073	0.021938	0.080976	-1.043155	-1.044471	-0.073227	33.7788	-1.041529	-8.213455E+13	8.915442E-16	NaN
679	1.000000	0.092333	7.37169e+06	-43139.1	1005.82	-29780.1	0.000000	0.000000	6.092795	0.046448	NaN	0.000000	0.001569	0.001717	28.0808	0.019864	0.002041	9.734181	-115.918	15.0376	0.027520	0.090947	-1.033113	-1.034500	0.046448	9.734181	-1.036692	-7.071061E+13	-6.568740E-16	NaN
679	1.000000	0.102314	7.37169e+06	-43139.1	1005.82	-29780.1	0.000000	0.000000	6.102774	0.016755	NaN	0.000000	0.001579	0.001746	28.081	0.029291	0.001942	15.0811	-128.132	-166.73	0.005968	0.100985	-1.023133	-1.024462	0.016755	15.0811	-1.023966	-4.767755E+13	-3.514304E-16	NaN
679	1.000000	0.112291	7.37169e+06	-43139.1	1005.82	-29780.1	0.000000	0.000000	6.112751	0.013430	NaN	0.000000	0.001592	0.001819	28.081	0.059525	0.001958	30.3988	138.785	17.0179	0.010102	0.110997	-1.013156	-1.014449	0.013430	30.3988	-1.013487	-3.445970E+13	-3.897218E-16	NaN
679	1.000000	0.122315	7.37169e+06	-43139.1	1005.82	-29780.1	0.000000	0.000000	6.122774	-0.016251	NaN	0.000000	0.001578	0.001820	28.0809	0.059657	0.001982	30.0939	39.6949	-161.759	-0.003930	0.120985	-1.003132	-1.004461	-0.016251	30.0939	-1.002727	-2.468776E+13	6.582685E-16	NaN
679	1.000000	0.132301	7.37169e+06	-43139.1	1005.82	-29780.1	0.000000	0.000000	6.132762	0.021067	NaN	0.000000	0.001587	0.001759	28.0808	0.041532	0.002008	20.6875	-64.2306	16.7885	0.071705	0.130964	-0.993145	-0.994482	0.021067	20.6875	-0.993909	-1.878249E+13	-1.121636E-15	NaN
679	1.000000	0.142353	7.37169e+06	-43139.1	1005.82	-29780.1	0.000000	0.000000	6.142813	0.007580	NaN	0.000000	0.001562	0.001789	28.0809	0.077658	0.002018	38.4762	120.25	-169.269	-0.044637	0.140940	-0.983094	-0.984506	0.007580	38.4762	-0.983241	-1.349198E+13	-5.618196E-16	NaN
679	1.000000	0.152295	7.37169e+06	-43139.1	1005.82	-29780.1	0.000000	0.000000	6.152757	0.039247	NaN	0.000000	0.001608	0.001785	28.081	0.103923	0.001934	53.7312	-0.844000	14.4553	0.033260	0.150988	-0.973151	-0.974459	0.039247	53.7312	-0.973699	-1.003485E+13	-3.911064E-15	NaN
679	1.000000	0.162310	7.37169e+06	-43139.1	1005.82	-29780.1	0.000000	0.000000	6.162767	-0.062216	NaN	0.000000	0.001599	0.001747	28.0819	0.045261	0.002015	22.4583	112.245	-167.677	-0.035068	0.161055	-0.963136	-0.964391	-0.062216	22.4583	-0.961059	-6.778605E+12	9.178360E-15	NaN
679	1.000000	0.172333	7.37169e+06	-43139.1	1005.82	-29780.1	0.000000	0.000000	6.172791	-0.045142	NaN	0.000000	0.001659	0.001777	28.082	0.064770	0.002101	30.8313	-137.109	16.7175	-0.060888	0.170910	-0.953114	-0.954537	-0.045142	30.8313	-0.952016	-5.119297E+12	8.818000E-15	NaN
679	1.000000	0.182350	7.37169e+06	-43139.1	1005.82	-29780.1	0.000000	0.000000	6.182811	0.047789	NaN	0.000000	0.001614	0.001784	28.082	0.061287	0.002005	30.5638	-178.658	-166.018	-0.035505	0.181015	-0.943097	-0.944431	0.047789	30.5638	-0.944270	-4.024739E+12	-1.187380E-14	NaN
679	1.000000	0.192333	7.37169e+06	-43139.1	1005.82	-29780.1	0.000000	0.000000	6.192793	0.010187	NaN	0.000000	0.001726	0.001778	28.082	0.030282	0.002009	15.0713	-172.553	15.6233	-0.001727	0.191015	-0.933114	-0.934431	0.010187	15.0713	-0.933621	-2.891090E+12	-3.523574E-15	NaN
679	1.000000	0.202338	7.37169e+06	-43139.1	1005.82	-29780.1	0.000000	0.000000	6.202800	0.038343	NaN	0.000000	0.001672	0.001777	28.0818	0.109510	0.002014	54.3836	116.286	-164.097	-0.013168	0.201018	-0.923108	-0.924429	0.038343	54.3836	-0.923637	-2.119866E+12	-1.808726E-14	NaN
679	1.000000	0.212331	7.37169e+06	-43139.1	1005.82	-29780.1	0.000000	0.000000	6.212793	0.054635	NaN	0.000000	0.001637	0.001740	28.0818	0.041283	0.001855	22.2546	15.6903	10.8577	0.022551	0.211006	-0.913115	-0.914441	0.054635	22.2546	-0.914956	-1.618466E+12	-3.375728E-14	NaN
679	1.000000	0.222365	7.37169e+06	-43139.1	1005.82	-29780.1	0.000000	0.000000	6.222826	0.022770	NaN	0.000000	0.001649	0.001753	28.0821	0.069667	0.001873	37.1979	88.5011	-168.68	0.025627	0.221122	-0.903081	-0.904324	0.022770	37.1979	-0.903540	-1.134749E+12	-2.006653E-14	NaN
679	1.000000	0.232358	7.37169e+06	-43139.1	1005.82	-29780.1	0.000000	0.000000	6.232819	0.037475	NaN	0.000000	0.001640	0.001782	28.0818	0.063759	0.001970	32.3716	97.7075	16.2086	0.059104	0.231019	-0.893089	-0.894427	0.037475	32.3716	-0.893957	-8.421737E+11	-4.449742E-14	NaN
679	1.000000	0.242378	7.37169e+06	-43139.1	1005.82	-29780.1	0.000000	0.000000	6.242837	-0.018355	NaN	0.000000	0.001679	0.001784	28.0818	0.011925	0.002031	5.872111	-17.2703	-165.608	0.019710	0.241032	-0.883068	-0.884415	-0.018355	5.872111	-0.880724	-5.578234E+11	3.290508E-14	NaN
679	1.000000	0.252362	7.37169e+06	-43139.1	1005.82	-29780.1	0.000000	0.000000	6.252822	0.012878	NaN	0.000000	0.001668	0.001778	28.0819	0.040670	0.001972	20.6288	-178.977	16.0788	0.075458	0.250976	-0.873085	-0.874470	0.012878	20.6288	-0.873553	-4.461794E+11	-2.886256E-14	NaN
679	1.000000	0.262368	7.37169e+06	-43139.1	1005.82	-29780.1	0.000000	0.000000	6.262831	0.073535	NaN	0.000000	0.001654	0.001746	28.0819	0.050880	0.001991	25.5541	153.767	-160.42	0.148413	0.261091	-0.863078	-0.864356	0.073535	25.5541	-0.865236	-3.443407E+11	-2.135544E-13	NaN
679	1.000000	0.272376	7.37169e+06	-43139.1	1005.82	-29780.1	0.000000	0.000000	6.272838	0.048199	NaN	0.000000	0.001646	0.001755	28.0819	0.031798	0.001991	15.972	-78.9112	14.3882	0.015521	0.271007	-0.853070	-0.854440	0.048199	15.972	-0.855334	-2.529028E+11	-1.905841E-13	NaN
679	1.000000	0.282354	7.37169e+06	-43139.1	1005.82	-29780.1	0.000000	0.000000	6.282815	0.037744	NaN	0.000000	0.001660	0.001795	28.0818	0.075051	0.002055	36.5172	-25.3162	-165.356	0.108345	0.281112	-0.843092	-0.844335	0.037744	36.5172	-0.843868	-1.768821E+11	-2.133873E-13	NaN
679	1.000000	0.292403	7.37169e+06	-43139.1	1005.82	-29780.1	0.000000	0.000000	6.292864	0.035313	NaN	0.000000	0.001631	0.001778	28.0817	0.054766	0.002003	27.3462	8.201469	17.2498	0.039974	0.290985	-0.833043	-0.834462	0.035313	27.3462	-0.834012	-1.300631E+11	-2.715103E-13	NaN
679	1.000000	0.302403	7.37169e+06	-43139.1	1005.82	-29780.1	0.000000	0.000000	6.302863	-0.005725	NaN	0.000000	0.001648	0.001797	28.0807	0.058937	0.002006	29.3741	139.321	-164.364	-0.016524	0.301085	-0.823043	-0.824361	-0.005725	29.3741	-0.822897	-9.193821E+10	6.226592E-14	NaN
679	1.000000	0.312395	7.37169e+06	-43139.1	1005.82	-29780.1	0.000000	0.000000	6.312859	0.092941	NaN	0.000000	0.001600	0.001776	28.0805	0.066440	0.002012	33.0202	73.3155	17.2668	0.046417	0.311058	-0.813051	-0.814388	0.092941	33.0202	-0.815162	-7.221019E+10	-1.287090E-12	NaN
679	1.000000	0.322403	7.37169e+06	-43139.1	1005.82	-29780.1	0.000000	0.000000	6.322864	0.047179	NaN	0.000000	0.001615	0.001773	28.0806	0.082938	0.002103	39.4352	-148.765	-162.717	0.054509	0.321120	-0.803044	-0.804327	0.047179	39.4352	-0.803941	-5.085740E+10	-9.276652E-13	NaN
679	1.000000	0.332436	7.37169e+06	-43139.1	1005.82	-29780.1	0.000000	0.000000	6.332895	-0.007817	NaN	0.000000	0.001608	0.001784	28.0805	0.114805	0.001969	58.3004	103.055	13.4647	0.017400	0.331057	-0.793011	-0.794390	-0.007817	58.3004	-0.792910	-3.602531E+10	2.169822E-13	NaN
679	1.000000	0.342432	7.37169e+06	-43139.1	1005.82	-29780.1	0.000000	0.000000	6.342893	0.022913	NaN	0.000000	0.001603	0.001762	28.0806	0.065959	0.001997	33.0323	-41.0737	-162.139	0.037844	0.341049	-0.783014	-0.784398	0.022913	33.0323	-0.783535	-2.686940E+10	-8.527501E-13	NaN
679	1.000000	0.352401	7.37169e+06	-43139.1	1005.82	-29780.1	0.000000	0.000000	6.352864	0.081764	NaN	0.000000	0.001596	0.001788	28.0804	0.037282	0.001863	20.0094	-26.8345	12.7808	0.004432	0.351025	-0.773045	-0.774422	0.081764	20.0094	-0.776110	-2.129928E+10	-3.838794E-12	NaN
679	1.000000	0.362396	7.37169e+06	-43139.1	1005.82	-29780.1	0.000000	0.000000	6.362853	-0.056809	NaN	0.000000	0.001602	0.001759	28.0804	0.049798	0.002039	24.4183	-17.0862	-163.001	-0.047094	0.361102	-0.763051	-0.764345	-0.056809	24.4183	-0.761306	-1.339885E+10	4.239871E-12	NaN
679	1.000000	0.372436	7.37169e+06	-43139.1	1005.82	-29780.1	0.000000	0.000000	6.372897	0.039124	NaN	0.000000	0.001647	0.001749	28.0806	0.050019	0.002075	24.1063	-54.5037	14.31	0.062667	0.371053	-0.753011	-0.754393	0.039124	24.1063	-0.754228	-1.073415E+10	-3.644839E-12	NaN
679	1.000000	0.382426	7.37169e+06	-43139.1	1005.82	-29780.1	0.000000	0.000000	6.382884	-0.053092	NaN	0.000000	0.001622	0.001756	28.0806	0.088125	0.002068	42.6197	12.4688	-163.51	-0.088147	0.381156	-0.743021	-0.744291	-0.053092	42.6197	-0.742086	-7.336176E+9	7.237065E-12	NaN
679	1.000000	0.392436	7.37169e+06	-43139.1	1005.82	-29780.1	0.000000	0.000000	6.392897	0.038705	NaN	0.000000	0.001610	0.001792	28.0806	0.072973	0.002066	35.3223	-14.4212	16.0843	0.015956	0.391089	-0.733010	-0.734358	0.038705	35.3223	-0.733832	-5.662817E+9	-6.834851E-12	NaN
679	1.000000	0.402444	7.37169e+06	-43139.1	1005.82	-29780.1	0.000000	0.000000	6.402907	0.089418	NaN	0.000000	0.001590	0.001734	28.0805	0.063752	0.001921	33.1815	63.1705	-165.159	0.075033	0.401166	-0.723003	-0.724280	0.089418	33.1815	-0.725024	-4.295166E+9	-2.081828E-11	NaN
679	1.000000	0.412436	7.37169e+06	-43139.1	1005.82	-29780.1	0.000000	0.000000	6.412897	0.043574	NaN	0.000000	0.001587	0.001764	28.0808	0.009170	0.001948	4.706140	-21.0167	18.6427	0.017285	0.411128	-0.713011	-0.714318	0.043574	4.706140	-0.719955	-3.663186E+9	-1.189521E-11	NaN
679	1.000000	0.422458	7.37169e+06	-43139.1	1005.82	-29780.1	0.000000	0.000000	6.422918	0.008280	NaN	0.000000	0.001607	0.001787	28.081	0.095032	0.001969	48.273	83.5494	-164.603	-0.016792	0.421125	-0.702989	-0.704322	0.008280	48.273	-0.703117	-2.158233E+9	-3.836404E-12	NaN
679	1.000000	0.432442	7.37169e+06	-43139.1	1005.82	-29780.1	0.000000	0.000000	6.432902	0.004086	NaN	0.000000	0.001586	0.001756	28.0806	0.054133	0.001934	27.9867	-86.4016	12.9009	-0.035564	0.431049	-0.693005	-0.694397	0.004086	27.9867	-0.693114	-1.575693E+9	-2.593370E-12	NaN
679	1.000000	0.442465	7.37169e+06	-43139.1	1005.82	-29780.1	0.000000	0.000000	6.442925	0.014335	NaN	0.000000	0.001548	0.001750	28.0819	0.056959	0.001933	29.4702	-104.926	-165.277	0.023464	0.441141	-0.682982	-0.684306	0.014335	29.4702	-0.683347	-1.158694E+9	-1.237138E-11	NaN
679	1.000000	0.452435	7.37169e+06	-43139.1	1005.82	-29780.1	0.000000	0.000000	6.452893	-0.031886	NaN	0.000000	0.001580	0.001759	28.0819	0.036261	0.001998	18.1495	-10.9278	14.7575	0.013283	0.451123	-0.673012	-0.674323	-0.031886	18.1495	-0.671694	-8.027451E+8	3.972113E-11	NaN
679	1.000000	0.462460	7.37169e+06	-43139.1	1005.82	-29780.1	0.000000	0.000000	6.462921	0.044551	NaN	0.000000	0.001606	0.001799	28.0819	0.032661	0.002008	16.2642	157.991	-165.648	0.107635	0.461173	-0.662987	-0.664274	0.044551	16.2642	-0.665041	-6.508881E+8	-6.844700E-11	NaN
679	1.000000	0.472455	7.37169e+06	-43139.1	1005.82	-29780.1	0.000000	0.000000	6.472914	-0.008650	NaN	0.000000	0.001615	0.001787	28.0818	0.128760	0.002065	62.3541	-18.2475	13.7318	-0.099584	0.471128	-0.652992	-0.654319	-0.008650	62.3541	-0.652888	-4.436268E+8	1.949765E-11	NaN
679	1.000000	0.482486	7.37169e+06	-43139.1	1005.82	-29780.1	0.000000	0.000000	6.482946	0.007789	NaN	0.000000	0.001570	0.001782	28.0822	0.112775	0.002132	52.892	-81.6399	-161.685	0.074826	0.481170	-0.642961	-0.644276	0.007789	52.892	-0.643071	-3.254015E+8	-2.393666E-11	NaN
679	1.000000	0.492492	7.37169e+06	-43139.1	1005.82	-29780.1	0.000000	0.000000	6.492954	0.059602	NaN	0.000000	0.001593	0.001771	28.0818	0.066237	0.002052	32.2728	-140.893	13.0706	0.175822	0.491140	-0.632955	-0.634306	0.059602	32.2728	-0.634340	-2.469488E+8	-2.413548E-10	NaN
679	1.000000	0.502488	7.37169e+06	-43139.1	1005.82	-29780.1	0.000000	0.000000	6.502951	0.085795	NaN	0.000000	0.001588	0.001764	28.0819	0.093895	0.002012	46.672	1.289279	-162.264	0.018704	0.501140	-0.622959	-0.624307	0.085795	46.672	-0.624338	-1.799877E+8	-4.766722E-10	NaN
679	1.000000	0.512475	7.37169e+06	-43139.1	1005.82	-29780.1	0.000000	0.000000	6.512934	-0.018411	NaN	0.000000	0.001606	0.001766	28.0817	0.052256	0.002154	24.2581	-72.7578	17.4898	-0.004825	0.511137	-0.612972	-0.614309	-0.018411	24.2581	-0.612403	-1.233581E+8	1.492507E-10	NaN
679	1.000000	0.522508	7.37169e+06	-43139.1	1005.82	-29780.1	0.000000	0.000000	6.522970	0.053364	NaN	0.000000	0.001611	0.001715	28.0821	0.096854	0.001856	52.1913	-13.9392	-165.13	-0.017160	0.521254	-0.602938	-0.604192	0.053364	52.1913	-0.603705	-9.364357E+7	-5.698616E-10	NaN
679	1.000000	0.532518	7.37169e+06	-43139.1	1005.82	-29780.1	0.000000	0.000000	6.532979	0.041373	NaN	0.000000	0.001595	0.001790	28.0819	0.111727	0.001977	56.5024	12.8229	15.3566	0.014118	0.531184	-0.592929	-0.594262	0.041373	56.5024	-0.593478	-6.770307E+7	-6.111009E-10	NaN
679	1.000000	0.542492	7.37169e+06	-43139.1	1005.82	-29780.1	0.000000	0.000000	6.542954	0.066052	NaN	0.000000	0.001576	0.001749	28.0821	0.064543	0.001920	33.6108	148.404	-168.442	0.030590	0.541198	-0.582955	-0.584248	0.066052	33.6108	-0.584428	-5.079617E+7	-1.300335E-9	NaN
679	1.000000	0.552482	7.37169e+06	-43139.1	1005.82	-29780.1	0.000000	0.000000	6.552942	0.015634	NaN	0.000000	0.001620	0.001782	28.0816	0.078022	0.002057	37.9379	156.069	14.8986	0.009600	0.551134	-0.572964	-0.574312	0.015634	37.9379	-0.573273	-3.563309E+7	-4.387376E-10	NaN
679	1.000000	0.562521	7.37169e+06	-43139.1	1005.82	-29780.1	0.000000	0.000000	6.562979	-0.046111	NaN	0.000000	0.001599	0.001748	28.0817	0.023010	0.001928	11.9364	126.427	-169.171	-0.040085	0.561171	-0.562926	-0.564276	-0.046111	11.9364	-0.560028	-2.337599E+7	1.972566E-9	NaN
679	1.000000	0.572529	7.37169e+06	-43139.1	1005.82	-29780.1	0.000000	0.000000	6.572988	-0.011846	NaN	0.000000	0.001584	0.001771	28.0804	0.068276	0.002138	31.9371	-23.967	11.7093	-0.013507	0.571129	-0.552917	-0.554317	-0.011846	31.9371	-0.552639	-1.847161E+7	6.412943E-10	NaN
679	1.000000	0.582511	7.37169e+06	-43139.1	1005.82	-29780.1	0.000000	0.000000	6.582972	0.055086	NaN	0.000000	0.001584	0.001791	28.0805	0.108274	0.002057	52.6332	26.8243	-163.516	0.028619	0.581249	-0.542936	-0.544198	0.055086	52.6332	-0.543721	-1.389797E+7	-3.963611E-9	NaN
679	1.000000	0.592516	7.37169e+06	-43139.1	1005.82	-29780.1	0.000000	0.000000	6.592976	0.022248	NaN	0.000000	0.001613	0.001735	28.0806	0.061202	0.001992	30.7232	-59.5402	16.7066	0.048717	0.591118	-0.532931	-0.534329	0.022248	30.7232	-0.533474	-1.001862E+7	-2.220711E-9	NaN
679	1.000000	0.602516	7.37169e+06	-43139.1	1005.82	-29780.1	0.000000	0.000000	6.602976	-0.004105	NaN	0.000000	0.001607	0.001769	28.0805	0.053276	0.001923	27.6977	64.937	-163.895	-0.031095	0.601197	-0.522930	-0.524250	-0.004105	27.6977	-0.522819	-7.1252e+06	5.761683E-10	NaN
679	1.000000	0.612523	7.37169e+06	-43139.1	1005.82	-29780.1	0.000000	0.000000	6.612983	0.022103	NaN	0.000000	0.001603	0.001778	28.0802	0.061505	0.001970	31.2132	-53.095	12.3381	-0.038907	0.611156	-0.512924	-0.514290	0.022103	31.2132	-0.513455	-5.27871e+06	-4.187271E-9	NaN
679	1.000000	0.622547	7.37169e+06	-43139.1	1005.82	-29780.1	0.000000	0.000000	6.623008	0.036039	NaN	0.000000	0.001627	0.001747	28.0804	0.049772	0.001982	25.1145	-157.751	-167.41	0.006826	0.621290	-0.502900	-0.504156	0.036039	25.1145	-0.503976	-3.89464e+06	-9.253467E-9	NaN
679	1.000000	0.632521	7.37169e+06	-43139.1	1005.82	-29780.1	0.000000	0.000000	6.632983	0.068335	NaN	0.000000	0.001634	0.001783	28.0803	0.075764	0.001856	40.8118	63.0036	11.2843	0.043108	0.631178	-0.492926	-0.494269	0.068335	40.8118	-0.494182	-2.84322e+06	-2.403455E-8	NaN
679	1.000000	0.642528	7.37169e+06	-43139.1	1005.82	-29780.1	0.000000	0.000000	6.642988	0.014374	NaN	0.000000	0.001601	0.001773	28.0802	0.037299	0.002114	17.6463	-10.9682	-167.464	0.084763	0.641194	-0.482919	-0.484253	0.014374	17.6463	-0.483530	-2.01802e+06	-7.122768E-9	NaN
679	1.000000	0.652529	7.37169e+06	-43139.1	1005.82	-29780.1	0.000000	0.000000	6.652990	0.039279	NaN	0.000000	0.001603	0.001743	28.0801	0.092196	0.001946	47.3696	-140.418	14.4906	0.008405	0.651178	-0.472918	-0.474269	0.039279	47.3696	-0.473540	-1.4623e+06	-2.686138E-8	NaN
679	1.000000	0.662560	7.37169e+06	-43139.1	1005.82	-29780.1	0.000000	0.000000	6.663021	0.027423	NaN	0.000000	0.001617	0.001749	28.0804	0.043137	0.002051	21.0325	-23.873	-167.608	0.053773	0.661223	-0.462886	-0.464224	0.027423	21.0325	-0.463864	-1.0698e+06	-2.563347E-8	NaN
679	1.000000	0.672531	7.37169e+06	-43139.1	1005.82	-29780.1	0.000000	0.000000	6.672992	0.022627	NaN	0.000000	0.001629	0.001782	28.0801	0.022542	0.001882	11.9776	53.569	17.3323	0.006725	0.671189	-0.452915	-0.454258	0.022627	11.9776	-0.454332	-785818	-2.879410E-8	NaN
679	1.000000	0.682563	7.37169e+06	-43139.1	1005.82	-29780.1	0.000000	0.000000	6.683025	0.054923	NaN	0.000000	0.001608	0.001826	28.0802	0.027327	0.001994	13.705	-52.4198	-162.419	0.028021	0.681229	-0.442883	-0.444218	0.054923	13.705	-0.445889	-597616	-9.190394E-8	NaN
679	1.000000	0.692565	7.37169e+06	-43139.1	1005.82	-29780.1	0.000000	0.000000	6.693025	0.031686	NaN	0.000000	0.001631	0.001767	28.0802	0.105257	0.001923	54.7367	-49.5513	16.8244	0.083527	0.691198	-0.432882	-0.434248	0.031686	54.7367	-0.433316	-397153	-7.978196E-8	NaN
679	1.000000	0.702556	7.37169e+06	-43139.1	1005.82	-29780.1	0.000000	0.000000	6.703017	0.036690	NaN	0.000000	0.001629	0.001747	28.0804	0.009513	0.001953	4.869988	-35.8534	-168.703	0.086273	0.701256	-0.422891	-0.424190	0.036690	4.869988	-0.428541	-339953	-1.079253E-7	NaN
679	1.000000	0.712550	7.37169e+06	-43139.1	1005.82	-29780.1	0.000000	0.000000	6.713010	0.003165	NaN	0.000000	0.001650	0.001746	28.0815	0.040013	0.002108	18.9841	-163.919	15.2583	-0.089826	0.711221	-0.412896	-0.414226	0.003165	18.9841	-0.413021	-204808	-1.545523E-8	NaN
679	1.000000	0.722593	7.37169e+06	-43139.1	1005.82	-29780.1	0.000000	0.000000	6.723051	-0.048066	NaN	0.000000	0.001637	0.001753	28.0815	0.057848	0.001914	30.2263	-65.9232	-163.697	0.064116	0.721279	-0.402853	-0.404168	-0.048066	30.2263	-0.401660	-141146	3.405405E-7	NaN
679	1.000000	0.732576	7.37169e+06	-43139.1	1005.82	-29780.1	0.000000	0.000000	6.733037	0.036092	NaN	0.000000	0.001597	0.001729	28.0817	0.030593	0.001854	16.4981	53.8663	13.0002	0.027892	0.731221	-0.392871	-0.394226	0.036092	16.4981	-0.394511	-111598	-3.234131E-7	NaN
679	1.000000	0.742589	7.37169e+06	-43139.1	1005.82	-29780.1	0.000000	0.000000	6.743051	0.048136	NaN	0.000000	0.001641	0.001709	28.0817	0.034488	0.002040	16.9073	-21.3921	-165.645	0.079487	0.741289	-0.382858	-0.384158	0.048136	16.9073	-0.384993	-81561.2	-5.901830E-7	NaN
679	1.000000	0.752597	7.37169e+06	-43139.1	1005.82	-29780.1	0.000000	0.000000	6.753056	-0.015916	NaN	0.000000	0.001586	0.001773	28.0815	0.120609	0.002168	55.6267	-48.4144	16.6046	-0.031529	0.751245	-0.372850	-0.374201	-0.015916	55.6267	-0.372635	-54207.5	2.936185E-7	NaN
679	1.000000	0.762587	7.3717e+06	-43139.1	1005.82	-29780.1	0.000000	0.000000	6.763049	0.059328	NaN	0.000000	0.001639	0.001746	28.0815	0.072236	0.001994	36.2345	-167.115	-164.966	0.059310	0.761279	-0.362860	-0.364167	0.059328	36.2345	-0.364088	-40821.6	-1.453337E-6	NaN
679	1.000000	0.772604	7.3717e+06	-43139.1	1005.82	-29780.1	0.000000	0.000000	6.773064	0.014810	NaN	0.000000	0.001603	0.001771	28.0818	0.084949	0.001914	44.3825	-115.094	15.5797	0.067091	0.771240	-0.352843	-0.354206	0.014810	44.3825	-0.353093	-28305.1	-5.232226E-7	NaN
679	1.000000	0.782556	7.3717e+06	-43139.1	1005.82	-29780.1	0.000000	0.000000	6.783015	0.002182	NaN	0.000000	0.001625	0.001794	28.0816	0.030501	0.002023	15.0764	158.942	-165.015	-0.021504	0.781289	-0.342891	-0.344158	0.002182	15.0764	-0.342999	-20195.1	-1.080476E-7	NaN
679	1.000000	0.792599	7.3717e+06	-43139.1	1005.82	-29780.1	0.000000	0.000000	6.793059	0.017603	NaN	0.000000	0.001633	0.001786	28.0815	0.083061	0.002004	41.4405	-153.748	20.1551	-0.032519	0.791263	-0.332848	-0.334183	0.017603	41.4405	-0.333166	-14513.9	-1.212833E-6	NaN
679	1.000000	0.802610	7.3717e+06	-43139.1	1005.82	-29780.1	0.000000	0.000000	6.803071	0.033494	NaN	0.000000	0.001627	0.001761	28.0815	0.108217	0.001870	57.8748	-150.916	-162.643	0.028739	0.801320	-0.322837	-0.324127	0.033494	57.8748	-0.323271	-10393	-3.222760E-6	NaN
679	1.000000	0.812627	7.3717e+06	-43139.1	1005.82	-29780.1	0.000000	0.000000	6.813086	-0.023931	NaN	0.000000	0.001677	0.001739	28.0817	0.016095	0.002003	8.037386	28.3086	11.8703	0.111821	0.811280	-0.312819	-0.314166	-0.023931	8.037386	-0.310586	-6756.63	3.541913E-6	NaN
679	1.000000	0.822608	7.3717e+06	-43139.1	1005.82	-29780.1	0.000000	0.000000	6.823067	-0.020220	NaN	0.000000	0.001673	0.001726	28.0815	0.050099	0.001916	26.15	-74.6741	-169.161	0.061172	0.821275	-0.302839	-0.304171	-0.020220	26.15	-0.302259	-5084.4	3.976782E-6	NaN
679	1.000000	0.832630	7.3717e+06	-43139.1	1005.82	-29780.1	0.000000	0.000000	6.833089	-0.016500	NaN	0.000000	0.001674	0.001760	28.0816	0.081340	0.002088	38.9485	-43.2717	17.1141	0.061938	0.831309	-0.292817	-0.294137	-0.016500	38.9485	-0.292499	-3636.75	4.537067E-6	NaN
679	1.000000	0.842637	7.3717e+06	-43139.1	1005.82	-29780.1	0.000000	0.000000	6.843098	0.031585	NaN	0.000000	0.001644	0.001766	28.0815	0.104627	0.001919	54.5151	-60.9816	-162.525	0.099660	0.841303	-0.282810	-0.284144	0.031585	54.5151	-0.283244	-2641.54	-1.195713E-5	NaN
679	1.000000	0.852613	7.3717e+06	-43139.1	1005.82	-29780.1	0.000000	0.000000	6.853072	-0.002383	NaN	0.000000	0.001634	0.001766	28.0805	0.139669	0.001979	70.576	-27.3773	12.9759	0.029939	0.851277	-0.272834	-0.274170	-0.002383	70.576	-0.272809	-1837.34	1.296718E-6	NaN
679	1.000000	0.862613	7.3717e+06	-43139.1	1005.82	-29780.1	0.000000	0.000000	6.863072	-0.024125	NaN	0.000000	0.001648	0.001757	28.0804	0.059980	0.002147	27.938	-95.2663	-164.562	0.037777	0.861309	-0.262833	-0.264137	-0.024125	27.938	-0.262186	-1265.86	1.905785E-5	NaN
679	1.000000	0.872646	7.3717e+06	-43139.1	1005.82	-29780.1	0.000000	0.000000	6.873105	0.003359	NaN	0.000000	0.001654	0.001740	28.0804	0.047513	0.001964	24.197	-60.4283	16.3608	0.018243	0.871272	-0.252801	-0.254174	0.003359	24.197	-0.252905	-911.663	-3.684998E-6	NaN
679	1.000000	0.882655	7.3717e+06	-43139.1	1005.82	-29780.1	0.000000	0.000000	6.883115	-0.007830	NaN	0.000000	0.001620	0.001777	28.0806	0.066098	0.001944	33.9927	-41.5634	-163.54	0.002511	0.881379	-0.242791	-0.244068	-0.007830	33.9927	-0.242619	-631.537	1.239900E-5	NaN
679	1.000000	0.892615	7.3717e+06	-43139.1	1005.82	-29780.1	0.000000	0.000000	6.893075	0.017783	NaN	0.000000	0.001656	0.001786	28.0805	0.043463	0.002077	20.9215	-2.007233	16.5872	0.005783	0.891304	-0.232832	-0.234143	0.017783	20.9215	-0.233469	-454.143	-3.915755E-5	NaN
679	1.000000	0.902660	7.3717e+06	-43139.1	1005.82	-29780.1	0.000000	0.000000	6.903119	-0.008769	NaN	0.000000	0.001609	0.001732	28.0801	0.105094	0.001943	54.0866	-149.673	-165.097	-0.033416	0.901281	-0.222787	-0.224166	-0.008769	54.0866	-0.222665	-306.333	2.862733E-5	NaN
679	1.000000	0.912643	7.3717e+06	-43139.1	1005.82	-29780.1	0.000000	0.000000	6.913106	0.072445	NaN	0.000000	0.001607	0.001780	28.0806	0.067204	0.002061	32.6121	56.6494	12.4921	0.045666	0.911262	-0.212803	-0.214184	0.072445	32.6121	-0.214470	-226.453	-0.000320	NaN
679	1.000000	0.922645	7.3717e+06	-43139.1	1005.82	-29780.1	0.000000	0.000000	6.923105	-0.010676	NaN	0.000000	0.001611	0.001755	28.0807	0.055875	0.001963	28.4599	-73.9698	-164.157	-0.027495	0.921337	-0.202801	-0.204110	-0.010676	28.4599	-0.202520	-144.887	7.368515E-5	NaN
679	1.000000	0.932680	7.3717e+06	-43139.1	1005.82	-29780.1	0.000000	0.000000	6.933141	0.014084	NaN	0.000000	0.001596	0.001741	28.0805	0.085517	0.001965	43.516	-34.0295	12.7674	0.054837	0.931310	-0.192766	-0.194136	0.014084	43.516	-0.193009	-100.963	-0.000139	NaN
679	1.000000	0.942661	7.3717e+06	-43139.1	1005.82	-29780.1	0.000000	0.000000	6.943121	-0.004920	NaN	0.000000	0.001724	0.001748	28.0806	0.064822	0.002020	32.092	-79.156	-167.103	0.012966	0.941350	-0.182785	-0.184097	-0.004920	32.092	-0.182671	-67.7308	7.263445E-5	NaN
679	1.000000	0.952658	7.3717e+06	-43139.1	1005.82	-29780.1	0.000000	0.000000	6.953116	-0.037828	NaN	0.000000	0.001712	0.001756	28.0807	0.164557	0.001970	83.526	-55.4458	16.6896	-0.011608	0.951296	-0.172789	-0.174150	-0.037828	83.526	-0.172449	-45.2927	0.000835	NaN
679	1.000000	0.962674	7.3717e+06	-43139.1	1005.82	-29780.1	0.000000	0.000000	6.963134	0.010556	NaN	0.000000	0.001681	0.001787	28.0808	0.069927	0.001986	35.207	-61.1594	-165.427	0.024485	0.961386	-0.162773	-0.164061	0.010556	35.207	-0.162998	-30.9785	-0.000341	NaN
679	1.000000	0.972670	7.3717e+06	-43139.1	1005.82	-29780.1	0.000000	0.000000	6.973131	0.042386	NaN	0.000000	0.001711	0.001735	28.0806	0.066419	0.002010	33.0464	-101.992	11.7213	-0.014815	0.971325	-0.152777	-0.154121	0.042386	33.0464	-0.153739	-21.176	-0.002002	NaN
679	1.000000	0.982664	7.3717e+06	-43139.1	1005.82	-29780.1	0.000000	0.000000	6.983123	0.002958	NaN	0.000000	0.001721	0.001707	28.0819	0.085099	0.002008	42.3786	-151.95	-161.952	-0.060768	0.981358	-0.142783	-0.144088	0.002958	42.3786	-0.142835	-13.3656	-0.000221	NaN
679	1.000000	0.992693	7.3717e+06	-43139.1	1005.82	-29780.1	0.000000	0.000000	6.993153	0.029049	NaN	0.000000	0.001721	0.001772	28.0818	0.065654	0.002084	31.5031	152.264	14.0685	0.052958	0.991323	-0.132754	-0.134123	0.029049	31.5031	-0.133446	-8.882491	-0.003270	NaN
679	1.000000	1.002677	7.3717e+06	-43139.1	1005.82	-29780.1	0.000000	0.000000	7.003138	0.033855	NaN	0.000000	0.001698	0.001745	28.0821	0.063294	0.002040	31.0329	44.4055	-163.887	0.008892	1.001437	-0.122770	-0.124010	0.033855	31.0329	-0.123588	-5.701420	-0.005938	NaN
679	1.000000	1.012689	7.3717e+06	-43139.1	1005.82	-29780.1	0.000000	0.000000	7.013147	-0.023512	NaN	0.000000	0.001663	0.001770	28.0818	0.059549	0.002007	29.6695	28.8348	14.7744	0.065134	1.011317	-0.112758	-0.114130	-0.023512	29.6695	-0.112164	-3.336322	0.007047	NaN
679	1.000000	1.022692	7.3717e+06	-43139.1	1005.82	-29780.1	0.000000	0.000000	7.023153	0.027050	NaN	0.000000	0.001725	0.001721	28.0818	0.074935	0.001879	39.8841	-95.2872	-164.8	0.036531	1.021402	-0.102754	-0.104044	0.027050	39.8841	-0.103263	-2.155193	-0.012551	NaN
679	1.000000	1.032692	7.3717e+06	-43139.1	1005.82	-29780.1	0.000000	0.000000	7.033150	-0.043946	NaN	0.000000	0.001701	0.001730	28.082	0.064087	0.002036	31.4694	-138.559	11.1297	0.012189	1.031298	-0.092755	-0.094148	-0.043946	31.4694	-0.091707	-1.184868	0.037089	NaN
679	1.000000	1.042723	7.3717e+06	-43139.1	1005.82	-29780.1	0.000000	0.000000	7.043181	-0.023543	NaN	0.000000	0.001701	0.001730	28.0828	0.040932	0.002027	20.1957	-72.2844	-164.87	0.054492	1.041345	-0.082724	-0.084101	-0.023543	20.1957	-0.081850	-0.688099	0.034215	NaN
679	1.000000	1.052679	7.3717e+06	-43139.1	1005.82	-29780.1	0.000000	0.000000	7.053139	0.010878	NaN	0.000000	0.001719	0.001726	28.0817	0.044563	0.002093	21.2945	-6.094961	14.4656	-0.059426	1.051367	-0.072767	-0.074079	0.010878	21.2945	-0.073150	-0.413393	-0.026314	NaN
679	1.000000	1.062716	7.3717e+06	-43139.1	1005.82	-29780.1	0.000000	0.000000	7.063175	-0.023428	NaN	0.000000	0.001725	0.001692	28.0817	0.018937	0.002038	9.292664	-99.5128	-165.083	0.015140	1.061407	-0.062731	-0.064040	-0.023428	9.292664	-0.060840	-0.190338	0.123085	NaN
679	1.000000	1.072733	7.3717e+06	-43139.1	1005.82	-29780.1	0.000000	0.000000	7.073194	0.046263	NaN	0.000000	0.001700	0.001649	28.0819	0.026004	0.002038	12.7612	-134.244	11.4751	0.094975	1.071349	-0.052714	-0.054097	0.046263	12.7612	-0.055433	-0.132621	-0.348833	NaN
679	1.000000	1.082742	7.3717e+06	-43139.1	1005.82	-29780.1	0.000000	0.000000	7.083204	0.054806	NaN	0.000000	0.001720	0.001653	28.0815	0.019562	0.001921	10.1828	-105.611	-166.913	0.142456	1.081425	-0.042705	-0.044022	0.054806	10.1828	-0.046741	-0.072643	-0.754453	NaN
679	1.000000	1.092725	7.3717e+06	-43139.1	1005.82	-29780.1	0.000000	0.000000	7.093183	-0.038985	NaN	0.000000	0.001733	0.001630	28.0816	0.124652	0.001997	62.4174	-94.7137	15.4323	-0.013708	1.091373	-0.032721	-0.034073	-0.038985	62.4174	-0.032253	-0.026646	1.463048	NaN
679	1.000000	1.102728	7.3717e+06	-43139.1	1005.82	-29780.1	0.000000	0.000000	7.103187	-0.016820	NaN	0.000000	0.001697	0.001643	28.0817	0.152893	0.001834	83.3801	92.4486	-166.254	-0.087225	1.101368	-0.022719	-0.024079	-0.016820	83.3801	-0.022568	-0.014600	1.152072	NaN
679	1.000000	1.112746	7.3717e+06	-43139.1	1005.82	-29780.1	0.000000	0.000000	7.113206	0.010757	NaN	0.000000	0.001743	0.001655	28.0816	0.066424	0.001954	33.9941	69.6125	15.7569	-0.086939	1.111357	-0.012701	-0.014090	0.010757	33.9941	-0.012938	-0.008067	-1.333487	NaN
679	1.000000	1.122739	7.3717e+06	-43139.1	1005.82	-29780.1	0.000000	0.000000	7.123261	1.520143	NaN	0.000000	0.001707	0.001628	28.0805	2.337862	0.001965	1189.9	13.7947	-165.81	0.627925	1.121455	-0.002708	-0.003992	1.520143	1189.9	-0.003666	-0.002561	-593.473	NaN
679	2.000000	1.130810	7.3717e+06	-43139.1	1005.82	-29780.1	0.000000	0.000000	7.131780	12.421	NaN	0.000000	0.001710	0.001660	28.0806	10.1297	0.001669	6069.78	4.017170	10.0799	11.3459	1.130397	0.005364	0.004951	12.421	6069.78	0.003829	0.003090	4020.31	99769.5
679	2.000000	1.133283	7.3717e+06	-43139.1	1005.82	-29780.1	0.000000	0.000000	7.134361	15.0341	NaN	0.000000	0.001727	0.001622	28.0806	12.6485	0.001693	7472.73	12.2379	-179.499	14.9439	1.132894	0.007836	0.007447	15.0341	7472.73	0.006327	0.005378	2795.6	93100.6
679	2.000000	1.135708	7.3717e+06	-43139.1	1005.82	-29780.1	0.000000	0.000000	7.136942	18.8428	NaN	0.000000	0.001736	0.001628	28.0805	15.3896	0.001625	9471.67	7.319953	2.676174	17.9848	1.135455	0.010262	0.010009	18.8428	9471.67	0.008770	0.007846	2401.6	97696
679	2.000000	1.138220	7.3717e+06	-43139.1	1005.82	-29780.1	0.000000	0.000000	7.139578	21.866	NaN	0.000000	0.001707	0.001623	28.0805	18.5819	0.001848	10057.4	7.233306	-177.498	20.7161	1.137944	0.012773	0.012498	21.866	10057.4	0.011143	0.010479	2086.63	89762.4
679	2.000000	1.140683	7.3717e+06	-43139.1	1005.82	-29780.1	0.000000	0.000000	7.142274	27.508	NaN	0.000000	0.001661	0.001605	28.0806	20.2296	0.001694	11940	2.970564	5.381640	24.8657	1.140388	0.015237	0.014941	27.508	11940	0.013509	0.013348	2060.79	94420.3
679	2.000000	1.143159	7.3717e+06	-43139.1	1005.82	-29780.1	0.000000	0.000000	7.145072	35.3533	NaN	0.000000	0.001682	0.001641	28.0803	22.6943	0.001762	12880.7	2.134420	-175.207	32.8259	1.142839	0.017713	0.017392	35.3533	12880.7	0.015654	0.016168	2186.65	92552.1
679	2.000000	1.145696	7.3717e+06	-43139.1	1005.82	-29780.1	0.000000	0.000000	7.147917	42.8597	NaN	0.000000	0.001647	0.001657	28.0805	24.1099	0.001738	13869.6	1.982680	5.901696	41.5041	1.145387	0.020249	0.019940	42.8597	13869.6	0.017932	0.019396	2209.73	90987.6
679	2.000000	1.148129	7.3717e+06	-43139.1	1005.82	-29780.1	0.000000	0.000000	7.150593	48.78	NaN	0.000000	0.001662	0.001606	28.0805	27.4553	0.001815	15125.5	6.316516	-179.349	46.7781	1.147882	0.022682	0.022436	48.78	15125.5	0.020264	0.022958	2124.74	91204.5
679	2.000000	1.150682	7.3717e+06	-43139.1	1005.82	-29780.1	0.000000	0.000000	7.153482	56.9399	NaN	0.000000	0.001651	0.001658	28.0804	29.492	0.001713	17215.7	4.710296	0.922787	55.3744	1.150302	0.025236	0.024856	56.9399	17215.7	0.022755	0.027058	2104.39	95620.8
679	2.000000	1.153178	7.3717e+06	-43139.1	1005.82	-29780.1	0.000000	0.000000	7.156360	66.2294	NaN	0.000000	0.001651	0.001631	28.0809	31.6977	0.001751	18106.4	3.108298	-177.968	64.7504	1.152891	0.027731	0.027444	66.2294	18106.4	0.024988	0.030994	2136.86	93965.1
679	2.000000	1.155647	7.3717e+06	-43139.1	1005.82	-29780.1	0.000000	0.000000	7.159114	73.1832	NaN	0.000000	0.001667	0.001634	28.0805	34.3134	0.001672	20521.6	4.792768	-1.042561	71.1919	1.155335	0.030200	0.029888	73.1832	20521.6	0.027525	0.035771	2045.9	99133.7
679	2.000000	1.158176	7.3717e+06	-43139.1	1005.82	-29780.1	0.000000	0.000000	7.161916	79.797	NaN	0.000000	0.001669	0.001666	28.0805	38.1225	0.001952	19531.8	9.447629	176.04	80.3754	1.157853	0.032730	0.032406	79.797	19531.8	0.029666	0.040054	1992.26	89165.3
679	2.000000	1.160655	7.3717e+06	-43139.1	1005.82	-29780.1	0.000000	0.000000	7.164805	89.7696	NaN	0.000000	0.001655	0.001634	28.0807	38.9975	0.001850	21081.8	1.090997	3.372100	86.9077	1.160346	0.035209	0.034899	89.7696	21081.8	0.032015	0.045024	1993.82	90773.5
679	2.000000	1.163103	7.3717e+06	-43139.1	1005.82	-29780.1	0.000000	0.000000	7.167642	99.2341	NaN	0.000000	0.001619	0.001653	28.082	41.4945	0.001834	22625.8	5.236633	178.154	96.2982	1.162820	0.037657	0.037373	99.2341	22625.8	0.034367	0.050283	1973.51	92186.2
679	2.000000	1.165744	7.3717e+06	-43139.1	1005.82	-29780.1	0.000000	0.000000	7.170528	105.206	NaN	0.000000	0.001617	0.001630	28.0815	44.3991	0.001818	24419.1	4.454296	-1.864561	107.425	1.165326	0.040297	0.039879	105.206	24419.1	0.037066	0.056666	1856.59	93721.7
679	2.000000	1.168184	7.3717e+06	-43139.1	1005.82	-29780.1	0.000000	0.000000	7.173482	117.725	NaN	0.000000	0.001643	0.001651	28.0819	47.6563	0.001929	24711.1	7.379203	175.834	118.401	1.167718	0.042737	0.042272	117.725	24711.1	0.039164	0.061885	1902.3	90755.1
679	2.000000	1.170653	7.3717e+06	-43139.1	1005.82	-29780.1	0.000000	0.000000	7.176525	131.695	NaN	0.000000	0.001624	0.001702	28.0818	48.5146	0.001818	26692.7	3.832039	-1.948800	129.26	1.170300	0.045206	0.044854	131.695	26692.7	0.041506	0.067978	1937.31	93536.3
679	2.000000	1.173107	7.3717e+06	-43139.1	1005.82	-29780.1	0.000000	0.000000	7.179551	145.612	NaN	0.000000	0.001615	0.001658	28.0818	49.994	0.001642	30446.9	4.525945	175.794	142.483	1.172862	0.047660	0.047415	145.612	30446.9	0.044073	0.074978	1942.06	101590
679	2.000000	1.175622	7.3717e+06	-43139.1	1005.82	-29780.1	0.000000	0.000000	7.182370	152.992	NaN	0.000000	0.001591	0.001642	28.0817	51.8262	0.001720	30132.1	-0.104404	1.491777	150.974	1.175286	0.050176	0.049839	152.992	30132.1	0.046368	0.081517	1876.81	96422.6
679	2.000000	1.178151	7.3717e+06	-43139.1	1005.82	-29780.1	0.000000	0.000000	7.185340	163.722	NaN	0.000000	0.001597	0.001637	28.0818	57.334	0.001909	30037.4	6.971643	173.649	163.387	1.177847	0.052705	0.052400	163.722	30037.4	0.048617	0.088185	1856.57	92414.1
679	2.000000	1.180594	7.3717e+06	-43139.1	1005.82	-29780.1	0.000000	0.000000	7.188395	178.611	NaN	0.000000	0.001618	0.001680	28.0818	58.2514	0.001819	32022.5	4.354669	-3.913722	173.635	1.180181	0.055148	0.054734	178.611	32022.5	0.050965	0.095418	1871.88	94713.8
679	2.000000	1.183097	7.3717e+06	-43139.1	1005.82	-29780.1	0.000000	0.000000	7.191159	184.973	NaN	0.000000	0.001622	0.001669	28.0818	60.0918	0.001893	31738.1	1.754522	179.047	182.614	1.182893	0.057651	0.057446	184.973	31738.1	0.053280	0.102819	1799.02	90431
679	2.000000	1.185628	7.3717e+06	-43139.1	1005.82	-29780.1	0.000000	0.000000	7.194588	206.822	NaN	0.000000	0.001619	0.001649	28.0817	62.8738	0.001759	35751.5	5.669126	-6.403598	205.839	1.185277	0.060181	0.059830	206.822	35751.5	0.055842	0.111323	1857.86	97898.3
679	2.000000	1.188123	7.3717e+06	-43139.1	1005.82	-29780.1	0.000000	0.000000	7.197260	211.111	NaN	0.000000	0.001611	0.001643	28.0819	65.4257	0.001819	35977.3	0.730768	178.77	209.91	1.187935	0.062677	0.062488	211.111	35977.3	0.058276	0.119698	1763.69	95007.6
679	2.000000	1.190601	7.3717e+06	-43139.1	1005.82	-29780.1	0.000000	0.000000	7.200613	232.411	NaN	0.000000	0.001636	0.001691	28.0821	67.6489	0.001857	36421	5.154169	-5.377719	227.683	1.190223	0.065154	0.064777	232.411	36421	0.060368	0.127132	1828.11	93325
679	2.000000	1.193042	7.3717e+06	-43139.1	1005.82	-29780.1	0.000000	0.000000	7.203684	247.739	NaN	0.000000	0.001673	0.001672	28.0819	68.9747	0.001699	40587	3.463400	175.057	242.569	1.192812	0.067596	0.067366	247.739	40587	0.063018	0.136851	1810.29	100239
679	2.000000	1.195637	7.3717e+06	-43139.1	1005.82	-29780.1	0.000000	0.000000	7.206749	259.169	NaN	0.000000	0.001648	0.001634	28.0806	71.5919	0.001730	41375.3	1.971437	-3.294904	258.143	1.195285	0.070191	0.069839	259.169	41375.3	0.065493	0.146239	1772.23	98851.5
679	2.000000	1.198116	7.3717e+06	-43139.1	1005.82	-29780.1	0.000000	0.000000	7.209808	273.284	NaN	0.000000	0.001631	0.001672	28.0809	74.4203	0.001849	40239.4	2.372723	176.309	272.525	1.197946	0.072670	0.072499	273.284	40239.4	0.067576	0.154368	1770.34	93572
679	2.000000	1.200655	7.3717e+06	-43139.1	1005.82	-29780.1	0.000000	0.000000	7.213323	297.011	NaN	0.000000	0.001571	0.001685	28.0808	76.1515	0.001735	43889.4	3.479254	-5.052925	296.426	1.200278	0.075209	0.074832	297.011	43889.4	0.070133	0.164631	1804.11	98827.4
679	2.000000	1.203082	7.3717e+06	-43139.1	1005.82	-29780.1	0.000000	0.000000	7.216505	315.378	NaN	0.000000	0.001634	0.001679	28.0807	76.874	0.001788	43002.6	-1.584983	-179.716	313.754	1.202753	0.077636	0.077306	315.378	43002.6	0.072135	0.172883	1824.23	94491.4
679	2.000000	1.205537	7.3717e+06	-43139.1	1005.82	-29780.1	0.000000	0.000000	7.219699	333.375	NaN	0.000000	0.001650	0.001675	28.0806	80.3067	0.001822	44087.9	5.020908	-6.150643	327.749	1.205140	0.080090	0.079693	333.375	44087.9	0.074419	0.182527	1826.44	94282
679	2.000000	1.208106	7.3717e+06	-43139.1	1005.82	-29780.1	0.000000	0.000000	7.222835	347.173	NaN	0.000000	0.001692	0.001639	28.0806	83.3587	0.001762	47307.7	4.750200	173.536	347.607	1.207762	0.082659	0.082315	347.173	47307.7	0.077155	0.194406	1785.82	98028.1
679	2.000000	1.210570	7.3717e+06	-43139.1	1005.82	-29780.1	0.000000	0.000000	7.226129	367.379	NaN	0.000000	0.001678	0.001645	28.0806	85.305	0.001805	47251.9	7.891890	-10.0201	363.61	1.210236	0.085123	0.084789	367.379	47251.9	0.079292	0.203928	1801.51	95599.2
679	2.000000	1.213126	7.3717e+06	-43139.1	1005.82	-29780.1	0.000000	0.000000	7.229320	382.83	NaN	0.000000	0.001639	0.001671	28.0803	85.8337	0.001723	49813.1	2.046365	175.399	385.494	1.212843	0.087679	0.087396	382.83	49813.1	0.081915	0.215906	1773.13	97945.5
679	2.000000	1.215598	7.3717e+06	-43139.1	1005.82	-29780.1	0.000000	0.000000	7.232611	402.745	NaN	0.000000	0.001641	0.001676	28.0805	88.9085	0.001727	51480.9	2.372496	-4.928678	400.065	1.215266	0.090151	0.089820	402.745	51480.9	0.084284	0.226997	1774.23	98721
679	2.000000	1.218088	7.3717e+06	-43139.1	1005.82	-29780.1	0.000000	0.000000	7.235675	416.699	NaN	0.000000	0.001654	0.001669	28.0805	91.453	0.001692	54046.8	-0.948629	177.671	414.704	1.217881	0.092642	0.092435	416.699	54046.8	0.086859	0.239350	1740.96	100931
679	2.000000	1.220571	7.3717e+06	-43139.1	1005.82	-29780.1	0.000000	0.000000	7.239213	442.382	NaN	0.000000	0.001719	0.001661	28.0806	93.4437	0.001748	53465.3	2.618606	-5.810465	438.104	1.220294	0.095124	0.094847	442.382	53465.3	0.088919	0.249449	1773.43	97803.5
679	2.000000	1.223019	7.3717e+06	-43139.1	1005.82	-29780.1	0.000000	0.000000	7.242525	463.393	NaN	0.000000	0.001721	0.001688	28.0804	95.9431	0.001834	52321.4	1.862594	175.331	461.378	1.222864	0.097572	0.097418	463.393	52321.4	0.090930	0.259499	1785.72	93839.2
679	2.000000	1.225588	7.3717e+06	-43139.1	1005.82	-29780.1	0.000000	0.000000	7.245600	475.726	NaN	0.000000	0.001665	0.001674	28.0808	97.7841	0.001703	57431.8	0.887595	-4.523476	473.12	1.225239	0.100141	0.099793	475.726	57431.8	0.093929	0.274828	1731	100091
679	2.000000	1.228109	7.3717e+06	-43139.1	1005.82	-29780.1	0.000000	0.000000	7.249261	503.44	NaN	0.000000	0.001651	0.001685	28.0803	102.239	0.001758	58170.8	4.248447	172.19	505.161	1.227797	0.102662	0.102350	503.44	58170.8	0.096172	0.286562	1756.83	99281.6
679	2.000000	1.228497	7.3717e+06	-43139.1	1005.82	-29780.1	0.000000	0.000000	7.249981	511.535	NaN	0.000000	0.001656	0.001688	28.0805	102.548	0.001813	56548.8	6.832861	-10.1189	503.447	1.228205	0.103050	0.102758	511.535	56548.8	0.096266	0.287059	1781.99	96429.8