File: remote_trans/data/nanoindenter/0828-1/data/Data_2025-08-06,11h17m57s/2025-07-22_16-23-58_1_1014.txt
2025-07-22, 16:23:58, 1
Index	Phase	Displacement	Time	Pos X	Pos Y	Pos Z	Rot A	Rot B	Piezo Z	Force A	Force B	Gripper	Voltage A	Voltage B	Temperature	Amplitude force	Amplitude pos	Stiffness	Phase shift	Phase excitation	Force A raw	Displacement raw	HMax	HMax raw	Real Force	Real Stiffness	Contact Depth	Area	Hardness	Reduced Mod.
[#]	[#]	[um]	[s]	[um]	[um]	[um]	[m°]	[m°]	[um]	[uN]	[uN]	[V]	[V]	[V]	[°C]	[uN]	[um]	[N/m]	[°]	[°]	[uN]	[um]	[um]	[um]	[uN]	[N/m]	[um]	[um^2]	[MPa]	[MPa]
1014	1.000000	0.003123	7.37497e+06	-50839.1	1055.82	-29754.3	0.000000	0.000000	6.002783	0.064817	NaN	0.000000	0.001547	0.001721	28.0829	0.046529	0.000975	47.699	-152.23	-161.854	-0.002280	0.001939	-1.123311	-1.124495	0.064817	47.699	-1.124330	-1.063090E+15	-6.097078E-17	NaN
1014	1.000000	0.013188	7.37497e+06	-50839.1	1055.82	-29754.3	0.000000	0.000000	6.012845	0.006995	NaN	0.000000	0.001539	0.001763	28.0826	0.082534	0.001242	66.4372	-54.3125	13.1894	-0.029480	0.011751	-1.113246	-1.114684	0.006995	66.4372	-1.113325	-7.566774E+14	-9.244562E-18	NaN
1014	1.000000	0.023072	7.37497e+06	-50839.1	1055.82	-29754.3	0.000000	0.000000	6.022732	0.077965	NaN	0.000000	0.001575	0.001753	28.0826	0.097102	0.001666	58.2677	5.246436	-170.32	-0.012113	0.021800	-1.103363	-1.104635	0.077965	58.2677	-1.104366	-5.736851E+14	-1.359029E-16	NaN
1014	1.000000	0.033088	7.37497e+06	-50839.1	1055.82	-29754.3	0.000000	0.000000	6.032747	0.044634	NaN	0.000000	0.001554	0.001751	28.0823	0.077945	0.001918	40.6352	-1.289385	12.9845	-0.048864	0.031740	-1.093347	-1.094695	0.044634	40.6352	-1.094170	-4.186078E+14	-1.066254E-16	NaN
1014	1.000000	0.043084	7.37497e+06	-50839.1	1055.82	-29754.3	0.000000	0.000000	6.042743	0.042419	NaN	0.000000	0.001581	0.001706	28.0826	0.053472	0.001864	28.6845	-18.5355	-164.301	0.019765	0.041812	-1.083350	-1.084623	0.042419	28.6845	-1.084460	-3.100366E+14	-1.368198E-16	NaN
1014	1.000000	0.053113	7.37497e+06	-50839.1	1055.82	-29754.3	0.000000	0.000000	6.052770	0.020601	NaN	0.000000	0.001601	0.001685	28.0822	0.093876	0.002011	46.6824	-166.29	11.1092	0.075363	0.051741	-1.073322	-1.074693	0.020601	46.6824	-1.073653	-2.219543E+14	-9.281578E-17	NaN
1014	1.000000	0.063110	7.37497e+06	-50839.1	1055.82	-29754.3	0.000000	0.000000	6.062767	-0.006603	NaN	0.000000	0.001607	0.001713	28.0824	0.050934	0.001956	26.042	104.002	-163.112	0.068231	0.061782	-1.063325	-1.064652	-0.006603	26.042	-1.063134	-1.603027E+14	4.119001E-17	NaN
1014	1.000000	0.073114	7.37497e+06	-50839.1	1055.82	-29754.3	0.000000	0.000000	6.072771	0.009121	NaN	0.000000	0.001565	0.001677	28.0824	0.044019	0.002057	21.3946	-117.802	14.6024	0.073565	0.071719	-1.053321	-1.054716	0.009121	21.3946	-1.053640	-1.194948E+14	-7.633376E-17	NaN
1014	1.000000	0.083105	7.37497e+06	-50839.1	1055.82	-29754.3	0.000000	0.000000	6.082761	-0.006145	NaN	0.000000	0.001558	0.001717	28.0814	0.025755	0.001907	13.5019	-149.571	-167.684	0.063189	0.081800	-1.043330	-1.044635	-0.006145	13.5019	-1.042988	-8.593079E+13	7.150984E-17	NaN
1014	1.000000	0.093123	7.37497e+06	-50839.1	1055.82	-29754.3	0.000000	0.000000	6.092783	0.092251	NaN	0.000000	0.001565	0.001688	28.0811	0.047256	0.001979	23.8739	-52.8928	11.3068	0.063991	0.091764	-1.033312	-1.034670	0.092251	23.8739	-1.036210	-6.966309E+13	-1.324244E-15	NaN
1014	1.000000	0.103133	7.37497e+06	-50839.1	1055.82	-29754.3	0.000000	0.000000	6.102791	0.027459	NaN	0.000000	0.001538	0.001727	28.0812	0.077415	0.002137	36.2278	167.49	-164.451	0.001271	0.101798	-1.023302	-1.024637	0.027459	36.2278	-1.023870	-4.753591E+13	-5.776458E-16	NaN
1014	1.000000	0.113104	7.37497e+06	-50839.1	1055.82	-29754.3	0.000000	0.000000	6.112761	0.007016	NaN	0.000000	0.001570	0.001709	28.0812	0.082588	0.001920	43.0244	150.642	11.2951	0.021082	0.111761	-1.013331	-1.014673	0.007016	43.0244	-1.013453	-3.442382E+13	-2.037992E-16	NaN
1014	1.000000	0.123114	7.37497e+06	-50839.1	1055.82	-29754.3	0.000000	0.000000	6.122772	0.032406	NaN	0.000000	0.001533	0.001742	28.0811	0.071702	0.002011	35.658	34.3164	-165.465	-0.002328	0.121849	-1.003320	-1.004586	0.032406	35.658	-1.004002	-2.568297E+13	-1.261751E-15	NaN
1014	1.000000	0.133115	7.37497e+06	-50839.1	1055.82	-29754.3	0.000000	0.000000	6.132775	0.081049	NaN	0.000000	0.001526	0.001722	28.081	0.081442	0.002027	40.1816	-3.350003	9.216108	0.086248	0.131785	-0.993320	-0.994650	0.081049	40.1816	-0.994832	-1.932807E+13	-4.193325E-15	NaN
1014	1.000000	0.143091	7.37497e+06	-50839.1	1055.82	-29754.3	0.000000	0.000000	6.142753	0.134361	NaN	0.000000	0.001542	0.001723	28.081	0.080392	0.001996	40.2775	90.165	-165.958	0.127945	0.141869	-0.983344	-0.984566	0.134361	40.2775	-0.985846	-1.462716E+13	-9.185698E-15	NaN
1014	1.000000	0.153141	7.37497e+06	-50839.1	1055.82	-29754.3	0.000000	0.000000	6.152803	0.124313	NaN	0.000000	0.001520	0.001717	28.0813	0.034190	0.002008	17.0248	-9.307230	11.8724	0.048529	0.151760	-0.973294	-0.974675	0.124313	17.0248	-0.978770	-1.174460E+13	-1.058469E-14	NaN
1014	1.000000	0.163117	7.37497e+06	-50839.1	1055.82	-29754.3	0.000000	0.000000	6.162775	0.042270	NaN	0.000000	0.001515	0.001714	28.0811	0.061930	0.001984	31.2155	-62.8928	-167.34	-0.020507	0.161835	-0.963318	-0.964600	0.042270	31.2155	-0.964334	-7.503938E+12	-5.633078E-15	NaN
1014	1.000000	0.173148	7.37497e+06	-50839.1	1055.82	-29754.3	0.000000	0.000000	6.172807	0.049837	NaN	0.000000	0.001514	0.001689	28.0811	0.138332	0.001985	69.6908	-64.7129	11.6388	0.051973	0.171764	-0.953287	-0.954671	0.049837	69.6908	-0.953823	-5.414798E+12	-9.203925E-15	NaN
1014	1.000000	0.183109	7.37497e+06	-50839.1	1055.82	-29754.3	0.000000	0.000000	6.182767	0.034743	NaN	0.000000	0.001534	0.001703	28.0811	0.059432	0.001884	31.5494	107.582	-169.73	0.001943	0.181771	-0.943326	-0.944664	0.034743	31.5494	-0.944152	-4.010023E+12	-8.664032E-15	NaN
1014	1.000000	0.193123	7.37497e+06	-50839.1	1055.82	-29754.3	0.000000	0.000000	6.192782	0.070650	NaN	0.000000	0.001570	0.001701	28.0808	0.065520	0.002074	31.5985	-9.987014	12.6729	0.095289	0.191766	-0.933312	-0.934669	0.070650	31.5985	-0.934989	-3.016646E+12	-2.341990E-14	NaN
1014	1.000000	0.203142	7.37497e+06	-50839.1	1055.82	-29754.3	0.000000	0.000000	6.202799	0.009042	NaN	0.000000	0.001569	0.001702	28.0809	0.076507	0.001999	38.2659	-142.203	-167.19	0.058103	0.201822	-0.923293	-0.924612	0.009042	38.2659	-0.923470	-2.108912E+12	-4.287478E-15	NaN
1014	1.000000	0.213158	7.37497e+06	-50839.1	1055.82	-29754.3	0.000000	0.000000	6.212816	0.033025	NaN	0.000000	0.001552	0.001713	28.0808	0.055934	0.001998	27.9947	-56.055	12.257	-0.015154	0.211822	-0.913276	-0.914613	0.033025	27.9947	-0.914161	-1.578931E+12	-2.091588E-14	NaN
1014	1.000000	0.223189	7.37497e+06	-50839.1	1055.82	-29754.3	0.000000	0.000000	6.222845	-0.008695	NaN	0.000000	0.001539	0.001687	28.0825	0.104800	0.001977	53.0145	177.252	-167.327	0.018635	0.221922	-0.903246	-0.904513	-0.008695	53.0145	-0.903123	-1.120109E+12	7.762192E-15	NaN
1014	1.000000	0.233150	7.37497e+06	-50839.1	1055.82	-29754.3	0.000000	0.000000	6.232808	0.027240	NaN	0.000000	0.001551	0.001698	28.0823	0.089512	0.002001	44.723	-112.131	15.1519	0.043342	0.231852	-0.893285	-0.894582	0.027240	44.723	-0.893742	-8.365490E+11	-3.256288E-14	NaN
1014	1.000000	0.243164	7.37497e+06	-50839.1	1055.82	-29754.3	0.000000	0.000000	6.242821	0.007121	NaN	0.000000	0.001544	0.001683	28.0825	0.101819	0.002144	47.4825	96.7036	-165.477	0.033183	0.241877	-0.883271	-0.884558	0.007121	47.4825	-0.883383	-6.059761E+11	-1.175072E-14	NaN
1014	1.000000	0.253174	7.37497e+06	-50839.1	1055.82	-29754.3	0.000000	0.000000	6.252833	0.072972	NaN	0.000000	0.001571	0.001680	28.0828	0.071416	0.002035	35.0987	110.094	12.8938	0.040784	0.251761	-0.873261	-0.874674	0.072972	35.0987	-0.874820	-4.641438E+11	-1.572191E-13	NaN
1014	1.000000	0.263172	7.37497e+06	-50839.1	1055.82	-29754.3	0.000000	0.000000	6.262830	0.048797	NaN	0.000000	0.001550	0.001645	28.0823	0.111804	0.002107	53.0535	114.388	-165.966	0.056437	0.261846	-0.863263	-0.864589	0.048797	53.0535	-0.863953	-3.308402E+11	-1.474928E-13	NaN
1014	1.000000	0.273180	7.37497e+06	-50839.1	1055.82	-29754.3	0.000000	0.000000	6.272841	0.125484	NaN	0.000000	0.001601	0.001672	28.0824	0.030389	0.001918	15.8464	125.324	14.4819	0.097285	0.271882	-0.853255	-0.854553	0.125484	15.8464	-0.859194	-2.852419E+11	-4.399199E-13	NaN
1014	1.000000	0.283174	7.37497e+06	-50839.1	1055.82	-29754.3	0.000000	0.000000	6.282834	0.073403	NaN	0.000000	0.001591	0.001704	28.0822	0.044142	0.001999	22.0845	-9.739418	-167.345	0.039982	0.281900	-0.843260	-0.844535	0.073403	22.0845	-0.845753	-1.875959E+11	-3.912844E-13	NaN
1014	1.000000	0.293201	7.37497e+06	-50839.1	1055.82	-29754.3	0.000000	0.000000	6.292860	0.050321	NaN	0.000000	0.001592	0.001683	28.0826	0.093355	0.001904	49.0373	124.862	12.6136	0.067103	0.291795	-0.833233	-0.834640	0.050321	49.0373	-0.834003	-1.300279E+11	-3.869989E-13	NaN
1014	1.000000	0.303185	7.37497e+06	-50839.1	1055.82	-29754.3	0.000000	0.000000	6.302841	-0.006699	NaN	0.000000	0.001614	0.001677	28.0823	0.018036	0.001989	9.069155	172.27	-165.461	-0.073773	0.301864	-0.823250	-0.824570	-0.006699	9.069155	-0.822696	-9.136204E+10	7.332913E-14	NaN
1014	1.000000	0.313181	7.37497e+06	-50839.1	1055.82	-29754.3	0.000000	0.000000	6.312841	0.084867	NaN	0.000000	0.001623	0.001661	28.0826	0.050895	0.002098	24.2553	87.0425	11.3991	0.169156	0.311863	-0.813254	-0.814572	0.084867	24.2553	-0.815878	-7.384351E+10	-1.149286E-12	NaN
1014	1.000000	0.323192	7.37497e+06	-50839.1	1055.82	-29754.3	0.000000	0.000000	6.322848	-0.019015	NaN	0.000000	0.001602	0.001670	28.0825	0.034891	0.001980	17.6206	-134.603	-166.442	-0.030998	0.321857	-0.803242	-0.804578	-0.019015	17.6206	-0.802433	-4.851637E+10	3.919373E-13	NaN
1014	1.000000	0.333209	7.37497e+06	-50839.1	1055.82	-29754.3	0.000000	0.000000	6.332868	0.051252	NaN	0.000000	0.001607	0.001671	28.0824	0.066522	0.001934	34.4044	170.81	11.3835	0.065749	0.331833	-0.793225	-0.794601	0.051252	34.4044	-0.794343	-3.767534E+10	-1.360356E-12	NaN
1014	1.000000	0.343208	7.37497e+06	-50839.1	1055.82	-29754.3	0.000000	0.000000	6.342868	0.067158	NaN	0.000000	0.001638	0.001653	28.0822	0.112199	0.002026	55.3816	114.534	-166.422	0.018934	0.341875	-0.783226	-0.784560	0.067158	55.3816	-0.784136	-2.737949E+10	-2.452867E-12	NaN
1014	1.000000	0.353188	7.37497e+06	-50839.1	1055.82	-29754.3	0.000000	0.000000	6.352847	0.054668	NaN	0.000000	0.001639	0.001694	28.0819	0.097288	0.002074	46.8995	38.7838	14.8267	0.036035	0.351802	-0.773247	-0.774632	0.054668	46.8995	-0.774121	-2.001371E+10	-2.731543E-12	NaN
1014	1.000000	0.363212	7.37497e+06	-50839.1	1055.82	-29754.3	0.000000	0.000000	6.362869	0.015100	NaN	0.000000	0.001615	0.001646	28.0813	0.058685	0.001922	30.5396	-156.81	-164.608	-0.010045	0.361915	-0.763223	-0.764520	0.015100	30.5396	-0.763594	-1.439417E+10	-1.049054E-12	NaN
1014	1.000000	0.373240	7.37497e+06	-50839.1	1055.82	-29754.3	0.000000	0.000000	6.372899	0.052407	NaN	0.000000	0.001614	0.001696	28.0809	0.023838	0.002042	11.6717	-154.321	13.4936	0.047592	0.371889	-0.753195	-0.754545	0.052407	11.6717	-0.756562	-1.154858E+10	-4.537994E-12	NaN
1014	1.000000	0.383253	7.37497e+06	-50839.1	1055.82	-29754.3	0.000000	0.000000	6.382913	0.100280	NaN	0.000000	0.001575	0.001672	28.081	0.068616	0.002043	33.5842	-178.359	-166.689	0.053537	0.381924	-0.743182	-0.744511	0.100280	33.5842	-0.745421	-8.144919E+9	-1.231198E-11	NaN
1014	1.000000	0.393246	7.37497e+06	-50839.1	1055.82	-29754.3	0.000000	0.000000	6.392904	0.034651	NaN	0.000000	0.001613	0.001658	28.0812	0.161564	0.001945	83.0788	-138.675	9.036283	0.071510	0.391836	-0.733189	-0.734599	0.034651	83.0788	-0.733501	-5.604316E+9	-6.182998E-12	NaN
1014	1.000000	0.403251	7.37497e+06	-50839.1	1055.82	-29754.3	0.000000	0.000000	6.402909	0.040756	NaN	0.000000	0.001634	0.001659	28.0811	0.084842	0.001909	44.4496	-174.329	-166.912	0.026589	0.401957	-0.723184	-0.724477	0.040756	44.4496	-0.723871	-4.142526E+9	-9.838408E-12	NaN
1014	1.000000	0.413250	7.37497e+06	-50839.1	1055.82	-29754.3	0.000000	0.000000	6.412908	0.030345	NaN	0.000000	0.001649	0.001675	28.0811	0.037397	0.001969	18.9925	-90.4815	12.6383	-0.014165	0.411811	-0.713185	-0.714623	0.030345	18.9925	-0.714383	-3.075083E+9	-9.868004E-12	NaN
1014	1.000000	0.423248	7.37497e+06	-50839.1	1055.82	-29754.3	0.000000	0.000000	6.422907	0.065134	NaN	0.000000	0.001666	0.001671	28.0809	0.038358	0.001951	19.6648	-48.9916	-167.02	0.046404	0.421975	-0.703187	-0.704459	0.065134	19.6648	-0.705671	-2.338617E+9	-2.785165E-11	NaN
1014	1.000000	0.433247	7.37497e+06	-50839.1	1055.82	-29754.3	0.000000	0.000000	6.432910	0.150406	NaN	0.000000	0.001662	0.001660	28.0811	0.109056	0.001901	57.3534	131.592	14.1547	0.099507	0.431914	-0.693187	-0.694521	0.150406	57.3534	-0.695154	-1.680134E+9	-8.951996E-11	NaN
1014	1.000000	0.443245	7.37497e+06	-50839.1	1055.82	-29754.3	0.000000	0.000000	6.442902	0.015093	NaN	0.000000	0.001646	0.001651	28.0806	0.076688	0.001958	39.1686	-172.315	-165.244	0.086813	0.441953	-0.683190	-0.684482	0.015093	39.1686	-0.683479	-1.163527E+9	-1.297216E-11	NaN
1014	1.000000	0.453255	7.37497e+06	-50839.1	1055.82	-29754.3	0.000000	0.000000	6.452913	0.032403	NaN	0.000000	0.001653	0.001657	28.0811	0.011213	0.002013	5.571162	149.248	15.7628	0.040291	0.451864	-0.673180	-0.674570	0.032403	5.571162	-0.677542	-9.651225E+8	-3.357363E-11	NaN
1014	1.000000	0.463287	7.37497e+06	-50839.1	1055.82	-29754.3	0.000000	0.000000	6.462943	-0.033310	NaN	0.000000	0.001623	0.001666	28.0808	0.069843	0.002100	33.2603	130.135	-166.849	0.006937	0.462026	-0.663147	-0.664409	-0.033310	33.2603	-0.662396	-5.988083E+8	5.562726E-11	NaN
1014	1.000000	0.473243	7.37497e+06	-50839.1	1055.82	-29754.3	0.000000	0.000000	6.472901	0.016275	NaN	0.000000	0.001577	0.001687	28.0812	0.115857	0.001961	59.0925	84.7504	14.0417	-0.006775	0.471947	-0.653191	-0.654488	0.016275	59.0925	-0.653398	-4.508270E+8	-3.610060E-11	NaN
1014	1.000000	0.483275	7.37497e+06	-50839.1	1055.82	-29754.3	0.000000	0.000000	6.482933	0.035910	NaN	0.000000	0.001561	0.001649	28.0809	0.046553	0.002051	22.6945	-58.612	-164.009	0.010034	0.481981	-0.643160	-0.644453	0.035910	22.6945	-0.644346	-3.387764E+8	-1.059992E-10	NaN
1014	1.000000	0.493279	7.37497e+06	-50839.1	1055.82	-29754.3	0.000000	0.000000	6.492939	0.086096	NaN	0.000000	0.001544	0.001683	28.0822	0.052278	0.002028	25.775	100.938	12.8224	0.088679	0.491864	-0.633156	-0.634571	0.086096	25.775	-0.635661	-2.574811E+8	-3.343761E-10	NaN
1014	1.000000	0.503279	7.37497e+06	-50839.1	1055.82	-29754.3	0.000000	0.000000	6.502939	0.078693	NaN	0.000000	0.001569	0.001696	28.0823	0.062755	0.002051	30.6009	33.8428	-169.865	-0.026782	0.501968	-0.623155	-0.624467	0.078693	30.6009	-0.625084	-1.842889E+8	-4.270084E-10	NaN
1014	1.000000	0.513277	7.37497e+06	-50839.1	1055.82	-29754.3	0.000000	0.000000	6.512933	-0.005915	NaN	0.000000	0.001534	0.001722	28.0823	0.068594	0.002047	33.5126	9.335389	12.481	0.002950	0.511917	-0.613158	-0.614518	-0.005915	33.5126	-0.613025	-1.258156E+8	4.700978E-11	NaN
1014	1.000000	0.523281	7.37497e+06	-50839.1	1055.82	-29754.3	0.000000	0.000000	6.522941	0.088155	NaN	0.000000	0.001581	0.001696	28.082	0.044324	0.001972	22.4733	108.487	-162.525	0.069807	0.521986	-0.603154	-0.604449	0.088155	22.4733	-0.606096	-1.010155E+8	-8.726843E-10	NaN
1014	1.000000	0.533306	7.37497e+06	-50839.1	1055.82	-29754.3	0.000000	0.000000	6.532965	0.060630	NaN	0.000000	0.001579	0.001700	28.0823	0.074423	0.002013	36.9682	27.5833	11.6802	0.154622	0.531908	-0.593129	-0.594527	0.060630	36.9682	-0.594359	-6.962247E+7	-8.708410E-10	NaN
1014	1.000000	0.543289	7.37497e+06	-50839.1	1055.82	-29754.3	0.000000	0.000000	6.542948	0.057108	NaN	0.000000	0.001571	0.001697	28.0826	0.052488	0.001990	26.3752	-93.9504	-165.683	0.017143	0.541951	-0.583146	-0.584483	0.057108	26.3752	-0.584769	-5.134927E+7	-1.112141E-9	NaN
1014	1.000000	0.553305	7.37497e+06	-50839.1	1055.82	-29754.3	0.000000	0.000000	6.552963	0.038595	NaN	0.000000	0.001536	0.001655	28.0824	0.069802	0.001935	36.0732	-49.269	15.3238	0.074915	0.551956	-0.573129	-0.574478	0.038595	36.0732	-0.573932	-3.638712E+7	-1.060689E-9	NaN
1014	1.000000	0.563299	7.37497e+06	-50839.1	1055.82	-29754.3	0.000000	0.000000	6.562960	0.127478	NaN	0.000000	0.001574	0.001689	28.0823	0.089748	0.002070	43.3633	120.672	-165.217	0.014707	0.562033	-0.563136	-0.564401	0.127478	43.3633	-0.565341	-2.768466E+7	-4.604632E-9	NaN
1014	1.000000	0.573311	7.37497e+06	-50839.1	1055.82	-29754.3	0.000000	0.000000	6.572969	0.043067	NaN	0.000000	0.001544	0.001702	28.0822	0.072275	0.001949	37.0735	55.6901	13.2912	0.099540	0.571970	-0.553124	-0.554465	0.043067	37.0735	-0.553995	-1.928749E+7	-2.232916E-9	NaN
1014	1.000000	0.583305	7.37497e+06	-50839.1	1055.82	-29754.3	0.000000	0.000000	6.582963	0.041268	NaN	0.000000	0.001584	0.001685	28.0824	0.072269	0.001878	38.4727	138.573	-168.856	-0.014932	0.581979	-0.543130	-0.544456	0.041268	38.4727	-0.543934	-1.399282E+7	-2.949216E-9	NaN
1014	1.000000	0.593320	7.37497e+06	-50839.1	1055.82	-29754.3	0.000000	0.000000	6.592981	0.094402	NaN	0.000000	0.001553	0.001720	28.0822	0.100438	0.002101	47.7959	31.8527	15.9739	0.052507	0.591902	-0.533114	-0.534533	0.094402	47.7959	-0.534595	-1.038426E+7	-9.090848E-9	NaN
1014	1.000000	0.603332	7.37497e+06	-50839.1	1055.82	-29754.3	0.000000	0.000000	6.602992	0.082393	NaN	0.000000	0.001558	0.001708	28.0821	0.054767	0.001945	28.1571	-178.391	-168.748	0.070871	0.601982	-0.523103	-0.524453	0.082393	28.1571	-0.525298	-7.71345e+06	-1.068168E-8	NaN
1014	1.000000	0.613317	7.37497e+06	-50839.1	1055.82	-29754.3	0.000000	0.000000	6.612974	0.020536	NaN	0.000000	0.001568	0.001680	28.0823	0.060891	0.001931	31.5377	-120.63	14.1661	-0.051114	0.611967	-0.513118	-0.514468	0.020536	31.5377	-0.513606	-5.30439e+06	-3.871483E-9	NaN
1014	1.000000	0.623326	7.37497e+06	-50839.1	1055.82	-29754.3	0.000000	0.000000	6.622985	0.072783	NaN	0.000000	0.001593	0.001670	28.0823	0.094304	0.002036	46.3161	177.945	-163.23	0.068078	0.622010	-0.503109	-0.504424	0.072783	46.3161	-0.504288	-3.9338e+06	-1.850205E-8	NaN
1014	1.000000	0.633330	7.37497e+06	-50839.1	1055.82	-29754.3	0.000000	0.000000	6.632988	0.041170	NaN	0.000000	0.001574	0.001659	28.0812	0.101695	0.002101	48.4015	52.1225	17.211	0.056744	0.631973	-0.493105	-0.494462	0.041170	48.4015	-0.493743	-2.80335e+06	-1.468615E-8	NaN
1014	1.000000	0.643348	7.37497e+06	-50839.1	1055.82	-29754.3	0.000000	0.000000	6.643006	0.013693	NaN	0.000000	0.001558	0.001686	28.081	0.160291	0.001890	84.7904	-91.2612	-165.417	0.055508	0.641994	-0.483086	-0.484441	0.013693	84.7904	-0.483207	-1.99717e+06	-6.856308E-9	NaN
1014	1.000000	0.653355	7.37497e+06	-50839.1	1055.82	-29754.3	0.000000	0.000000	6.653014	0.061359	NaN	0.000000	0.001560	0.001691	28.0815	0.107495	0.002065	52.0534	-119.953	14.1097	0.076913	0.652001	-0.473080	-0.474433	0.061359	52.0534	-0.473964	-1.48245e+06	-4.139021E-8	NaN
1014	1.000000	0.663342	7.37497e+06	-50839.1	1055.82	-29754.3	0.000000	0.000000	6.663002	0.080097	NaN	0.000000	0.001540	0.001741	28.0811	0.081107	0.002047	39.6148	86.4567	-166.231	0.047372	0.662073	-0.463093	-0.464361	0.080097	39.6148	-0.464609	-1.09587e+06	-7.308999E-8	NaN
1014	1.000000	0.673356	7.37497e+06	-50839.1	1055.82	-29754.3	0.000000	0.000000	6.673013	0.009081	NaN	0.000000	0.001547	0.001678	28.081	0.034711	0.001989	17.4512	69.0437	12.3347	0.008687	0.672040	-0.453079	-0.454395	0.009081	17.4512	-0.453469	-764151	-1.188427E-8	NaN
1014	1.000000	0.683358	7.37497e+06	-50839.1	1055.82	-29754.3	0.000000	0.000000	6.683014	-0.013054	NaN	0.000000	0.001585	0.001706	28.0811	0.037549	0.002060	18.2297	79.6766	-168.291	0.086487	0.682058	-0.443077	-0.444377	-0.013054	18.2297	-0.442540	-536041	2.435295E-8	NaN
1014	1.000000	0.693358	7.37497e+06	-50839.1	1055.82	-29754.3	0.000000	0.000000	6.693015	0.008225	NaN	0.000000	0.001564	0.001679	28.0812	0.086289	0.001936	44.5667	76.2268	12.3215	0.050168	0.692039	-0.433077	-0.434396	0.008225	44.5667	-0.433215	-395848	-2.077876E-8	NaN
1014	1.000000	0.703371	7.37497e+06	-50839.1	1055.82	-29754.3	0.000000	0.000000	6.703029	0.026929	NaN	0.000000	0.001539	0.001661	28.0811	0.109930	0.002002	54.9111	-54.6602	-168.458	0.073362	0.702048	-0.423063	-0.424386	0.026929	54.9111	-0.423431	-287778	-9.357422E-8	NaN
1014	1.000000	0.713367	7.37497e+06	-50839.1	1055.82	-29754.3	0.000000	0.000000	6.713025	0.051794	NaN	0.000000	0.001557	0.001652	28.0808	0.051597	0.002218	23.258	-154.387	15.562	0.094857	0.712015	-0.413068	-0.414419	0.051794	23.258	-0.414738	-216640	-2.390802E-7	NaN
1014	1.000000	0.723389	7.37497e+06	-50839.1	1055.82	-29754.3	0.000000	0.000000	6.723046	0.012154	NaN	0.000000	0.001653	0.001664	28.081	0.032104	0.001986	16.1663	72.8144	-167.255	0.071515	0.722064	-0.403046	-0.404371	0.012154	16.1663	-0.403610	-150468	-8.077669E-8	NaN
1014	1.000000	0.733388	7.37497e+06	-50839.1	1055.82	-29754.3	0.000000	0.000000	6.733044	-0.015554	NaN	0.000000	0.001665	0.001654	28.0809	0.015367	0.001987	7.733370	-63.6308	16.393	-0.020648	0.732047	-0.393047	-0.394388	-0.015554	7.733370	-0.391538	-101197	1.537037E-7	NaN
1014	1.000000	0.743361	7.37497e+06	-50839.1	1055.82	-29754.3	0.000000	0.000000	6.743019	0.050872	NaN	0.000000	0.001637	0.001688	28.0809	0.122776	0.001877	65.4112	99.6469	-165.962	-0.008267	0.742098	-0.383074	-0.384337	0.050872	65.4112	-0.383657	-78044.9	-6.518315E-7	NaN
1014	1.000000	0.753390	7.37497e+06	-50839.1	1055.82	-29754.3	0.000000	0.000000	6.753051	0.100407	NaN	0.000000	0.001612	0.001666	28.0812	0.029648	0.002114	14.0216	50.5659	12.6221	0.078024	0.752005	-0.373045	-0.374430	0.100407	14.0216	-0.378416	-65636.4	-1.529754E-6	NaN
1014	1.000000	0.763384	7.37497e+06	-50839.1	1055.82	-29754.3	0.000000	0.000000	6.763040	-0.026733	NaN	0.000000	0.001588	0.001682	28.0827	0.129546	0.001983	65.3186	80.2413	-163.567	-0.038035	0.762107	-0.363051	-0.364327	-0.026733	65.3186	-0.362744	-39037.8	6.847918E-7	NaN
1014	1.000000	0.773393	7.37497e+06	-50839.1	1055.82	-29754.3	0.000000	0.000000	6.773052	0.067447	NaN	0.000000	0.001650	0.001711	28.0822	0.092190	0.001982	46.5184	88.1485	13.4924	0.054801	0.772006	-0.353042	-0.354429	0.067447	46.5184	-0.354129	-29301	-2.301880E-6	NaN
1014	1.000000	0.783377	7.37497e+06	-50839.1	1055.82	-29754.3	0.000000	0.000000	6.783032	-0.036755	NaN	0.000000	0.001660	0.001686	28.0822	0.091334	0.002100	43.4914	-153.575	-166.691	0.039097	0.782134	-0.343058	-0.344301	-0.036755	43.4914	-0.342424	-19809.5	1.855444E-6	NaN
1014	1.000000	0.793384	7.37497e+06	-50839.1	1055.82	-29754.3	0.000000	0.000000	6.793041	-0.011470	NaN	0.000000	0.001590	0.001659	28.0823	0.114731	0.001940	59.1368	55.34	15.7053	-0.002089	0.792031	-0.333050	-0.334404	-0.011470	59.1368	-0.332905	-14386.7	7.972894E-7	NaN
1014	1.000000	0.803383	7.37497e+06	-50839.1	1055.82	-29754.3	0.000000	0.000000	6.803043	0.084816	NaN	0.000000	0.001624	0.001645	28.0824	0.095912	0.002084	46.0168	-152.981	-169.791	0.096411	0.802104	-0.323052	-0.324331	0.084816	46.0168	-0.324434	-10810	-7.846061E-6	NaN
1014	1.000000	0.813404	7.37497e+06	-50839.1	1055.82	-29754.3	0.000000	0.000000	6.813061	0.003496	NaN	0.000000	0.001652	0.001710	28.0824	0.014891	0.001947	7.648161	-166.962	13.219	0.020483	0.812022	-0.313031	-0.314413	0.003496	7.648161	-0.313374	-7429.07	-4.705734E-7	NaN
1014	1.000000	0.823425	7.37497e+06	-50839.1	1055.82	-29754.3	0.000000	0.000000	6.823088	0.161518	NaN	0.000000	0.001621	0.001690	28.0824	0.073176	0.002068	35.3795	141.968	-167.05	0.071720	0.822128	-0.303010	-0.304306	0.161518	35.3795	-0.306434	-5864.46	-2.754182E-5	NaN
1014	1.000000	0.833414	7.37497e+06	-50839.1	1055.82	-29754.3	0.000000	0.000000	6.833074	0.057816	NaN	0.000000	0.001609	0.001706	28.0825	0.140938	0.002025	69.5941	34.86	13.5679	0.063969	0.832108	-0.293020	-0.294327	0.057816	69.5941	-0.293643	-3782.84	-1.528386E-5	NaN
1014	1.000000	0.843404	7.37497e+06	-50839.1	1055.82	-29754.3	0.000000	0.000000	6.843063	0.060971	NaN	0.000000	0.001641	0.001711	28.0822	0.140265	0.002040	68.7525	-150.657	-166.131	-0.001239	0.842166	-0.283030	-0.284269	0.060971	68.7525	-0.283696	-2683.17	-2.272353E-5	NaN
1014	1.000000	0.853381	7.37497e+06	-50839.1	1055.82	-29754.3	0.000000	0.000000	6.853041	0.072506	NaN	0.000000	0.001608	0.001679	28.0824	0.096924	0.001950	49.6959	120.633	14.4093	0.009939	0.852123	-0.273053	-0.274312	0.072506	49.6959	-0.274148	-1925.26	-3.766046E-5	NaN
1014	1.000000	0.863442	7.37497e+06	-50839.1	1055.82	-29754.3	0.000000	0.000000	6.863103	0.084296	NaN	0.000000	0.001581	0.001698	28.0821	0.053528	0.001933	27.6898	70.3534	-163.85	0.156538	0.862122	-0.262992	-0.264312	0.084296	27.6898	-0.265276	-1411.21	-5.973307E-5	NaN
1014	1.000000	0.873406	7.37497e+06	-50839.1	1055.82	-29754.3	0.000000	0.000000	6.873064	0.033613	NaN	0.000000	0.001577	0.001709	28.0824	0.032174	0.001992	16.1478	86.4969	13.0382	-0.011398	0.872064	-0.253029	-0.254371	0.033613	16.1478	-0.254590	-967.848	-3.472920E-5	NaN
1014	1.000000	0.883443	7.37497e+06	-50839.1	1055.82	-29754.3	0.000000	0.000000	6.883102	0.070374	NaN	0.000000	0.001597	0.001729	28.0823	0.024672	0.001983	12.4429	65.6302	-166.734	0.049278	0.882108	-0.242992	-0.244327	0.070374	12.4429	-0.247234	-744.953	-9.446825E-5	NaN
1014	1.000000	0.893444	7.37497e+06	-50839.1	1055.82	-29754.3	0.000000	0.000000	6.893100	-0.033338	NaN	0.000000	0.001644	0.001661	28.0823	0.108446	0.002154	50.3513	-20.0709	13.2284	0.011573	0.892089	-0.232990	-0.234345	-0.033338	50.3513	-0.232494	-438.367	7.605039E-5	NaN
1014	1.000000	0.903430	7.37497e+06	-50839.1	1055.82	-29754.3	0.000000	0.000000	6.903088	0.040897	NaN	0.000000	0.001647	0.001736	28.081	0.082872	0.002064	40.1464	107.814	-169.386	0.093681	0.902132	-0.223005	-0.224303	0.040897	40.1464	-0.223769	-318.978	-0.000128	NaN
1014	1.000000	0.913424	7.37497e+06	-50839.1	1055.82	-29754.3	0.000000	0.000000	6.913085	0.097162	NaN	0.000000	0.001617	0.001707	28.0814	0.093885	0.001928	48.7029	98.498	11.5222	0.078306	0.912112	-0.213011	-0.214322	0.097162	48.7029	-0.214507	-226.768	-0.000428	NaN
1014	1.000000	0.923422	7.37497e+06	-50839.1	1055.82	-29754.3	0.000000	0.000000	6.923079	0.029207	NaN	0.000000	0.001641	0.001712	28.0808	0.040210	0.001996	20.1498	-148.06	-162.29	0.003595	0.922159	-0.203013	-0.204275	0.029207	20.1498	-0.204100	-153.77	-0.000190	NaN
1014	1.000000	0.933462	7.37497e+06	-50839.1	1055.82	-29754.3	0.000000	0.000000	6.933120	0.022989	NaN	0.000000	0.001668	0.001727	28.0808	0.016460	0.002077	7.926819	78.8648	16.0501	0.086979	0.932067	-0.192973	-0.194368	0.022989	7.926819	-0.195148	-109.56	-0.000210	NaN
1014	1.000000	0.943469	7.37497e+06	-50839.1	1055.82	-29754.3	0.000000	0.000000	6.943129	0.065216	NaN	0.000000	0.001650	0.001680	28.0807	0.076199	0.002225	34.2434	-83.7418	-168.06	0.044578	0.942166	-0.182965	-0.184268	0.065216	34.2434	-0.184394	-72.4284	-0.000900	NaN
1014	1.000000	0.953454	7.37497e+06	-50839.1	1055.82	-29754.3	0.000000	0.000000	6.953111	-0.011316	NaN	0.000000	0.001634	0.001703	28.0809	0.097496	0.002002	48.6957	82.7871	11.0161	0.004630	0.952138	-0.172980	-0.174297	-0.011316	48.6957	-0.172806	-45.9405	0.000246	NaN
1014	1.000000	0.963481	7.37497e+06	-50839.1	1055.82	-29754.3	0.000000	0.000000	6.963137	-0.005746	NaN	0.000000	0.001664	0.001687	28.0808	0.106537	0.001980	53.8196	122.992	-165.38	0.025082	0.962173	-0.162954	-0.164262	-0.005746	53.8196	-0.162874	-30.8228	0.000186	NaN
1014	1.000000	0.973475	7.37497e+06	-50839.1	1055.82	-29754.3	0.000000	0.000000	6.973135	0.097636	NaN	0.000000	0.001670	0.001663	28.0808	0.057196	0.001883	30.3816	-141.305	16.2905	0.128388	0.972144	-0.152960	-0.154290	0.097636	30.3816	-0.155370	-22.659	-0.004309	NaN
1014	1.000000	0.983501	7.37497e+06	-50839.1	1055.82	-29754.3	0.000000	0.000000	6.983162	0.087741	NaN	0.000000	0.001614	0.001672	28.0808	0.072526	0.001911	37.9496	170.148	-169.273	0.043635	0.982166	-0.142933	-0.144268	0.087741	37.9496	-0.144667	-14.4547	-0.006070	NaN
1014	1.000000	0.993459	7.37497e+06	-50839.1	1055.82	-29754.3	0.000000	0.000000	6.993123	0.181134	NaN	0.000000	0.001625	0.001691	28.0808	0.071730	0.001996	35.9279	156.214	16.5391	0.122139	0.992157	-0.132976	-0.134277	0.181134	35.9279	-0.136757	-10.274	-0.017630	NaN
1014	1.000000	1.003497	7.37497e+06	-50839.1	1055.82	-29754.3	0.000000	0.000000	7.003154	0.013005	NaN	0.000000	0.001585	0.001677	28.0807	0.064804	0.001949	33.2539	-154.257	-165.576	0.020606	1.002156	-0.122938	-0.124279	0.013005	33.2539	-0.123231	-5.608866	-0.002319	NaN
1014	1.000000	1.013503	7.37497e+06	-50839.1	1055.82	-29754.3	0.000000	0.000000	7.013162	0.041335	NaN	0.000000	0.001586	0.001675	28.0808	0.038292	0.001947	19.6657	-98.9003	16.7499	0.022000	1.012090	-0.112931	-0.114345	0.041335	19.6657	-0.114508	-3.732064	-0.011076	NaN
1014	1.000000	1.023476	7.37497e+06	-50839.1	1055.82	-29754.3	0.000000	0.000000	7.023136	0.083297	NaN	0.000000	0.001617	0.001622	28.0808	0.137653	0.001930	71.3191	-155.622	-164.498	0.023577	1.022147	-0.102959	-0.104288	0.083297	71.3191	-0.103835	-2.217834	-0.037558	NaN
1014	1.000000	1.033503	7.37497e+06	-50839.1	1055.82	-29754.3	0.000000	0.000000	7.033162	0.048144	NaN	0.000000	0.001594	0.001686	28.0808	0.065590	0.002067	31.7282	58.5816	15.1942	0.012386	1.032150	-0.092931	-0.094284	0.048144	31.7282	-0.094069	-1.343235	-0.035842	NaN
1014	1.000000	1.043517	7.37497e+06	-50839.1	1055.82	-29754.3	0.000000	0.000000	7.043173	-0.028598	NaN	0.000000	0.001615	0.001680	28.0818	0.066705	0.001958	34.0713	119.595	-170.125	0.013497	1.042185	-0.082917	-0.084250	-0.028598	34.0713	-0.082288	-0.705436	0.040540	NaN
1014	1.000000	1.053505	7.37497e+06	-50839.1	1055.82	-29754.3	0.000000	0.000000	7.053164	0.069126	NaN	0.000000	0.001617	0.001710	28.082	0.014116	0.001926	7.328311	-16.1915	14.8861	-0.008053	1.052182	-0.072930	-0.074253	0.069126	7.328311	-0.080005	-0.619154	-0.111646	NaN
1014	1.000000	1.063508	7.37497e+06	-50839.1	1055.82	-29754.3	0.000000	0.000000	7.063165	0.014254	NaN	0.000000	0.001595	0.001679	28.0822	0.114230	0.001997	57.2103	17.7373	-168.304	0.156613	1.062206	-0.062927	-0.064229	0.014254	57.2103	-0.063114	-0.220759	-0.064570	NaN
1014	1.000000	1.073479	7.37497e+06	-50839.1	1055.82	-29754.3	0.000000	0.000000	7.073136	-0.014110	NaN	0.000000	0.001633	0.001691	28.082	0.059447	0.001978	30.0503	-18.4341	11.5972	0.067975	1.072121	-0.052955	-0.054314	-0.014110	30.0503	-0.052603	-0.109283	0.129111	NaN
1014	1.000000	1.083490	7.37497e+06	-50839.1	1055.82	-29754.3	0.000000	0.000000	7.083147	0.022918	NaN	0.000000	0.001613	0.001695	28.0818	0.161304	0.001855	86.976	-139.933	-164.718	0.070847	1.082203	-0.042945	-0.044232	0.022918	86.976	-0.043143	-0.056389	-0.406437	NaN
1014	1.000000	1.093518	7.37497e+06	-50839.1	1055.82	-29754.3	0.000000	0.000000	7.093174	-0.034109	NaN	0.000000	0.001635	0.001691	28.082	0.092208	0.001984	46.4824	22.5244	14.3299	-0.003699	1.092170	-0.032916	-0.034265	-0.034109	46.4824	-0.032366	-0.026846	1.270533	NaN
1014	1.000000	1.103518	7.37497e+06	-50839.1	1055.82	-29754.3	0.000000	0.000000	7.103174	-0.032713	NaN	0.000000	0.001613	0.001698	28.0819	0.056900	0.002053	27.7183	-169.647	-167.753	-0.007439	1.102206	-0.022916	-0.024228	-0.032713	27.7183	-0.022031	-0.014147	2.312358	NaN
1014	1.000000	1.113515	7.37497e+06	-50839.1	1055.82	-29754.3	0.000000	0.000000	7.113175	0.086301	NaN	0.000000	0.001619	0.001637	28.0818	0.112113	0.001968	56.9717	77.4816	15.3376	0.068786	1.112215	-0.012919	-0.014219	0.086301	56.9717	-0.014056	-0.008716	-9.901611	NaN
1014	1.000000	1.123534	7.37497e+06	-50839.1	1055.82	-29754.3	0.000000	0.000000	7.123191	0.003380	NaN	0.000000	0.001630	0.001696	28.0821	0.145427	0.001969	73.8488	-45.3329	-165.716	0.009216	1.122222	-0.002900	-0.004213	0.003380	73.8488	-0.002935	-0.002077	-1.627520	NaN
1014	1.000000	1.133536	7.37497e+06	-50839.1	1055.82	-29754.3	0.000000	0.000000	7.133234	1.000309	NaN	0.000000	0.001601	0.001640	28.0819	1.457366	0.001873	778.238	2.820501	13.6765	0.262736	1.132120	0.007101	0.005685	1.000309	778.238	0.006137	0.005195	192.546	9864.75
1014	2.000000	1.141213	7.37497e+06	-50839.1	1055.82	-29754.3	0.000000	0.000000	7.141188	7.743489	NaN	0.000000	0.001589	0.001667	28.082	8.662532	0.001660	5218.35	8.197636	-172.274	7.742795	1.140892	0.014778	0.014457	7.743489	5218.35	0.013666	0.013547	571.608	40962.6
1014	2.000000	1.143657	7.37497e+06	-50839.1	1055.82	-29754.3	0.000000	0.000000	7.143726	10.0281	NaN	0.000000	0.001599	0.001631	28.0819	10.836	0.001713	6325.27	8.166785	6.145175	9.003994	1.143299	0.017222	0.016865	10.0281	6325.27	0.016033	0.016688	600.918	44735.3
1014	2.000000	1.146141	7.37497e+06	-50839.1	1055.82	-29754.3	0.000000	0.000000	7.146360	13.6681	NaN	0.000000	0.001617	0.001696	28.0822	14.0111	0.001823	7684.46	9.508311	-177.689	13.3707	1.145806	0.019706	0.019371	13.6681	7684.46	0.018372	0.020049	681.737	49583.9
1014	2.000000	1.148660	7.37497e+06	-50839.1	1055.82	-29754.3	0.000000	0.000000	7.148996	16.5105	NaN	0.000000	0.001633	0.001679	28.081	16.1015	0.001922	8376.75	11.8485	1.159171	16.1127	1.148265	0.022226	0.021830	16.5105	8376.75	0.020747	0.023730	695.755	49681.8
1014	2.000000	1.151117	7.37497e+06	-50839.1	1055.82	-29754.3	0.000000	0.000000	7.151646	21.2239	NaN	0.000000	0.001586	0.001666	28.0811	17.4416	0.001818	9592.29	11.0914	-179.168	21.1591	1.150837	0.024682	0.024402	21.2239	9592.29	0.023023	0.027516	771.316	52832.2
1014	2.000000	1.153596	7.37497e+06	-50839.1	1055.82	-29754.3	0.000000	0.000000	7.154308	25.6581	NaN	0.000000	0.001564	0.001650	28.0807	20.1745	0.001635	12336.5	2.960943	4.879589	25.0759	1.153275	0.027161	0.026841	25.6581	12336.5	0.025601	0.032119	798.855	62890.6
1014	2.000000	1.156091	7.37497e+06	-50839.1	1055.82	-29754.3	0.000000	0.000000	7.156963	29.5551	NaN	0.000000	0.001569	0.001693	28.081	23.2036	0.001866	12433.2	1.108956	-172.003	28.7473	1.155864	0.029656	0.029429	29.5551	12433.2	0.027874	0.036452	810.803	59497.3
1014	2.000000	1.158622	7.37497e+06	-50839.1	1055.82	-29754.3	0.000000	0.000000	7.159803	37.0709	NaN	0.000000	0.001575	0.001739	28.081	25.868	0.001788	14465.5	4.215023	1.889388	36.7306	1.158280	0.032187	0.031845	37.0709	14465.5	0.030265	0.041295	897.719	65036.9
1014	2.000000	1.161046	7.37497e+06	-50839.1	1055.82	-29754.3	0.000000	0.000000	7.162531	44.4492	NaN	0.000000	0.001568	0.001726	28.0816	28.3269	0.001828	15496.2	4.193180	-178.486	42.8777	1.160788	0.034612	0.034353	44.4492	15496.2	0.032460	0.045998	966.331	66012.9
1014	2.000000	1.163567	7.37497e+06	-50839.1	1055.82	-29754.3	0.000000	0.000000	7.165294	50.3368	NaN	0.000000	0.001575	0.001715	28.0808	30.7009	0.001796	17093	7.433737	-1.510300	49.6256	1.163227	0.037132	0.036793	50.3368	17093	0.034924	0.051569	976.113	68769.9
1014	2.000000	1.166113	7.37497e+06	-50839.1	1055.82	-29754.3	0.000000	0.000000	7.168178	58.5673	NaN	0.000000	0.001591	0.001698	28.0821	33.463	0.001747	19157.6	4.212149	179.56	59.4946	1.165800	0.039679	0.039365	58.5673	19157.6	0.037386	0.057447	1019.51	73026.8
1014	2.000000	1.168561	7.37497e+06	-50839.1	1055.82	-29754.3	0.000000	0.000000	7.171119	70.5557	NaN	0.000000	0.001559	0.001712	28.081	35.6401	0.001820	19581.9	5.142062	-0.994841	66.8466	1.168155	0.042126	0.041720	70.5557	19581.9	0.039424	0.062548	1128.02	71535.1
1014	2.000000	1.171005	7.37497e+06	-50839.1	1055.82	-29754.3	0.000000	0.000000	7.173813	76.628	NaN	0.000000	0.001598	0.001685	28.081	36.9811	0.001709	21645.2	5.478147	178.436	73.8778	1.170744	0.044570	0.044309	76.628	21645.2	0.041915	0.069072	1109.4	75246.1
1014	2.000000	1.173539	7.37497e+06	-50839.1	1055.82	-29754.3	0.000000	0.000000	7.176703	85.27	NaN	0.000000	0.001543	0.001714	28.0807	39.7807	0.001751	22724.6	7.137340	-4.261281	82.6676	1.173132	0.047105	0.046698	85.27	22724.6	0.044291	0.075586	1128.12	75517.8
1014	2.000000	1.176001	7.37497e+06	-50839.1	1055.82	-29754.3	0.000000	0.000000	7.179638	96.7853	NaN	0.000000	0.001554	0.001691	28.0818	43.1674	0.001847	23369.1	5.050019	177.342	93.221	1.175781	0.049567	0.049346	96.7853	23369.1	0.046460	0.081788	1183.38	74657.4
1014	2.000000	1.178526	7.37497e+06	-50839.1	1055.82	-29754.3	0.000000	0.000000	7.182552	106.236	NaN	0.000000	0.001579	0.001676	28.0806	44.9218	0.001669	26915.2	5.809934	-4.265652	101.729	1.178082	0.052092	0.051647	106.236	26915.2	0.049131	0.089747	1183.73	82084.5
1014	2.000000	1.180962	7.37497e+06	-50839.1	1055.82	-29754.3	0.000000	0.000000	7.185480	118.224	NaN	0.000000	0.001585	0.001726	28.0806	47.6742	0.001849	25782.1	4.956877	176.645	114.012	1.180734	0.054527	0.054299	118.224	25782.1	0.051088	0.095806	1234	76101.9
1014	2.000000	1.183635	7.37497e+06	-50839.1	1055.82	-29754.3	0.000000	0.000000	7.188629	129.784	NaN	0.000000	0.001565	0.001698	28.0821	50.486	0.001834	27525.6	6.788655	-5.496134	131.743	1.183219	0.057201	0.056785	129.784	27525.6	0.053664	0.104075	1247.02	77953.5
1014	2.000000	1.186058	7.37497e+06	-50839.1	1055.82	-29754.3	0.000000	0.000000	7.191661	144.595	NaN	0.000000	0.001579	0.001720	28.0823	52.8243	0.001790	29510.1	5.450031	174.786	144.122	1.185711	0.059623	0.059276	144.595	29510.1	0.055948	0.111681	1294.71	80677.7
1014	2.000000	1.188508	7.37497e+06	-50839.1	1055.82	-29754.3	0.000000	0.000000	7.194535	154.908	NaN	0.000000	0.001567	0.001667	28.0818	54.4579	0.001741	31279.9	5.819487	-5.718662	152.301	1.188120	0.062074	0.061685	154.908	31279.9	0.058359	0.119991	1290.99	82501.8
1014	2.000000	1.191029	7.37497e+06	-50839.1	1055.82	-29754.3	0.000000	0.000000	7.197476	165.128	NaN	0.000000	0.001576	0.001712	28.082	56.8071	0.001713	33168.2	4.354572	174.985	165.682	1.190674	0.064595	0.064239	165.128	33168.2	0.060861	0.128913	1280.93	84401
1014	2.000000	1.193509	7.37497e+06	-50839.1	1055.82	-29754.3	0.000000	0.000000	7.200666	182.379	NaN	0.000000	0.001574	0.001718	28.0819	59.8503	0.001831	32691.3	6.295693	-6.999488	179.862	1.193190	0.067075	0.066755	182.379	32691.3	0.062890	0.136377	1337.32	80878.9
1014	2.000000	1.195984	7.37497e+06	-50839.1	1055.82	-29754.3	0.000000	0.000000	7.203845	199.503	NaN	0.000000	0.001546	0.001694	28.0817	61.2931	0.001713	35775.7	2.779953	175.632	195.763	1.195789	0.069549	0.069355	199.503	35775.7	0.065367	0.145753	1368.77	85615.5
1014	2.000000	1.198538	7.37497e+06	-50839.1	1055.82	-29754.3	0.000000	0.000000	7.207055	215.471	NaN	0.000000	0.001563	0.001693	28.0818	63.3907	0.001743	36364	7.971268	-8.645745	213.201	1.198123	0.072103	0.071688	215.471	36364	0.067659	0.154696	1392.87	84470.6
1014	2.000000	1.200939	7.37497e+06	-50839.1	1055.82	-29754.3	0.000000	0.000000	7.210062	230.196	NaN	0.000000	0.001577	0.001681	28.0818	64.2299	0.001693	37931.7	2.932000	175.351	225.321	1.200684	0.074504	0.074249	230.196	37931.7	0.069953	0.163896	1404.52	85603.5
1014	2.000000	1.203496	7.37497e+06	-50839.1	1055.82	-29754.3	0.000000	0.000000	7.213155	243.217	NaN	0.000000	0.001563	0.001686	28.082	68.5562	0.001715	39981	8.665962	-9.605067	241.516	1.202989	0.077062	0.076554	243.217	39981	0.072499	0.174403	1394.57	87468.3
1014	2.000000	1.206019	7.37497e+06	-50839.1	1055.82	-29754.3	0.000000	0.000000	7.216083	253.074	NaN	0.000000	0.001549	0.001665	28.0818	72.5242	0.001903	38108.2	6.236710	171.582	251.121	1.205865	0.079584	0.079431	253.074	38108.2	0.074604	0.183317	1380.52	81318.6
1014	2.000000	1.208599	7.37497e+06	-50839.1	1055.82	-29754.3	0.000000	0.000000	7.219569	275.122	NaN	0.000000	0.001574	0.001673	28.0817	73.9773	0.001781	41540.8	8.441306	-10.3555	275.804	1.208177	0.082164	0.081743	275.122	41540.8	0.077197	0.194589	1413.86	86037.8
1014	2.000000	1.211051	7.37497e+06	-50839.1	1055.82	-29754.3	0.000000	0.000000	7.222738	292.563	NaN	0.000000	0.001590	0.001698	28.0822	76.1501	0.001787	42611.6	8.655542	169.071	294.251	1.210703	0.084616	0.084269	292.563	42611.6	0.079467	0.204715	1429.13	86045.3
1014	2.000000	1.213536	7.37497e+06	-50839.1	1055.82	-29754.3	0.000000	0.000000	7.225738	305.06	NaN	0.000000	0.001602	0.001665	28.082	77.2822	0.001713	45123.1	3.682628	-6.341003	304.148	1.213258	0.087102	0.086823	305.06	45123.1	0.082031	0.216443	1409.43	88613.8
1014	2.000000	1.215994	7.37497e+06	-50839.1	1055.82	-29754.3	0.000000	0.000000	7.228714	317.672	NaN	0.000000	0.001583	0.001652	28.0816	81.1526	0.001917	42340.3	1.507922	176.084	315.77	1.215780	0.089559	0.089346	317.672	42340.3	0.083932	0.225334	1409.78	81491.7
1014	2.000000	1.218487	7.37497e+06	-50839.1	1055.82	-29754.3	0.000000	0.000000	7.232105	339.501	NaN	0.000000	0.001616	0.001651	28.081	83.5249	0.001835	45515.7	7.584915	-9.949833	336.405	1.218083	0.092053	0.091648	339.501	45515.7	0.086458	0.237408	1430.04	85346.8
1014	2.000000	1.220986	7.37497e+06	-50839.1	1055.82	-29754.3	0.000000	0.000000	7.235245	355.101	NaN	0.000000	0.001637	0.001684	28.0809	83.359	0.001718	48519.6	2.407099	174.92	353.352	1.220667	0.094551	0.094232	355.101	48519.6	0.089062	0.250160	1419.5	88630.2
1014	2.000000	1.223487	7.37497e+06	-50839.1	1055.82	-29754.3	0.000000	0.000000	7.238393	370.828	NaN	0.000000	0.001571	0.001701	28.0807	86.1108	0.001746	49328.7	3.913280	-7.617266	368.71	1.223246	0.097052	0.096811	370.828	49328.7	0.091414	0.261945	1415.67	88057.9
1014	2.000000	1.225993	7.37497e+06	-50839.1	1055.82	-29754.3	0.000000	0.000000	7.241637	388.763	NaN	0.000000	0.001586	0.001670	28.0809	89.6828	0.001824	49155.4	4.696613	172.193	388.305	1.225713	0.099558	0.099279	388.763	49155.4	0.093627	0.273266	1422.65	85911.6
1014	2.000000	1.228464	7.37497e+06	-50839.1	1055.82	-29754.3	0.000000	0.000000	7.245174	414.67	NaN	0.000000	0.001582	0.001672	28.0808	90.6903	0.001756	51634.5	4.042745	-7.435936	408.889	1.228112	0.102030	0.101678	414.67	51634.5	0.096007	0.285691	1451.47	88260.2
1014	2.000000	1.230926	7.37497e+06	-50839.1	1055.82	-29754.3	0.000000	0.000000	7.248229	429.107	NaN	0.000000	0.001537	0.001653	28.0811	93.0183	0.001802	51629.9	4.244323	172.197	424.387	1.230658	0.104492	0.104223	429.107	51629.9	0.098258	0.297685	1441.48	86456.2
1014	2.000000	1.233480	7.37497e+06	-50839.1	1055.82	-29754.3	0.000000	0.000000	7.251808	454.031	NaN	0.000000	0.001523	0.001690	28.0809	95.2605	0.001763	54027.8	3.724764	-7.562881	450.615	1.233144	0.107045	0.106709	454.031	54027.8	0.100743	0.311183	1459.05	88487.6
1014	2.000000	1.236023	7.37497e+06	-50839.1	1055.82	-29754.3	0.000000	0.000000	7.255323	477.685	NaN	0.000000	0.001569	0.001689	28.081	98.3361	0.001737	56610.7	3.484714	172.831	480.315	1.235641	0.109588	0.109206	477.685	56610.7	0.103260	0.325147	1469.14	90705.2
1014	2.000000	1.238408	7.37497e+06	-50839.1	1055.82	-29754.3	0.000000	0.000000	7.258739	502.726	NaN	0.000000	0.001564	0.001684	28.0809	100.694	0.001817	55404.5	2.722802	-5.912204	496.675	1.237992	0.111974	0.111558	502.726	55404.5	0.105169	0.335929	1496.52	87336.1
1014	2.000000	1.238988	7.37497e+06	-50839.1	1055.82	-29754.3	0.000000	0.000000	7.259454	506.041	NaN	0.000000	0.001550	0.001666	28.0809	102.03	0.001770	57632.4	3.261551	172.827	505.586	1.238639	0.112553	0.112205	506.041	57632.4	0.105968	0.340492	1486.21	90237.5