File: remote_trans/data/nanoindenter/0828-1/data/Data_2025-08-06,11h17m57s/2025-07-22_16-23-58_1_140.txt
2025-07-22, 16:23:58, 1
Index	Phase	Displacement	Time	Pos X	Pos Y	Pos Z	Rot A	Rot B	Piezo Z	Force A	Force B	Gripper	Voltage A	Voltage B	Temperature	Amplitude force	Amplitude pos	Stiffness	Phase shift	Phase excitation	Force A raw	Displacement raw	HMax	HMax raw	Real Force	Real Stiffness	Contact Depth	Area	Hardness	Reduced Mod.
[#]	[#]	[um]	[s]	[um]	[um]	[um]	[m°]	[m°]	[um]	[uN]	[uN]	[V]	[V]	[V]	[°C]	[uN]	[um]	[N/m]	[°]	[°]	[uN]	[um]	[um]	[um]	[uN]	[N/m]	[um]	[um^2]	[MPa]	[MPa]
140	1.000000	0.002803	7.36641e+06	-45639.1	955.818	-29772.3	0.000000	0.000000	6.002793	-0.034790	NaN	0.000000	0.001604	0.001677	28.0963	0.095754	0.000952	100.625	0.775522	-163.091	-0.073279	0.001532	-0.990614	-0.991886	-0.034790	100.625	-0.990355	-1.682257E+13	2.068041E-15	NaN
140	1.000000	0.010785	7.36641e+06	-45639.1	955.819	-29772.3	0.000000	0.000000	6.010775	-0.010572	NaN	0.000000	0.001615	0.001672	28.0954	0.088895	0.000844	105.349	-36.9681	-167.634	0.048638	0.009505	-0.982633	-0.983913	-0.010572	105.349	-0.982558	-1.320896E+13	8.003826E-16	NaN
140	1.000000	0.018786	7.36641e+06	-45639.1	955.818	-29772.3	0.000000	0.000000	6.018777	-0.012519	NaN	0.000000	0.001626	0.001669	28.0952	0.015628	0.001638	9.543414	18.0051	-164.7	0.016634	0.017454	-0.974631	-0.975964	-0.012519	9.543414	-0.973647	-1.001880E+13	1.249512E-15	NaN
140	1.000000	0.026814	7.36641e+06	-45639.1	955.818	-29772.3	0.000000	0.000000	6.026804	-0.026881	NaN	0.000000	0.001606	0.001684	28.0963	0.040763	0.001786	22.8261	62.7271	-165.177	-0.007813	0.025444	-0.966604	-0.967974	-0.026881	22.8261	-0.965721	-7.834053E+12	3.431332E-15	NaN
140	1.000000	0.034776	7.36641e+06	-45639.1	955.818	-29772.3	0.000000	0.000000	6.034768	-0.002478	NaN	0.000000	0.001634	0.001673	28.096	0.043488	0.001935	22.471	-23.3685	-166.079	0.047044	0.033427	-0.958641	-0.959991	-0.002478	22.471	-0.958559	-6.272428E+12	3.950840E-16	NaN
140	1.000000	0.042730	7.36641e+06	-45639.1	955.817	-29772.3	0.000000	0.000000	6.042722	-0.002335	NaN	0.000000	0.001604	0.001683	28.0963	0.035822	0.001991	17.991	177.665	-164.327	-0.000643	0.041392	-0.950687	-0.952025	-0.002335	17.991	-0.950590	-4.897586E+12	4.768220E-16	NaN
140	1.000000	0.050735	7.36641e+06	-45639.1	955.818	-29772.3	0.000000	0.000000	6.050726	-0.024486	NaN	0.000000	0.001645	0.001691	28.0967	0.036304	0.002020	17.9732	144.077	-167.401	-0.060974	0.049463	-0.942682	-0.943955	-0.024486	17.9732	-0.941661	-3.711428E+12	6.597386E-15	NaN
140	1.000000	0.058782	7.36641e+06	-45639.1	955.819	-29772.3	0.000000	0.000000	6.058775	0.045671	NaN	0.000000	0.001621	0.001667	28.0953	0.131742	0.002062	63.8906	-26.5052	-165.209	0.029784	0.057430	-0.934635	-0.935988	0.045671	63.8906	-0.935171	-3.033804E+12	-1.505407E-14	NaN
140	1.000000	0.066768	7.36641e+06	-45639.1	955.818	-29772.3	0.000000	0.000000	6.066757	-0.040201	NaN	0.000000	0.001537	0.001659	28.0942	0.063203	0.001920	32.9129	-12.5664	-164.604	0.030339	0.065442	-0.926650	-0.927976	-0.040201	32.9129	-0.925734	-2.262633E+12	1.776716E-14	NaN
140	1.000000	0.074768	7.36641e+06	-45639.1	955.818	-29772.3	0.000000	0.000000	6.074759	-0.013353	NaN	0.000000	0.001586	0.001706	28.094	0.072495	0.001882	38.5144	35.1033	-163.966	-0.045164	0.073488	-0.918649	-0.919930	-0.013353	38.5144	-0.918389	-1.800768E+12	7.415118E-15	NaN
140	1.000000	0.082747	7.36641e+06	-45639.1	955.818	-29772.3	0.000000	0.000000	6.082736	-0.057284	NaN	0.000000	0.001620	0.001672	28.0943	0.062694	0.001914	32.7615	124.635	-163.595	-0.038472	0.081485	-0.910670	-0.911933	-0.057284	32.7615	-0.909359	-1.359884E+12	4.212434E-14	NaN
140	1.000000	0.090734	7.36641e+06	-45639.1	955.818	-29772.3	0.000000	0.000000	6.090724	-0.015860	NaN	0.000000	0.001632	0.001711	28.0943	0.056417	0.002124	26.5652	-161.794	-164.843	-0.061556	0.089449	-0.902684	-0.903969	-0.015860	26.5652	-0.902236	-1.089631E+12	1.455565E-14	NaN
140	1.000000	0.098767	7.36641e+06	-45639.1	955.818	-29772.3	0.000000	0.000000	6.098759	0.003697	NaN	0.000000	0.001639	0.001670	28.0947	0.023058	0.002046	11.2686	-40.1373	-162.262	-0.042447	0.097511	-0.894651	-0.895906	0.003697	11.2686	-0.894897	-8.671612E+11	-4.263070E-15	NaN
140	1.000000	0.106781	7.36641e+06	-45639.1	955.818	-29772.3	0.000000	0.000000	6.106772	0.002448	NaN	0.000000	0.001633	0.001684	28.0956	0.087387	0.001923	45.4376	29.0782	-163.607	-0.038377	0.105461	-0.886637	-0.887957	0.002448	45.4376	-0.886677	-6.714174E+11	-3.645626E-15	NaN
140	1.000000	0.114765	7.36641e+06	-45639.1	955.819	-29772.3	0.000000	0.000000	6.114754	-0.046185	NaN	0.000000	0.001637	0.001703	28.0952	0.075142	0.002119	35.4596	25.5811	-166.405	-0.079239	0.113501	-0.878653	-0.879917	-0.046185	35.4596	-0.877676	-5.073192E+11	9.103661E-14	NaN
140	1.000000	0.122791	7.36641e+06	-45639.1	955.818	-29772.3	0.000000	0.000000	6.122780	-0.052317	NaN	0.000000	0.001613	0.001689	28.0947	0.098565	0.002054	47.9773	33.2481	-167.474	-0.047573	0.121455	-0.870626	-0.871963	-0.052317	47.9773	-0.869808	-3.970572E+11	1.317631E-13	NaN
140	1.000000	0.130794	7.36641e+06	-45639.1	955.818	-29772.3	0.000000	0.000000	6.130782	-0.072667	NaN	0.000000	0.001620	0.001682	28.0955	0.031699	0.001963	16.1522	-88.4891	-164.951	-0.028542	0.129400	-0.862624	-0.864018	-0.072667	16.1522	-0.859250	-2.857362E+11	2.543134E-13	NaN
140	1.000000	0.138774	7.36641e+06	-45639.1	955.817	-29772.3	0.000000	0.000000	6.138765	-0.018531	NaN	0.000000	0.001615	0.001654	28.0947	0.070406	0.001987	35.4357	102.536	-167.012	-0.031493	0.137421	-0.854644	-0.855997	-0.018531	35.4357	-0.854251	-2.445125E+11	7.578792E-14	NaN
140	1.000000	0.146795	7.36641e+06	-45639.1	955.818	-29772.3	0.000000	0.000000	6.146785	-0.032930	NaN	0.000000	0.001632	0.001653	28.0939	0.058714	0.002071	28.348	160.593	-169.101	-0.030994	0.145534	-0.846623	-0.847883	-0.032930	28.348	-0.845752	-1.875885E+11	1.755422E-13	NaN
140	1.000000	0.154816	7.36641e+06	-45639.1	955.818	-29772.3	0.000000	0.000000	6.154807	0.004352	NaN	0.000000	0.001619	0.001667	28.0944	0.075426	0.002007	37.5824	18.8232	-167.205	0.019545	0.153465	-0.838602	-0.839953	0.004352	37.5824	-0.838689	-1.504972E+11	-2.891463E-14	NaN
140	1.000000	0.162813	7.36641e+06	-45639.1	955.818	-29772.3	0.000000	0.000000	6.162804	-0.023970	NaN	0.000000	0.001634	0.001704	28.0922	0.046384	0.002106	22.0209	112.153	-164.578	-0.104357	0.161528	-0.830604	-0.831889	-0.023970	22.0209	-0.829788	-1.140011E+11	2.102626E-13	NaN
140	1.000000	0.170814	7.36641e+06	-45639.1	955.818	-29772.3	0.000000	0.000000	6.170806	0.023583	NaN	0.000000	0.001624	0.001697	28.0932	0.060522	0.002028	29.8487	87.7734	-167.101	0.026332	0.169508	-0.822604	-0.823910	0.023583	29.8487	-0.823196	-9.280098E+10	-2.541281E-13	NaN
140	1.000000	0.178813	7.36641e+06	-45639.1	955.819	-29772.3	0.000000	0.000000	6.178803	-0.013447	NaN	0.000000	0.001635	0.001710	28.0929	0.037740	0.001904	19.8231	90.8888	-166.137	0.032011	0.177467	-0.814605	-0.815950	-0.013447	19.8231	-0.814096	-6.984569E+10	1.925268E-13	NaN
140	1.000000	0.186822	7.36641e+06	-45639.1	955.818	-29772.3	0.000000	0.000000	6.186811	-0.038724	NaN	0.000000	0.001573	0.001668	28.0951	0.088072	0.001960	44.9338	-145.927	-167.894	-0.060547	0.185490	-0.806596	-0.807928	-0.038724	44.9338	-0.805950	-5.415161E+10	7.151109E-13	NaN
140	1.000000	0.194802	7.36641e+06	-45639.1	955.818	-29772.3	0.000000	0.000000	6.194794	0.017156	NaN	0.000000	0.001565	0.001695	28.0969	0.040839	0.001778	22.9744	-67.9438	-167.515	-0.026990	0.193477	-0.798615	-0.799941	0.017156	22.9744	-0.799175	-4.381953E+10	-3.915074E-13	NaN
140	1.000000	0.202796	7.36641e+06	-45639.1	955.818	-29772.3	0.000000	0.000000	6.202789	0.043963	NaN	0.000000	0.001577	0.001684	28.0954	0.005274	0.002077	2.539530	2.934317	-166.291	0.037209	0.201492	-0.790622	-0.791926	0.043963	2.539530	-0.803606	-5.032724E+10	-8.735470E-13	NaN
140	1.000000	0.210843	7.36641e+06	-45639.1	955.819	-29772.3	0.000000	0.000000	6.210833	-0.039702	NaN	0.000000	0.001570	0.001664	28.0956	0.162101	0.002061	78.6638	-134.354	-166.687	0.009400	0.209547	-0.782574	-0.783870	-0.039702	78.6638	-0.782196	-2.576731E+10	1.540792E-12	NaN
140	1.000000	0.218850	7.36641e+06	-45639.1	955.818	-29772.3	0.000000	0.000000	6.218840	-0.021625	NaN	0.000000	0.001598	0.001715	28.0951	0.047840	0.002054	23.289	156.712	-165.439	-0.083504	0.217532	-0.774568	-0.775886	-0.021625	23.289	-0.773872	-1.985818E+10	1.088984E-12	NaN
140	1.000000	0.226854	7.36641e+06	-45639.1	955.818	-29772.3	0.000000	0.000000	6.226845	-0.025328	NaN	0.000000	0.001551	0.001666	28.094	0.056711	0.002045	27.7288	136.538	-163.669	-0.085167	0.225513	-0.766563	-0.767904	-0.025328	27.7288	-0.765878	-1.546169E+10	1.638101E-12	NaN
140	1.000000	0.234836	7.36641e+06	-45639.1	955.817	-29772.3	0.000000	0.000000	6.234826	-0.025077	NaN	0.000000	0.001579	0.001669	28.0945	0.106973	0.001978	54.0848	-170.704	-166.037	0.020036	0.233554	-0.758582	-0.759863	-0.025077	54.0848	-0.758234	-1.216958E+10	2.060629E-12	NaN
140	1.000000	0.242831	7.36641e+06	-45639.1	955.818	-29772.3	0.000000	0.000000	6.242823	0.005226	NaN	0.000000	0.001605	0.001668	28.0947	0.016281	0.002018	8.066587	90.4223	-166.093	-0.042766	0.241504	-0.750586	-0.751913	0.005226	8.066587	-0.751072	-9.723282E+9	-5.374221E-13	NaN
140	1.000000	0.250841	7.36641e+06	-45639.1	955.817	-29772.3	0.000000	0.000000	6.250832	0.009851	NaN	0.000000	0.001574	0.001702	28.0948	0.093427	0.002003	46.6396	-157.468	-170.176	0.030414	0.249502	-0.742577	-0.743916	0.009851	46.6396	-0.742735	-7.487030E+9	-1.315757E-12	NaN
140	1.000000	0.258818	7.36641e+06	-45639.1	955.819	-29772.3	0.000000	0.000000	6.258809	0.013180	NaN	0.000000	0.001583	0.001699	28.0946	0.061310	0.002068	29.6466	-94.9125	-165.572	-0.001414	0.257552	-0.734600	-0.735866	0.013180	29.6466	-0.734934	-5.861891E+9	-2.248485E-12	NaN
140	1.000000	0.266807	7.36641e+06	-45639.1	955.819	-29772.3	0.000000	0.000000	6.266796	-0.059385	NaN	0.000000	0.001540	0.001691	28.095	0.065369	0.002005	32.6035	1.915501	-165.443	-0.066523	0.265474	-0.726610	-0.727944	-0.059385	32.6035	-0.725244	-4.324955E+9	1.373068E-11	NaN
140	1.000000	0.274863	7.36641e+06	-45639.1	955.818	-29772.3	0.000000	0.000000	6.274852	-0.055453	NaN	0.000000	0.001562	0.001702	28.0961	0.052884	0.001993	26.5348	-81.1471	-162.538	-0.090830	0.273601	-0.718554	-0.719817	-0.055453	26.5348	-0.716987	-3.337175E+9	1.661666E-11	NaN
140	1.000000	0.282868	7.36641e+06	-45639.1	955.818	-29772.3	0.000000	0.000000	6.282858	-0.017207	NaN	0.000000	0.001585	0.001674	28.095	0.135666	0.001946	69.7135	41.4953	-166.39	-0.007114	0.281537	-0.710550	-0.711881	-0.017207	69.7135	-0.710365	-2.710358E+9	6.348533E-12	NaN
140	1.000000	0.290867	7.36641e+06	-45639.1	955.819	-29772.3	0.000000	0.000000	6.290857	-0.023680	NaN	0.000000	0.001557	0.001706	28.096	0.018146	0.002176	8.339463	-49.8224	-165.825	-0.026458	0.289568	-0.702551	-0.703850	-0.023680	8.339463	-0.700421	-1.982831E+9	1.194242E-11	NaN
140	1.000000	0.298881	7.36641e+06	-45639.1	955.818	-29772.3	0.000000	0.000000	6.298873	0.036219	NaN	0.000000	0.001549	0.001687	28.0948	0.122400	0.001952	62.7171	120.478	-166.544	-0.010193	0.297527	-0.694537	-0.695890	0.036219	62.7171	-0.694970	-1.670434E+9	-2.168225E-11	NaN
140	1.000000	0.306863	7.36641e+06	-45639.1	955.818	-29772.3	0.000000	0.000000	6.306850	-0.080626	NaN	0.000000	0.001541	0.001700	28.0944	0.066254	0.002038	32.5077	-141.571	-166.739	-0.021521	0.305584	-0.686555	-0.687833	-0.080626	32.5077	-0.684695	-1.208938E+9	6.669146E-11	NaN
140	1.000000	0.314880	7.36641e+06	-45639.1	955.818	-29772.3	0.000000	0.000000	6.314871	-0.021147	NaN	0.000000	0.001565	0.001671	28.0945	0.119884	0.001984	60.4221	-38.9147	-166.059	-0.055087	0.313553	-0.678537	-0.679864	-0.021147	60.4221	-0.678275	-9.876626E+8	2.141151E-11	NaN
140	1.000000	0.322899	7.36641e+06	-45639.1	955.819	-29772.3	0.000000	0.000000	6.322887	-0.072178	NaN	0.000000	0.001583	0.001655	28.0942	0.012345	0.002068	5.970384	-22.633	-167.192	-0.041734	0.321588	-0.670519	-0.671830	-0.072178	5.970384	-0.661452	-5.812369E+8	1.241803E-10	NaN
140	1.000000	0.330876	7.36641e+06	-45639.1	955.818	-29772.3	0.000000	0.000000	6.330863	-0.099561	NaN	0.000000	0.001576	0.001694	28.0925	0.046950	0.002023	23.2047	123.35	-165.725	-0.041485	0.329578	-0.662542	-0.663840	-0.099561	23.2047	-0.659324	-5.435075E+8	1.831824E-10	NaN
140	1.000000	0.338863	7.36641e+06	-45639.1	955.818	-29772.3	0.000000	0.000000	6.338853	-0.028458	NaN	0.000000	0.001629	0.001666	28.0944	0.045814	0.001993	22.9887	-132.227	-162.791	-0.037881	0.337603	-0.654555	-0.655815	-0.028458	22.9887	-0.653627	-4.540927E+8	6.267107E-11	NaN
140	1.000000	0.346875	7.36641e+06	-45639.1	955.819	-29772.3	0.000000	0.000000	6.346865	-0.018371	NaN	0.000000	0.001605	0.001674	28.0944	0.086665	0.002045	42.3697	85.4331	-164.414	-0.031755	0.345581	-0.646543	-0.647837	-0.018371	42.3697	-0.646218	-3.594018E+8	5.111537E-11	NaN
140	1.000000	0.354893	7.36641e+06	-45639.1	955.819	-29772.3	0.000000	0.000000	6.354885	0.010121	NaN	0.000000	0.001595	0.001689	28.0939	0.071157	0.002021	35.2096	13.6881	-166.091	-0.006512	0.353569	-0.638524	-0.639848	0.010121	35.2096	-0.638740	-2.837902E+8	-3.566316E-11	NaN
140	1.000000	0.362866	7.36641e+06	-45639.1	955.818	-29772.3	0.000000	0.000000	6.362857	-0.027677	NaN	0.000000	0.001564	0.001676	28.0937	0.033583	0.002130	15.7659	9.322640	-166.201	-0.011842	0.361585	-0.630551	-0.631833	-0.027677	15.7659	-0.629235	-2.101415E+8	1.317078E-10	NaN
140	1.000000	0.370921	7.36641e+06	-45639.1	955.818	-29772.3	0.000000	0.000000	6.370910	-0.052720	NaN	0.000000	0.001534	0.001687	28.0946	0.113318	0.001964	57.7	-78.5687	-166.198	-0.018733	0.369617	-0.622497	-0.623800	-0.052720	57.7	-0.621812	-1.661629E+8	3.172811E-10	NaN
140	1.000000	0.378893	7.36641e+06	-45639.1	955.818	-29772.3	0.000000	0.000000	6.378884	0.004122	NaN	0.000000	0.001571	0.001666	28.0935	0.061663	0.001901	32.4401	-103.357	-163.677	0.030363	0.377691	-0.614525	-0.615727	0.004122	32.4401	-0.614620	-1.323336E+8	-3.115118E-11	NaN
140	1.000000	0.386905	7.36641e+06	-45639.1	955.818	-29772.3	0.000000	0.000000	6.386899	0.058148	NaN	0.000000	0.001539	0.001682	28.0927	0.080380	0.001957	41.0728	150.159	-167.165	0.012914	0.385587	-0.606513	-0.607831	0.058148	41.0728	-0.607574	-1.058616E+8	-5.492824E-10	NaN
140	1.000000	0.394911	7.36641e+06	-45639.1	955.818	-29772.3	0.000000	0.000000	6.394901	-0.027998	NaN	0.000000	0.001562	0.001701	28.0924	0.064161	0.002141	29.9713	131.139	-166.113	0.022619	0.393617	-0.598506	-0.599800	-0.027998	29.9713	-0.597806	-7.766710E+7	3.604860E-10	NaN
140	1.000000	0.402904	7.36641e+06	-45639.1	955.818	-29772.3	0.000000	0.000000	6.402896	0.005284	NaN	0.000000	0.001582	0.001697	28.0931	0.078767	0.001994	39.5025	-130.519	-167.974	-0.088087	0.401622	-0.590514	-0.591795	0.005284	39.5025	-0.590614	-6.182006E+7	-8.547241E-11	NaN
140	1.000000	0.410956	7.36641e+06	-45639.1	955.818	-29772.3	0.000000	0.000000	6.410945	-0.060125	NaN	0.000000	0.001581	0.001701	28.0922	0.054697	0.002078	26.3272	54.5047	-166.954	-0.001712	0.409564	-0.582462	-0.583854	-0.060125	26.3272	-0.580749	-4.519172E+7	1.330441E-9	NaN
140	1.000000	0.418898	7.36641e+06	-45639.1	955.818	-29772.3	0.000000	0.000000	6.418888	-0.022125	NaN	0.000000	0.001608	0.001681	28.0929	0.063306	0.002051	30.8642	70.2813	-165.996	0.001775	0.417603	-0.574520	-0.575815	-0.022125	30.8642	-0.573983	-3.644574E+7	6.070651E-10	NaN
140	1.000000	0.426923	7.36641e+06	-45639.1	955.818	-29772.3	0.000000	0.000000	6.426914	-0.015863	NaN	0.000000	0.001593	0.001695	28.0935	0.028784	0.001856	15.5105	-152.093	-170.049	-0.038390	0.425620	-0.566495	-0.567798	-0.015863	15.5105	-0.565728	-2.802756E+7	5.659863E-10	NaN
140	1.000000	0.434894	7.36641e+06	-45639.1	955.818	-29772.3	0.000000	0.000000	6.434878	-0.158413	NaN	0.000000	0.001586	0.001688	28.0938	0.070116	0.001914	36.6373	128.879	-163.07	-0.109438	0.433600	-0.558524	-0.559818	-0.158413	36.6373	-0.555281	-2.009457E+7	7.883370E-9	NaN
140	1.000000	0.442909	7.36641e+06	-45639.1	955.818	-29772.3	0.000000	0.000000	6.442902	0.028831	NaN	0.000000	0.001574	0.001725	28.0936	0.035452	0.002027	17.493	92.3076	-164.04	0.013370	0.441612	-0.550508	-0.551806	0.028831	17.493	-0.551745	-1.795214E+7	-1.605999E-9	NaN
140	1.000000	0.450939	7.36641e+06	-45639.1	955.819	-29772.3	0.000000	0.000000	6.450927	-0.062669	NaN	0.000000	0.001591	0.001687	28.0932	0.052672	0.001961	26.8598	89.5086	-169.426	-0.111270	0.449605	-0.542479	-0.543813	-0.062669	26.8598	-0.540729	-1.263188E+7	4.961218E-9	NaN
140	1.000000	0.458919	7.36641e+06	-45639.1	955.818	-29772.3	0.000000	0.000000	6.458910	-0.009700	NaN	0.000000	0.001575	0.001716	28.093	0.042491	0.001956	21.7272	-101.243	-165.18	-0.023412	0.457596	-0.534498	-0.535822	-0.009700	21.7272	-0.534163	-1.024189E+7	9.471381E-10	NaN
140	1.000000	0.466933	7.36641e+06	-45639.1	955.818	-29772.3	0.000000	0.000000	6.466925	0.019318	NaN	0.000000	0.001565	0.001718	28.0934	0.102898	0.002033	50.6207	-160.5	-166.85	0.004947	0.465667	-0.526484	-0.527751	0.019318	50.6207	-0.526771	-8.08564e+06	-2.389151E-9	NaN
140	1.000000	0.474912	7.36641e+06	-45639.1	955.818	-29772.3	0.000000	0.000000	6.474905	0.032022	NaN	0.000000	0.001568	0.001674	28.0935	0.073583	0.001926	38.2102	98.1564	-165.702	0.029156	0.473578	-0.518505	-0.519839	0.032022	38.2102	-0.519134	-6.33212e+06	-5.057095E-9	NaN
140	1.000000	0.482937	7.36641e+06	-45639.1	955.818	-29772.3	0.000000	0.000000	6.482926	-0.049198	NaN	0.000000	0.001543	0.001684	28.0936	0.036638	0.001943	18.8558	-152.625	-165.68	0.001670	0.481641	-0.510481	-0.511777	-0.049198	18.8558	-0.508524	-4.50663e+06	1.091690E-8	NaN
140	1.000000	0.490935	7.36641e+06	-45639.1	955.818	-29772.3	0.000000	0.000000	6.490924	-0.063390	NaN	0.000000	0.001582	0.001656	28.0927	0.070350	0.002084	33.762	-135.762	-168.017	-0.134739	0.489670	-0.502482	-0.503748	-0.063390	33.762	-0.501074	-3.54815e+06	1.786570E-8	NaN
140	1.000000	0.498946	7.36641e+06	-45639.1	955.818	-29772.3	0.000000	0.000000	6.498935	-0.045841	NaN	0.000000	0.001539	0.001666	28.0947	0.030473	0.002019	15.0914	-137.827	-170.729	-0.040641	0.497651	-0.494472	-0.495767	-0.045841	15.0914	-0.492194	-2.66713e+06	1.718728E-8	NaN
140	1.000000	0.506955	7.36641e+06	-45639.1	955.819	-29772.3	0.000000	0.000000	6.506948	0.034030	NaN	0.000000	0.001555	0.001645	28.0941	0.029605	0.001988	14.8946	-18.3447	-166.15	-0.026437	0.505645	-0.486463	-0.487772	0.034030	14.8946	-0.488176	-2.34371e+06	-1.451964E-8	NaN
140	1.000000	0.514943	7.36641e+06	-45639.1	955.818	-29772.3	0.000000	0.000000	6.514935	0.022055	NaN	0.000000	0.001557	0.001632	28.0944	0.036635	0.002045	17.9103	74.941	-167.756	0.054729	0.513681	-0.478475	-0.479737	0.022055	17.9103	-0.479398	-1.76646e+06	-1.248561E-8	NaN
140	1.000000	0.522987	7.36641e+06	-45639.1	955.818	-29772.3	0.000000	0.000000	6.522978	0.001608	NaN	0.000000	0.001551	0.001658	28.0951	0.064234	0.002024	31.7424	143.704	-168.255	-0.016073	0.521618	-0.470431	-0.471799	0.001608	31.7424	-0.470469	-1.32429e+06	-1.213905E-9	NaN
140	1.000000	0.530918	7.36641e+06	-45639.1	955.818	-29772.3	0.000000	0.000000	6.530911	0.044144	NaN	0.000000	0.001541	0.001655	28.095	0.036649	0.002108	17.3826	-169.071	-168.531	0.005813	0.529611	-0.462500	-0.463807	0.044144	17.3826	-0.464405	-1.08865e+06	-4.054938E-8	NaN
140	1.000000	0.538964	7.36641e+06	-45639.1	955.818	-29772.3	0.000000	0.000000	6.538957	0.046736	NaN	0.000000	0.001606	0.001631	28.0945	0.118551	0.001900	62.403	-51.2817	-165.492	-0.019710	0.537663	-0.454454	-0.455755	0.046736	62.403	-0.455015	-803403	-5.817267E-8	NaN
140	1.000000	0.546929	7.36641e+06	-45639.1	955.818	-29772.3	0.000000	0.000000	6.546921	0.012822	NaN	0.000000	0.001544	0.001655	28.0935	0.071779	0.002058	34.8819	-58.5696	-164.199	-0.032465	0.545699	-0.446489	-0.447718	0.012822	34.8819	-0.446764	-614840	-2.085461E-8	NaN
140	1.000000	0.554975	7.36641e+06	-45639.1	955.818	-29772.3	0.000000	0.000000	6.554962	-0.093039	NaN	0.000000	0.001557	0.001640	28.0935	0.069707	0.002076	33.5702	154.755	-163.402	-0.059845	0.553608	-0.438443	-0.439809	-0.093039	33.5702	-0.436364	-438557	2.121469E-7	NaN
140	1.000000	0.562961	7.36641e+06	-45639.1	955.818	-29772.3	0.000000	0.000000	6.562953	0.011678	NaN	0.000000	0.001586	0.001680	28.093	0.042775	0.001961	21.8171	-175.168	-162.266	-0.045512	0.561656	-0.430456	-0.431762	0.011678	21.8171	-0.430858	-366604	-3.185576E-8	NaN
140	1.000000	0.571005	7.36641e+06	-45639.1	955.818	-29772.3	0.000000	0.000000	6.570995	-0.023984	NaN	0.000000	0.001539	0.001658	28.0943	0.065629	0.002067	31.7586	-97.309	-165.062	-0.006068	0.569673	-0.422413	-0.423745	-0.023984	31.7586	-0.421846	-273272	8.776508E-8	NaN
140	1.000000	0.578995	7.36641e+06	-45639.1	955.818	-29772.3	0.000000	0.000000	6.578988	0.048680	NaN	0.000000	0.001558	0.001636	28.0947	0.092388	0.001978	46.6968	-167.62	-165.441	-0.011990	0.577711	-0.414423	-0.415707	0.048680	46.6968	-0.415205	-219968	-2.213030E-7	NaN
140	1.000000	0.586996	7.36641e+06	-45639.1	955.819	-29772.3	0.000000	0.000000	6.586987	0.003178	NaN	0.000000	0.001507	0.001678	28.094	0.033969	0.002013	16.8764	111.801	-166.627	0.000196	0.585684	-0.406422	-0.407734	0.003178	16.8764	-0.406563	-165769	-1.917209E-8	NaN
140	1.000000	0.594992	7.36641e+06	-45639.1	955.818	-29772.3	0.000000	0.000000	6.594984	-0.003022	NaN	0.000000	0.001505	0.001654	28.0939	0.075200	0.002003	37.5359	156.659	-168.551	0.004005	0.593722	-0.398425	-0.399696	-0.003022	37.5359	-0.398365	-126669	2.386084E-8	NaN
140	1.000000	0.602950	7.36641e+06	-45639.1	955.82	-29772.3	0.000000	0.000000	6.602942	0.030205	NaN	0.000000	0.001533	0.001651	28.0931	0.091567	0.002014	45.4574	-176.761	-165.811	0.001814	0.601634	-0.390468	-0.391783	0.030205	45.4574	-0.390966	-99307.9	-3.041565E-7	NaN
140	1.000000	0.610996	7.36641e+06	-45639.1	955.818	-29772.3	0.000000	0.000000	6.610985	-0.038703	NaN	0.000000	0.001486	0.001646	28.0934	0.049875	0.002011	24.8047	177.985	-165.964	-0.000872	0.609712	-0.382422	-0.383705	-0.038703	24.8047	-0.381252	-72085.6	5.369056E-7	NaN
140	1.000000	0.618995	7.36641e+06	-45639.1	955.818	-29772.3	0.000000	0.000000	6.618986	-0.006386	NaN	0.000000	0.001494	0.001660	28.0934	0.106117	0.002059	51.5294	125.165	-163.603	-0.009377	0.617698	-0.374422	-0.375719	-0.006386	51.5294	-0.374329	-57336.4	1.113802E-7	NaN
140	1.000000	0.626991	7.36641e+06	-45639.1	955.817	-29772.3	0.000000	0.000000	6.626983	0.020838	NaN	0.000000	0.001516	0.001662	28.0925	0.065326	0.001914	34.1271	-140.917	-167.817	-0.058774	0.625696	-0.366426	-0.367721	0.020838	34.1271	-0.366884	-44795.1	-4.651734E-7	NaN
140	1.000000	0.634951	7.36641e+06	-45639.1	955.819	-29772.3	0.000000	0.000000	6.634939	-0.079067	NaN	0.000000	0.001538	0.001668	28.0905	0.018695	0.002020	9.253271	-8.985764	-166.15	-0.067149	0.633686	-0.358467	-0.359732	-0.079067	9.253271	-0.352058	-27344	2.891566E-6	NaN
140	1.000000	0.643027	7.36641e+06	-45639.1	955.818	-29772.3	0.000000	0.000000	6.643016	-0.064786	NaN	0.000000	0.001544	0.001723	28.0919	0.004554	0.001935	2.353477	91.9369	-167.695	-0.025854	0.641707	-0.350390	-0.351711	-0.064786	2.353477	-0.329744	-12933.2	5.009279E-6	NaN
140	1.000000	0.651004	7.36641e+06	-45639.1	955.817	-29772.3	0.000000	0.000000	6.650994	-0.023476	NaN	0.000000	0.001521	0.001684	28.0919	0.032966	0.002008	16.4176	140.433	-168.355	-0.116830	0.649697	-0.342413	-0.343721	-0.023476	16.4176	-0.341341	-19102.8	1.228919E-6	NaN
140	1.000000	0.659017	7.36641e+06	-45639.1	955.817	-29772.3	0.000000	0.000000	6.659007	-0.047128	NaN	0.000000	0.001590	0.001660	28.0918	0.062393	0.002007	31.0919	26.0069	-167.305	-0.116288	0.657765	-0.334400	-0.335652	-0.047128	31.0919	-0.333264	-14561.5	3.236470E-6	NaN
140	1.000000	0.667018	7.36641e+06	-45639.1	955.818	-29772.3	0.000000	0.000000	6.667008	-0.036486	NaN	0.000000	0.001549	0.001680	28.0931	0.033781	0.002057	16.4188	-179.749	-166.071	-0.018472	0.665703	-0.326399	-0.327714	-0.036486	16.4188	-0.324733	-10919.8	3.341261E-6	NaN
140	1.000000	0.675033	7.36641e+06	-45639.1	955.818	-29772.3	0.000000	0.000000	6.675022	-0.061010	NaN	0.000000	0.001561	0.001672	28.0927	0.077178	0.002032	37.9801	76.2106	-166.016	0.020752	0.673693	-0.318385	-0.319725	-0.061010	37.9801	-0.317180	-8454.74	7.216020E-6	NaN
140	1.000000	0.683019	7.36641e+06	-45639.1	955.818	-29772.3	0.000000	0.000000	6.683012	0.039152	NaN	0.000000	0.001589	0.001690	28.0921	0.118900	0.002064	57.6187	26.9796	-167.757	0.068823	0.681712	-0.310399	-0.311706	0.039152	57.6187	-0.310908	-6831.16	-5.731424E-6	NaN
140	1.000000	0.691034	7.36641e+06	-45639.1	955.818	-29772.3	0.000000	0.000000	6.691024	-0.019271	NaN	0.000000	0.001551	0.001689	28.0929	0.134741	0.002078	64.8452	-35.9756	-164.468	-0.027595	0.689688	-0.302384	-0.303730	-0.019271	64.8452	-0.302161	-5067.35	3.802937E-6	NaN
140	1.000000	0.699072	7.36641e+06	-45639.1	955.818	-29772.3	0.000000	0.000000	6.699064	0.015792	NaN	0.000000	0.001561	0.001673	28.0919	0.071380	0.002044	34.9244	-116.707	-165.437	0.003195	0.697714	-0.294345	-0.295703	0.015792	34.9244	-0.294685	-3920.82	-4.027707E-6	NaN
140	1.000000	0.707032	7.36641e+06	-45639.1	955.818	-29772.3	0.000000	0.000000	6.707023	-0.014270	NaN	0.000000	0.001557	0.001696	28.0908	0.022771	0.001932	11.7844	5.624900	-167.083	-0.046562	0.705714	-0.286386	-0.287703	-0.014270	11.7844	-0.285477	-2853.92	5.000027E-6	NaN
140	1.000000	0.715072	7.36641e+06	-45639.1	955.818	-29772.3	0.000000	0.000000	6.715064	0.004220	NaN	0.000000	0.001577	0.001676	28.0927	0.089586	0.002051	43.6879	151.096	-167.258	0.020390	0.713737	-0.278346	-0.279681	0.004220	43.6879	-0.278418	-2234.03	-1.888754E-6	NaN
140	1.000000	0.723040	7.36641e+06	-45639.1	955.818	-29772.3	0.000000	0.000000	6.723032	0.013831	NaN	0.000000	0.001518	0.001686	28.0912	0.020288	0.001907	10.6394	139.475	-166.634	-0.018323	0.721712	-0.270378	-0.271706	0.013831	10.6394	-0.271353	-1746.2	-7.920434E-6	NaN
140	1.000000	0.731028	7.36641e+06	-45639.1	955.818	-29772.3	0.000000	0.000000	6.731019	-0.006521	NaN	0.000000	0.001598	0.001673	28.0918	0.050786	0.002025	25.0752	43.8986	-166.732	0.032334	0.729758	-0.262390	-0.263660	-0.006521	25.0752	-0.262195	-1266.26	5.149589E-6	NaN
140	1.000000	0.739045	7.36641e+06	-45639.1	955.818	-29772.3	0.000000	0.000000	6.739037	0.010078	NaN	0.000000	0.001614	0.001700	28.0924	0.038718	0.001968	19.6721	-166.643	-167.358	0.081913	0.737756	-0.254372	-0.255661	0.010078	19.6721	-0.254756	-973.568	-1.035183E-5	NaN
140	1.000000	0.747077	7.36641e+06	-45639.1	955.817	-29772.3	0.000000	0.000000	6.747066	-0.054413	NaN	0.000000	0.001602	0.001719	28.0942	0.023990	0.002006	11.9589	37.4371	-167.768	-0.053118	0.745743	-0.246341	-0.247675	-0.054413	11.9589	-0.242928	-638.591	8.520857E-5	NaN
140	1.000000	0.755060	7.36641e+06	-45639.1	955.819	-29772.3	0.000000	0.000000	6.755052	0.031536	NaN	0.000000	0.001637	0.001725	28.0939	0.098093	0.001999	49.0749	63.7449	-165.411	0.037996	0.753726	-0.238358	-0.239692	0.031536	49.0749	-0.238840	-551.344	-5.719826E-5	NaN
140	1.000000	0.763078	7.36641e+06	-45639.1	955.819	-29772.3	0.000000	0.000000	6.763067	-0.050534	NaN	0.000000	0.001655	0.001708	28.0938	0.048201	0.001910	25.2315	-24.695	-167.71	-0.004647	0.761756	-0.230339	-0.231661	-0.050534	25.2315	-0.228837	-383.835	0.000132	NaN
140	1.000000	0.771033	7.36641e+06	-45639.1	955.818	-29772.3	0.000000	0.000000	6.771025	0.011373	NaN	0.000000	0.001608	0.001708	28.093	0.030971	0.001987	15.5828	38.0784	-166.168	-0.043342	0.769776	-0.222384	-0.223642	0.011373	15.5828	-0.222932	-309.343	-3.676357E-5	NaN
140	1.000000	0.779078	7.36641e+06	-45639.1	955.818	-29772.3	0.000000	0.000000	6.779068	-0.047550	NaN	0.000000	0.001662	0.001707	28.0928	0.025725	0.002078	12.3768	156.42	-164.861	0.025094	0.777743	-0.214339	-0.215675	-0.047550	12.3768	-0.211458	-202.491	0.000235	NaN
140	1.000000	0.787067	7.36641e+06	-45639.1	955.818	-29772.3	0.000000	0.000000	6.787058	-0.004052	NaN	0.000000	0.001666	0.001708	28.0922	0.037327	0.001926	19.3808	121.331	-160.172	-0.056643	0.785826	-0.206351	-0.207592	-0.004052	19.3808	-0.206194	-166.349	2.435648E-5	NaN
140	1.000000	0.795085	7.36641e+06	-45639.1	955.818	-29772.3	0.000000	0.000000	6.795075	-0.017754	NaN	0.000000	0.001678	0.001689	28.0923	0.019442	0.001911	10.1736	136.016	-163.759	0.022754	0.793707	-0.198333	-0.199710	-0.017754	10.1736	-0.197024	-117.674	0.000151	NaN
140	1.000000	0.803066	7.36641e+06	-45639.1	955.818	-29772.3	0.000000	0.000000	6.803058	0.008035	NaN	0.000000	0.001567	0.001736	28.0927	0.061095	0.002053	29.7518	-109.656	-169.741	0.032698	0.801733	-0.190351	-0.191685	0.008035	29.7518	-0.190554	-91.8923	-8.743771E-5	NaN
140	1.000000	0.811089	7.36641e+06	-45639.1	955.818	-29772.3	0.000000	0.000000	6.811079	-0.035262	NaN	0.000000	0.001550	0.001732	28.092	0.006347	0.002014	3.151478	128.223	-165.309	0.037919	0.809758	-0.182328	-0.183660	-0.035262	3.151478	-0.173937	-48.0492	0.000734	NaN
140	1.000000	0.819078	7.36641e+06	-45639.1	955.819	-29772.3	0.000000	0.000000	6.819072	0.047705	NaN	0.000000	0.001556	0.001673	28.0919	0.117937	0.002033	58.0042	-41.0398	-167.721	0.004274	0.817823	-0.174339	-0.175595	0.047705	58.0042	-0.174956	-50.0294	-0.000954	NaN
140	1.000000	0.827079	7.36641e+06	-45639.1	955.818	-29772.3	0.000000	0.000000	6.827069	-0.033722	NaN	0.000000	0.001544	0.001691	28.0926	0.121481	0.001949	62.3183	-87.2416	-167.855	-0.002179	0.825794	-0.166339	-0.167624	-0.033722	62.3183	-0.165933	-34.8877	0.000967	NaN
140	1.000000	0.835069	7.36641e+06	-45639.1	955.82	-29772.3	0.000000	0.000000	6.835062	0.037997	NaN	0.000000	0.001571	0.001717	28.0921	0.165287	0.001999	82.6895	-73.3425	-168.427	-0.076057	0.833778	-0.158348	-0.159640	0.037997	82.6895	-0.158693	-25.9851	-0.001462	NaN
140	1.000000	0.843095	7.36641e+06	-45639.1	955.818	-29772.3	0.000000	0.000000	6.843088	0.038440	NaN	0.000000	0.001558	0.001725	28.0933	0.067917	0.001930	35.1822	24.1628	-162.256	0.083393	0.841778	-0.150323	-0.151639	0.038440	35.1822	-0.151142	-19.002	-0.002023	NaN
140	1.000000	0.851082	7.36641e+06	-45639.1	955.818	-29772.3	0.000000	0.000000	6.851073	-1.886479E-5	NaN	0.000000	0.001634	0.001708	28.0925	0.012986	0.001894	6.856552	1.307181	-164.25	-0.040124	0.849762	-0.142336	-0.143656	-1.886479E-5	6.856552	-0.142334	-13.0811	1.442146E-6	NaN
140	1.000000	0.859092	7.36641e+06	-45639.1	955.818	-29772.3	0.000000	0.000000	6.859080	-0.095004	NaN	0.000000	0.001629	0.001706	28.0919	0.040446	0.002032	19.908	162.171	-167.298	-0.043649	0.857802	-0.134325	-0.135616	-0.095004	19.908	-0.130746	-7.879253	0.012057	NaN
140	1.000000	0.867081	7.36641e+06	-45639.1	955.818	-29772.3	0.000000	0.000000	6.867071	-0.049414	NaN	0.000000	0.001614	0.001705	28.0923	0.074830	0.001851	40.4219	137.053	-168.799	-0.093872	0.865820	-0.126336	-0.127598	-0.049414	40.4219	-0.125419	-6.198480	0.007972	NaN
140	1.000000	0.875110	7.36641e+06	-45639.1	955.818	-29772.3	0.000000	0.000000	6.875101	-0.020585	NaN	0.000000	0.001619	0.001702	28.0901	0.061551	0.001971	31.2256	65.425	-166.713	-0.001049	0.873765	-0.118307	-0.119653	-0.020585	31.2256	-0.117813	-4.362572	0.004719	NaN
140	1.000000	0.883090	7.36641e+06	-45639.1	955.818	-29772.3	0.000000	0.000000	6.883079	-0.058044	NaN	0.000000	0.001594	0.001724	28.0907	0.086842	0.001983	43.795	-58.1628	-165.759	-0.043203	0.881762	-0.110327	-0.111655	-0.058044	43.795	-0.109333	-2.909323	0.019951	NaN
140	1.000000	0.891107	7.36641e+06	-45639.1	955.818	-29772.3	0.000000	0.000000	6.891100	0.035309	NaN	0.000000	0.001596	0.001692	28.0901	0.062745	0.001905	32.9441	128.003	-167.094	0.024757	0.889842	-0.102311	-0.103575	0.035309	32.9441	-0.103114	-2.139181	-0.016506	NaN
140	1.000000	0.899131	7.36641e+06	-45639.1	955.818	-29772.3	0.000000	0.000000	6.899124	0.025414	NaN	0.000000	0.001582	0.001694	28.0906	0.041772	0.002021	20.671	-128.042	-167.83	-0.045202	0.897820	-0.094286	-0.095597	0.025414	20.671	-0.095208	-1.426131	-0.017820	NaN
140	1.000000	0.907101	7.36641e+06	-45639.1	955.818	-29772.3	0.000000	0.000000	6.907091	-0.033139	NaN	0.000000	0.001551	0.001713	28.0914	0.035266	0.002034	17.3346	-162.915	-166.437	0.007850	0.905789	-0.086316	-0.087629	-0.033139	17.3346	-0.084882	-0.816266	0.040598	NaN
140	1.000000	0.915120	7.36641e+06	-45639.1	955.82	-29772.3	0.000000	0.000000	6.915109	-0.073719	NaN	0.000000	0.001581	0.001723	28.0911	0.120803	0.001936	62.3931	-54.3308	-162.294	-0.077038	0.913808	-0.078297	-0.079609	-0.073719	62.3931	-0.077411	-0.532581	0.138418	NaN
140	1.000000	0.923127	7.36641e+06	-45639.1	955.818	-29772.3	0.000000	0.000000	6.923119	0.019911	NaN	0.000000	0.001531	0.001759	28.0911	0.053343	0.002076	25.693	-70.1956	-163.472	0.018766	0.921810	-0.070291	-0.071608	0.019911	25.693	-0.070872	-0.359901	-0.055323	NaN
140	1.000000	0.931135	7.36641e+06	-45639.1	955.818	-29772.3	0.000000	0.000000	6.931129	0.071287	NaN	0.000000	0.001552	0.001749	28.092	0.068731	0.002069	33.2238	138.83	-165.681	0.053782	0.929849	-0.062283	-0.063569	0.071287	33.2238	-0.063892	-0.232125	-0.307106	NaN
140	1.000000	0.939142	7.36641e+06	-45639.1	955.818	-29772.3	0.000000	0.000000	6.939132	-0.028643	NaN	0.000000	0.001553	0.001744	28.0899	0.040879	0.001945	21.0199	-7.233826	-168.557	-0.013667	0.937783	-0.054275	-0.055635	-0.028643	21.0199	-0.053253	-0.114283	0.250632	NaN
140	1.000000	0.947110	7.36641e+06	-45639.1	955.818	-29772.3	0.000000	0.000000	6.947102	0.007150	NaN	0.000000	0.001472	0.001741	28.0904	0.122936	0.002106	58.3712	-75.0597	-164.036	0.019067	0.945850	-0.046307	-0.047567	0.007150	58.3712	-0.046399	-0.070917	-0.100826	NaN
140	1.000000	0.955161	7.36641e+06	-45639.1	955.818	-29772.3	0.000000	0.000000	6.955152	-0.008406	NaN	0.000000	0.001461	0.001733	28.091	0.075022	0.001959	38.3043	-162.49	-167.705	0.013275	0.953849	-0.038257	-0.039568	-0.008406	38.3043	-0.038092	-0.039596	0.212309	NaN
140	1.000000	0.963159	7.36641e+06	-45639.1	955.819	-29772.3	0.000000	0.000000	6.963148	-0.063477	NaN	0.000000	0.001511	0.001757	28.0915	0.046047	0.001940	23.7364	-48.522	-163.407	-0.137481	0.961776	-0.030258	-0.031642	-0.063477	23.7364	-0.028253	-0.020599	3.081610	NaN
140	1.000000	0.971133	7.36641e+06	-45639.1	955.818	-29772.3	0.000000	0.000000	6.971119	-0.106334	NaN	0.000000	0.001491	0.001769	28.0897	0.052503	0.001980	26.5183	129.61	-162.19	-0.052524	0.969838	-0.022285	-0.023580	-0.106334	26.5183	-0.019278	-0.012040	8.831963	NaN
140	1.000000	0.979146	7.36641e+06	-45639.1	955.818	-29772.3	0.000000	0.000000	6.979138	0.005981	NaN	0.000000	0.001540	0.001740	28.0899	0.014919	0.001981	7.532311	86.3844	-165.955	-0.073757	0.977829	-0.014271	-0.015588	0.005981	7.532311	-0.014867	-0.009196	-0.650401	NaN
140	1.000000	0.987146	7.36641e+06	-45639.1	955.819	-29772.3	0.000000	0.000000	6.987135	-0.059667	NaN	0.000000	0.001546	0.001683	28.0912	0.050675	0.002131	23.7762	-161.105	-164.004	-0.048557	0.985809	-0.006272	-0.007608	-0.059667	23.7762	-0.004390	-0.003030	19.6943	NaN
140	1.000000	0.995129	7.36641e+06	-45639.1	955.818	-29772.3	0.000000	0.000000	6.995168	1.160410	NaN	0.000000	0.001546	0.001672	28.0916	1.836352	0.001901	966.154	10.6083	-166.52	0.321228	0.993825	0.001711	0.000408	1.160410	966.154	0.000811	0.000616	1885.29	35579.7
140	2.000000	1.001691	7.36641e+06	-45639.1	955.818	-29772.3	0.000000	0.000000	7.002092	9.954177	NaN	0.000000	0.001579	0.001717	28.092	9.010540	0.001654	5448.75	4.513029	-169.838	9.728497	1.001306	0.008274	0.007889	9.954177	5448.75	0.006904	0.005939	1676.14	64598.6
140	2.000000	1.003709	7.36641e+06	-45639.1	955.818	-29772.3	0.000000	0.000000	7.004243	13.2094	NaN	0.000000	0.001583	0.001714	28.092	10.8326	0.001586	6830.49	9.175802	-175.331	13.3213	1.003353	0.010292	0.009935	13.2094	6830.49	0.008841	0.007922	1667.47	70115.3
140	2.000000	1.005653	7.36641e+06	-45639.1	955.818	-29772.3	0.000000	0.000000	7.006325	16.5712	NaN	0.000000	0.001588	0.001692	28.0916	13.8166	0.001958	7056.57	7.234734	-174.367	16.0842	1.005392	0.012235	0.011975	16.5712	7056.57	0.010474	0.009713	1706.14	65418
140	2.000000	1.007660	7.36641e+06	-45639.1	955.819	-29772.3	0.000000	0.000000	7.008564	22.2019	NaN	0.000000	0.001599	0.001693	28.0912	15.4798	0.001759	8802.4	3.570680	-174.507	20.2375	1.007331	0.014242	0.013913	22.2019	8802.4	0.012351	0.011913	1863.69	73682.7
140	2.000000	1.009632	7.36641e+06	-45639.1	955.818	-29772.3	0.000000	0.000000	7.010601	23.7892	NaN	0.000000	0.001571	0.001742	28.0922	17.123	0.001662	10300.4	7.503966	-178.837	24.2231	1.009350	0.016214	0.015932	23.7892	10300.4	0.014482	0.014601	1629.29	77881.7
140	2.000000	1.011615	7.36641e+06	-45639.1	955.818	-29772.3	0.000000	0.000000	7.012756	27.9454	NaN	0.000000	0.001579	0.001692	28.091	19.9683	0.001878	10630.9	5.552039	-176.537	26.6345	1.011338	0.018198	0.017920	27.9454	10630.9	0.016226	0.016956	1648.16	74591.4
140	2.000000	1.013619	7.36641e+06	-45639.1	955.818	-29772.3	0.000000	0.000000	7.014894	31.2326	NaN	0.000000	0.001555	0.001698	28.0913	20.9965	0.001764	11903.4	3.569270	-175.919	31.3059	1.013233	0.020201	0.019815	31.2326	11903.4	0.018233	0.019842	1574.06	77206.2
140	2.000000	1.015607	7.36641e+06	-45639.1	955.817	-29772.3	0.000000	0.000000	7.017119	36.9986	NaN	0.000000	0.001568	0.001671	28.0908	22.9827	0.001679	13690	4.163886	-178.104	36.6893	1.015344	0.022189	0.021926	36.9986	13690	0.020162	0.022798	1622.9	82837.9
140	2.000000	1.017649	7.36641e+06	-45639.1	955.818	-29772.3	0.000000	0.000000	7.019382	42.383	NaN	0.000000	0.001592	0.001681	28.0926	25.6892	0.001810	14190	5.362399	-178.756	42.2182	1.017305	0.024231	0.023888	42.383	14190	0.021991	0.025768	1644.82	80764.1
140	2.000000	1.019624	7.36641e+06	-45639.1	955.818	-29772.3	0.000000	0.000000	7.021501	45.8603	NaN	0.000000	0.001607	0.001659	28.0925	27.7814	0.001854	14983.5	9.494405	176.671	46.9922	1.019236	0.026207	0.025818	45.8603	14983.5	0.023911	0.029064	1577.89	80298.5
140	2.000000	1.021561	7.36641e+06	-45639.1	955.818	-29772.3	0.000000	0.000000	7.023631	50.5772	NaN	0.000000	0.001606	0.001682	28.0921	28.7605	0.001791	16054.2	5.241632	-179.786	48.6671	1.021278	0.028143	0.027860	50.5772	16054.2	0.025780	0.032450	1558.6	81424
140	2.000000	1.023531	7.36641e+06	-45639.1	955.818	-29772.3	0.000000	0.000000	7.025941	58.8414	NaN	0.000000	0.001585	0.001687	28.0922	30.1467	0.001747	17255.9	8.660930	175.596	55.8443	1.023208	0.030114	0.029791	58.8414	17255.9	0.027556	0.035830	1642.22	83288.4
140	2.000000	1.025551	7.36641e+06	-45639.1	955.818	-29772.3	0.000000	0.000000	7.028041	60.7901	NaN	0.000000	0.001613	0.001664	28.0918	32.535	0.001859	17499.8	4.392639	-179.744	60.3147	1.025318	0.032133	0.031901	60.7901	17499.8	0.029528	0.039771	1528.5	80172
140	2.000000	1.027617	7.36641e+06	-45639.1	955.818	-29772.3	0.000000	0.000000	7.030427	68.5499	NaN	0.000000	0.001554	0.001685	28.0907	34.964	0.001790	19533.4	8.389280	175.817	68.5287	1.027291	0.034200	0.033873	68.5499	19533.4	0.031568	0.044056	1555.98	85025.6
140	2.000000	1.029585	7.36641e+06	-45639.1	955.818	-29772.3	0.000000	0.000000	7.032642	74.5851	NaN	0.000000	0.001563	0.001698	28.09	35.4008	0.001727	20495	3.334181	179.381	73.9974	1.029204	0.036167	0.035787	74.5851	20495	0.033437	0.048170	1548.36	85316.1
140	2.000000	1.031571	7.36641e+06	-45639.1	955.818	-29772.3	0.000000	0.000000	7.034984	83.2333	NaN	0.000000	0.001562	0.001674	28.0914	38.2379	0.001669	22907.7	3.415102	178.167	81.8203	1.031305	0.038154	0.037887	83.2333	22907.7	0.035429	0.052749	1577.91	91127.2
140	2.000000	1.033569	7.36641e+06	-45639.1	955.818	-29772.3	0.000000	0.000000	7.037335	91.82	NaN	0.000000	0.001565	0.001653	28.0903	39.1342	0.001709	22896	6.561537	176.227	92.0363	1.033266	0.040151	0.039848	91.82	22896	0.037144	0.056855	1614.99	87730.2
140	2.000000	1.035515	7.36641e+06	-45639.1	955.819	-29772.3	0.000000	0.000000	7.039533	97.971	NaN	0.000000	0.001560	0.001670	28.0913	42.0276	0.001706	24639.5	8.889088	172.018	96.5393	1.035215	0.042097	0.041797	97.971	24639.5	0.039115	0.061761	1586.29	90583.3
140	2.000000	1.037598	7.36641e+06	-45639.1	955.819	-29772.3	0.000000	0.000000	7.042200	112.153	NaN	0.000000	0.001547	0.001716	28.0921	43.157	0.001803	23942.6	-0.159738	-177.677	110.388	1.037268	0.044181	0.043850	112.153	23942.6	0.040668	0.065765	1705.36	85299.8
140	2.000000	1.039538	7.36641e+06	-45639.1	955.819	-29772.3	0.000000	0.000000	7.044499	120.899	NaN	0.000000	0.001536	0.001654	28.0903	45.5498	0.001834	24838.7	6.740981	175.298	119.528	1.039229	0.046120	0.045812	120.899	24838.7	0.042469	0.070566	1713.28	85429
140	2.000000	1.041526	7.36641e+06	-45639.1	955.819	-29772.3	0.000000	0.000000	7.046733	126.874	NaN	0.000000	0.001573	0.001656	28.0896	48.3511	0.001711	28251.4	7.004967	172.613	126.825	1.041337	0.048108	0.047919	126.874	28251.4	0.044740	0.076851	1650.91	93108.4
140	2.000000	1.043490	7.36641e+06	-45639.1	955.819	-29772.3	0.000000	0.000000	7.049040	135.225	NaN	0.000000	0.001547	0.001681	28.0902	49.0328	0.001867	26268.3	6.286280	175.321	132.33	1.043159	0.050072	0.049742	135.225	26268.3	0.046212	0.081064	1668.12	84293.1
140	2.000000	1.045558	7.36641e+06	-45639.1	955.819	-29772.3	0.000000	0.000000	7.051520	145.246	NaN	0.000000	0.001559	0.001653	28.0905	50.9007	0.001772	28724.6	2.563157	177.072	143.475	1.045189	0.052140	0.051771	145.246	28724.6	0.048348	0.087375	1662.32	88783.6
140	2.000000	1.047650	7.36641e+06	-45639.1	955.819	-29772.3	0.000000	0.000000	7.053975	154.073	NaN	0.000000	0.001551	0.001672	28.0888	53.8147	0.001851	29075.1	6.590151	173.897	156.617	1.047264	0.054232	0.053847	154.073	29075.1	0.050258	0.093212	1652.92	87007.7
140	2.000000	1.049558	7.36641e+06	-45639.1	955.819	-29772.3	0.000000	0.000000	7.056375	166.051	NaN	0.000000	0.001550	0.001654	28.0896	54.8298	0.001864	29409.9	8.093526	173.004	165.525	1.049183	0.056140	0.055766	166.051	29409.9	0.051906	0.098394	1687.6	85660.8
140	2.000000	1.051558	7.36641e+06	-45639.1	955.818	-29772.3	0.000000	0.000000	7.058742	174.97	NaN	0.000000	0.001530	0.001643	28.0887	57.4215	0.001853	30982.7	8.232271	171.816	174.197	1.051170	0.058141	0.057753	174.97	30982.7	0.053905	0.104865	1668.53	87413.2
140	2.000000	1.053529	7.36641e+06	-45639.1	955.819	-29772.3	0.000000	0.000000	7.061229	187.519	NaN	0.000000	0.001514	0.001636	28.0903	57.0654	0.001738	32833.4	4.264562	174.37	184.856	1.053221	0.060112	0.059804	187.519	32833.4	0.055828	0.111275	1685.19	89927
140	2.000000	1.055539	7.36641e+06	-45639.1	955.82	-29772.3	0.000000	0.000000	7.063503	193.94	NaN	0.000000	0.001541	0.001677	28.09	60.4185	0.001870	32314.5	5.276627	174.35	193.789	1.055239	0.062121	0.061822	193.94	32314.5	0.057620	0.117413	1651.78	86161.3
140	2.000000	1.057489	7.36641e+06	-45639.1	955.819	-29772.3	0.000000	0.000000	7.066141	210.676	NaN	0.000000	0.001544	0.001675	28.09	61.3946	0.001721	35673.9	5.059691	173.408	207.298	1.057195	0.064071	0.063778	210.676	35673.9	0.059642	0.124529	1691.79	92361
140	2.000000	1.059430	7.36641e+06	-45639.1	955.819	-29772.3	0.000000	0.000000	7.068512	221.151	NaN	0.000000	0.001554	0.001680	28.0909	63.1727	0.001859	33976.8	4.953279	174.297	216.257	1.059108	0.066012	0.065690	221.151	33976.8	0.061131	0.129894	1702.55	86131.3
140	2.000000	1.061528	7.36641e+06	-45639.1	955.819	-29772.3	0.000000	0.000000	7.071039	231.585	NaN	0.000000	0.001531	0.001623	28.0901	65.1397	0.001689	38564.6	5.777567	172.736	232.776	1.061168	0.068110	0.067750	231.585	38564.6	0.063606	0.139057	1665.4	94485.7
140	2.000000	1.063444	7.36641e+06	-45639.1	955.819	-29772.3	0.000000	0.000000	7.073588	246.991	NaN	0.000000	0.001541	0.001689	28.0905	65.7495	0.001732	37965.4	3.901309	174.607	243.634	1.063104	0.070026	0.069687	246.991	37965.4	0.065147	0.144909	1704.46	91120
140	2.000000	1.065382	7.36641e+06	-45639.1	955.819	-29772.3	0.000000	0.000000	7.075882	255.638	NaN	0.000000	0.001556	0.001712	28.0897	68.9099	0.001765	39049.5	3.487662	174.336	249.017	1.065068	0.071965	0.071650	255.638	39049.5	0.067055	0.152315	1678.35	91415.1
140	2.000000	1.067474	7.36641e+06	-45639.1	955.819	-29772.3	0.000000	0.000000	7.078525	269.064	NaN	0.000000	0.001579	0.001712	28.0894	71.5477	0.001812	39477.5	3.825251	173.588	265.227	1.067199	0.074056	0.073781	269.064	39477.5	0.068944	0.159819	1683.55	90221
140	2.000000	1.069472	7.36641e+06	-45639.1	955.819	-29772.3	0.000000	0.000000	7.081084	282.676	NaN	0.000000	0.001538	0.001727	28.089	72.4871	0.001816	39923.9	3.304538	174.994	279.011	1.069130	0.076054	0.075713	282.676	39923.9	0.070744	0.167128	1691.37	89223.8
140	2.000000	1.071648	7.36641e+06	-45639.1	955.819	-29772.3	0.000000	0.000000	7.083352	284.944	NaN	0.000000	0.001580	0.001720	28.0889	76.6936	0.001864	41133.7	6.536133	170.894	292.767	1.071275	0.078230	0.077857	284.944	41133.7	0.073035	0.176651	1613.04	89415.7
140	2.000000	1.073460	7.36641e+06	-45639.1	955.819	-29772.3	0.000000	0.000000	7.086015	305.621	NaN	0.000000	0.001608	0.001714	28.0911	76.6147	0.001861	41159.3	6.778075	171.176	301.587	1.073103	0.080042	0.079686	305.621	41159.3	0.074473	0.182760	1672.25	87963.1
140	2.000000	1.075510	7.36641e+06	-45639.1	955.82	-29772.3	0.000000	0.000000	7.088620	319.117	NaN	0.000000	0.001545	0.001713	28.0913	78.2798	0.001779	44014.4	2.846810	174.3	318.324	1.075151	0.082093	0.081734	319.117	44014.4	0.076655	0.192208	1660.27	91724
140	2.000000	1.077483	7.36641e+06	-45639.1	955.819	-29772.3	0.000000	0.000000	7.091207	334.06	NaN	0.000000	0.001549	0.001733	28.0913	80.7057	0.001828	44142.8	3.918777	173.571	329.142	1.077228	0.084066	0.083810	334.06	44142.8	0.078390	0.199882	1671.29	90208.2
140	2.000000	1.079472	7.36641e+06	-45639.1	955.819	-29772.3	0.000000	0.000000	7.093902	351.226	NaN	0.000000	0.001568	0.001721	28.0928	81.9303	0.001742	47032.4	3.641474	172.6	347.288	1.079127	0.086055	0.085709	351.226	47032.4	0.080454	0.209193	1678.96	93950
140	2.000000	1.081450	7.36641e+06	-45639.1	955.82	-29772.3	0.000000	0.000000	7.096229	359.731	NaN	0.000000	0.001571	0.001736	28.0916	84.8327	0.001891	44857	2.336971	174.643	355.955	1.081215	0.088032	0.087797	359.731	44857	0.082018	0.216380	1662.5	88103.8
140	2.000000	1.083536	7.36641e+06	-45639.1	955.82	-29772.3	0.000000	0.000000	7.099251	382.502	NaN	0.000000	0.001543	0.001735	28.0906	85.3128	0.001827	46689.8	3.897560	173.474	383.862	1.083121	0.090118	0.089704	382.502	46689.8	0.083974	0.225532	1696	89823.8
140	2.000000	1.085473	7.36641e+06	-45639.1	955.82	-29772.3	0.000000	0.000000	7.101740	395.935	NaN	0.000000	0.001541	0.001746	28.0916	86.2629	0.001854	46522.9	2.042921	174.95	393.344	1.085175	0.092055	0.091758	395.935	46522.9	0.085672	0.233618	1694.8	87940.1
140	2.000000	1.087428	7.36641e+06	-45639.1	955.819	-29772.3	0.000000	0.000000	7.104242	409.247	NaN	0.000000	0.001523	0.001705	28.0901	88.6295	0.001805	49113.6	5.040110	171.003	403.488	1.087156	0.094010	0.093739	409.247	49113.6	0.087761	0.243746	1678.99	90888
140	2.000000	1.089468	7.36641e+06	-45639.1	955.819	-29772.3	0.000000	0.000000	7.106874	423.645	NaN	0.000000	0.001580	0.001741	28.0901	89.9307	0.001769	50839.3	5.522339	170.289	422.293	1.089229	0.096050	0.095811	423.645	50839.3	0.089801	0.253833	1668.99	92193.1
140	2.000000	1.091477	7.36641e+06	-45639.1	955.819	-29772.3	0.000000	0.000000	7.109580	440.586	NaN	0.000000	0.001567	0.001764	28.0891	93.1591	0.001889	49318.2	3.018700	173.374	438.576	1.091120	0.098060	0.097702	440.586	49318.2	0.091359	0.261669	1683.75	88085.5
140	2.000000	1.093591	7.36641e+06	-45639.1	955.82	-29772.3	0.000000	0.000000	7.112235	453.742	NaN	0.000000	0.001535	0.001761	28.0905	94.6384	0.001842	51365.1	5.817928	170.429	456.379	1.093163	0.100174	0.099745	453.742	51365.1	0.093548	0.272861	1662.91	89840.3
140	2.000000	1.095523	7.36641e+06	-45639.1	955.82	-29772.3	0.000000	0.000000	7.114958	473.004	NaN	0.000000	0.001537	0.001700	28.0897	96.3857	0.001702	56633	6.143971	169.204	474.857	1.095129	0.102105	0.101712	473.004	56633	0.095841	0.284817	1660.73	96952.8
140	2.000000	1.097554	7.36641e+06	-45639.1	955.818	-29772.3	0.000000	0.000000	7.117643	488.9	NaN	0.000000	0.001567	0.001702	28.0903	99.4138	0.001789	55578.9	5.133966	170.819	488.546	1.097162	0.104136	0.103744	488.9	55578.9	0.097539	0.293828	1663.9	93677.8
140	2.000000	1.099386	7.36641e+06	-45639.1	955.819	-29772.3	0.000000	0.000000	7.120140	505.084	NaN	0.000000	0.001516	0.001735	28.0908	100.663	0.001868	53889.5	3.294552	172.487	499.6	1.099133	0.105968	0.105716	505.084	53889.5	0.098939	0.301353	1676.05	89689.1