File: remote_trans/data/nanoindenter/0828-1/data/Data_2025-08-06,11h17m57s/2025-07-22_16-23-58_1_102.txt
2025-07-22, 16:23:58, 1
Index	Phase	Displacement	Time	Pos X	Pos Y	Pos Z	Rot A	Rot B	Piezo Z	Force A	Force B	Gripper	Voltage A	Voltage B	Temperature	Amplitude force	Amplitude pos	Stiffness	Phase shift	Phase excitation	Force A raw	Displacement raw	HMax	HMax raw	Real Force	Real Stiffness	Contact Depth	Area	Hardness	Reduced Mod.
[#]	[#]	[um]	[s]	[um]	[um]	[um]	[m°]	[m°]	[um]	[uN]	[uN]	[V]	[V]	[V]	[°C]	[uN]	[um]	[N/m]	[°]	[°]	[uN]	[um]	[um]	[um]	[uN]	[N/m]	[um]	[um^2]	[MPa]	[MPa]
102	1.000000	0.002233	7.36603e+06	-43739.1	955.818	-29778.5	0.000000	0.000000	6.002782	-0.002927	NaN	0.000000	0.001583	0.001616	28.0868	0.071275	0.000992	71.8756	-95.3306	-174.565	-0.047343	0.001004	-1.092483	-1.093712	-0.002927	71.8756	-1.092452	-3.969507E+14	7.372830E-18	NaN
102	1.000000	0.012308	7.36603e+06	-43739.1	955.819	-29778.5	0.000000	0.000000	6.012856	-0.013805	NaN	0.000000	0.001592	0.001614	28.1274	0.027354	0.001245	21.9767	-57.1702	16.8168	-0.024941	0.010878	-1.082409	-1.083838	-0.013805	21.9767	-1.081937	-2.867745E+14	4.814000E-17	NaN
102	1.000000	0.022181	7.36603e+06	-43739.1	955.818	-29778.5	0.000000	0.000000	6.022730	0.003796	NaN	0.000000	0.001567	0.001614	28.1113	0.017625	0.001838	9.590387	-113.957	-166.34	-0.051161	0.020909	-1.072535	-1.073807	0.003796	9.590387	-1.072832	-2.163884E+14	-1.754108E-17	NaN
102	1.000000	0.032208	7.36603e+06	-43739.1	955.818	-29778.5	0.000000	0.000000	6.032754	-0.060694	NaN	0.000000	0.001560	0.001625	28.0833	0.086143	0.001867	46.1505	142.311	14.576	-0.113244	0.030835	-1.062508	-1.063881	-0.060694	46.1505	-1.061522	-1.525000E+14	3.979918E-16	NaN
102	1.000000	0.042182	7.36603e+06	-43739.1	955.819	-29778.5	0.000000	0.000000	6.042732	0.027529	NaN	0.000000	0.001590	0.001657	28.0884	0.102402	0.002001	51.1765	-32.4539	-164.349	0.064434	0.040960	-1.052534	-1.053756	0.027529	51.1765	-1.052938	-1.169241E+14	-2.354471E-16	NaN
102	1.000000	0.052181	7.36603e+06	-43739.1	955.819	-29778.6	0.000000	0.000000	6.052733	0.071373	NaN	0.000000	0.001591	0.001670	28.1274	0.063758	0.001869	34.1198	37.754	11.8877	0.011839	0.050894	-1.042535	-1.043822	0.071373	34.1198	-1.044104	-8.895020E+13	-8.023893E-16	NaN
102	1.000000	0.062216	7.36603e+06	-43739.1	955.818	-29778.6	0.000000	0.000000	6.062762	-0.064661	NaN	0.000000	0.001584	0.001621	28.1128	0.107490	0.001958	54.8948	-152.187	-166.005	0.011994	0.060910	-1.032500	-1.033806	-0.064661	54.8948	-1.031617	-6.042686E+13	1.070066E-15	NaN
102	1.000000	0.072196	7.36603e+06	-43739.1	955.819	-29778.6	0.000000	0.000000	6.072744	-0.023794	NaN	0.000000	0.001557	0.001626	28.0828	0.039819	0.002063	19.3043	-116.347	13.9652	-0.069048	0.070832	-1.022520	-1.023885	-0.023794	19.3043	-1.021596	-4.430228E+13	5.370788E-16	NaN
102	1.000000	0.082209	7.36603e+06	-43739.1	955.818	-29778.6	0.000000	0.000000	6.082757	-0.019923	NaN	0.000000	0.001554	0.001652	28.0878	0.010802	0.002169	4.980043	-71.2285	-163.613	-0.076169	0.080900	-1.012507	-1.013816	-0.019923	4.980043	-1.009506	-3.046051E+13	6.540621E-16	NaN
102	1.000000	0.092237	7.36603e+06	-43739.1	955.817	-29778.6	0.000000	0.000000	6.092787	0.008520	NaN	0.000000	0.001600	0.001621	28.1283	0.037055	0.001913	19.3743	-98.1661	14.7209	0.020942	0.090771	-1.002479	-1.003945	0.008520	19.3743	-1.002809	-2.475026E+13	-3.442463E-16	NaN
102	1.000000	0.102206	7.36603e+06	-43739.1	955.818	-29778.6	0.000000	0.000000	6.102754	-0.022963	NaN	0.000000	0.001611	0.001592	28.1137	0.099465	0.002027	49.0768	-94.506	-167.105	0.029322	0.100924	-0.992510	-0.993792	-0.022963	49.0768	-0.992159	-1.779071E+13	1.290723E-15	NaN
102	1.000000	0.112247	7.36603e+06	-43739.1	955.818	-29778.6	0.000000	0.000000	6.112796	-0.005001	NaN	0.000000	0.001602	0.001615	28.084	0.110989	0.001938	57.268	-101.248	11.4554	0.056431	0.110829	-0.982469	-0.983887	-0.005001	57.268	-0.982403	-1.314586E+13	3.804554E-16	NaN
102	1.000000	0.122232	7.36603e+06	-43739.1	955.818	-29778.6	0.000000	0.000000	6.122781	0.017041	NaN	0.000000	0.001620	0.001632	28.0898	0.095303	0.002016	47.2626	-167.608	-168.787	0.009563	0.120947	-0.972484	-0.973769	0.017041	47.2626	-0.972755	-9.745156E+12	-1.748633E-15	NaN
102	1.000000	0.132249	7.36603e+06	-43739.1	955.818	-29778.6	0.000000	0.000000	6.132798	-0.001570	NaN	0.000000	0.001635	0.001659	28.1266	0.086511	0.001974	43.8343	-99.3378	15.5666	-0.045048	0.130899	-0.962467	-0.963817	-0.001570	43.8343	-0.962440	-7.075666E+12	2.219262E-16	NaN
102	1.000000	0.142222	7.36603e+06	-43739.1	955.818	-29778.6	0.000000	0.000000	6.142770	-0.024638	NaN	0.000000	0.001596	0.001676	28.1123	0.090236	0.002033	44.3912	-154.393	-165.699	-0.101305	0.140921	-0.952494	-0.953795	-0.024638	44.3912	-0.952078	-5.129255E+12	4.803357E-15	NaN
102	1.000000	0.152266	7.36603e+06	-43739.1	955.818	-29778.6	0.000000	0.000000	6.152817	0.060401	NaN	0.000000	0.001608	0.001684	28.0827	0.082515	0.001942	42.4831	142.875	14.8876	0.019008	0.150863	-0.942450	-0.943854	0.060401	42.4831	-0.943516	-3.931656E+12	-1.536286E-14	NaN
102	1.000000	0.162276	7.36603e+06	-43739.1	955.818	-29778.6	0.000000	0.000000	6.162824	-0.009128	NaN	0.000000	0.001575	0.001688	28.0878	0.068938	0.002022	34.0994	104.515	-166.346	0.016811	0.160892	-0.932440	-0.933824	-0.009128	34.0994	-0.932240	-2.769648E+12	3.295616E-15	NaN
102	1.000000	0.172242	7.36603e+06	-43739.1	955.818	-29778.6	0.000000	0.000000	6.172792	0.027330	NaN	0.000000	0.001595	0.001681	28.1265	0.009058	0.002000	4.527865	-170.4	11.8274	0.015987	0.170962	-0.922474	-0.923754	0.027330	4.527865	-0.927001	-2.353505E+12	-1.161253E-14	NaN
102	1.000000	0.182243	7.36603e+06	-43739.1	955.819	-29778.6	0.000000	0.000000	6.182792	0.010427	NaN	0.000000	0.001532	0.001656	28.1123	0.131389	0.001964	66.9114	172.899	-170.188	0.036259	0.180943	-0.912473	-0.913773	0.010427	66.9114	-0.912590	-1.503651E+12	-6.934243E-15	NaN
102	1.000000	0.192267	7.36603e+06	-43739.1	955.818	-29778.6	0.000000	0.000000	6.192817	0.028244	NaN	0.000000	0.001545	0.001617	28.0822	0.138892	0.002024	68.6295	-78.1546	16.9765	0.007182	0.190860	-0.902449	-0.903856	0.028244	68.6295	-0.902758	-1.107456E+12	-2.550317E-14	NaN
102	1.000000	0.202250	7.36603e+06	-43739.1	955.819	-29778.6	0.000000	0.000000	6.202794	-0.124150	NaN	0.000000	0.001552	0.001645	28.0878	0.038314	0.001877	20.4099	174.376	-165.062	-0.114449	0.200966	-0.892466	-0.893750	-0.124150	20.4099	-0.887903	-6.975472E+11	1.779811E-13	NaN
102	1.000000	0.212267	7.36603e+06	-43739.1	955.819	-29778.6	0.000000	0.000000	6.212817	0.027458	NaN	0.000000	0.001602	0.001673	28.1252	0.121835	0.002058	59.2025	48.7174	11.0166	-0.008686	0.210891	-0.882449	-0.883825	0.027458	59.2025	-0.882797	-5.950116E+11	-4.614714E-14	NaN
102	1.000000	0.222258	7.36604e+06	-43739.1	955.818	-29778.6	0.000000	0.000000	6.222806	-0.013501	NaN	0.000000	0.001558	0.001642	28.1122	0.046056	0.002080	22.1432	55.7687	-165.443	-0.064631	0.221003	-0.872458	-0.873714	-0.013501	22.1432	-0.872001	-4.251212E+11	3.175837E-14	NaN
102	1.000000	0.232281	7.36604e+06	-43739.1	955.818	-29778.6	0.000000	0.000000	6.232829	-0.027293	NaN	0.000000	0.001614	0.001642	28.0807	0.027953	0.002024	13.8143	43.2101	16.4895	-0.005533	0.230962	-0.862435	-0.863754	-0.027293	13.8143	-0.860953	-3.013135E+11	9.057846E-14	NaN
102	1.000000	0.242275	7.36604e+06	-43739.1	955.818	-29778.6	0.000000	0.000000	6.242822	-0.040145	NaN	0.000000	0.001589	0.001687	28.0863	0.035881	0.002121	16.9184	-47.7508	-170.113	-0.041242	0.240994	-0.852441	-0.853723	-0.040145	16.9184	-0.850662	-2.186239E+11	1.836271E-13	NaN
102	1.000000	0.252296	7.36604e+06	-43739.1	955.819	-29778.6	0.000000	0.000000	6.252846	0.025778	NaN	0.000000	0.001581	0.001706	28.126	0.039351	0.002003	19.6472	108.413	15.3213	0.031414	0.250910	-0.842420	-0.843806	0.025778	19.6472	-0.843404	-1.743460E+11	-1.478563E-13	NaN
102	1.000000	0.262287	7.36604e+06	-43739.1	955.818	-29778.6	0.000000	0.000000	6.262836	-0.000245	NaN	0.000000	0.001570	0.001706	28.1127	0.120556	0.002018	59.7496	-177.746	-166.655	0.005140	0.260947	-0.832429	-0.833770	-0.000245	59.7496	-0.832426	-1.237852E+11	1.975793E-15	NaN
102	1.000000	0.272295	7.36604e+06	-43739.1	955.818	-29778.6	0.000000	0.000000	6.272842	-0.047798	NaN	0.000000	0.001523	0.001715	28.0821	0.040107	0.002150	18.6522	85.5529	15.0468	-0.052093	0.270950	-0.822421	-0.823766	-0.047798	18.6522	-0.820500	-8.530711E+10	5.602991E-13	NaN
102	1.000000	0.282310	7.36604e+06	-43739.1	955.817	-29778.6	0.000000	0.000000	6.282859	-0.006831	NaN	0.000000	0.001582	0.001731	28.0863	0.111724	0.002007	55.6707	-63.6327	-166.425	-0.014987	0.281000	-0.812406	-0.813716	-0.006831	55.6707	-0.812314	-6.606318E+10	1.034063E-13	NaN
102	1.000000	0.292288	7.36604e+06	-43739.1	955.818	-29778.6	0.000000	0.000000	6.292837	-0.016252	NaN	0.000000	0.001548	0.001687	28.1248	0.045984	0.001948	23.6119	78.8934	12.8181	-0.009852	0.290976	-0.802428	-0.803740	-0.016252	23.6119	-0.801912	-4.773202E+10	3.404874E-13	NaN
102	1.000000	0.302305	7.36604e+06	-43739.1	955.818	-29778.6	0.000000	0.000000	6.302854	-0.002747	NaN	0.000000	0.001570	0.001697	28.1118	0.056913	0.001970	28.8883	1.291627	-168.514	-0.007636	0.300997	-0.792411	-0.793719	-0.002747	28.8883	-0.792340	-3.538826E+10	7.761123E-14	NaN
102	1.000000	0.312326	7.36604e+06	-43739.1	955.818	-29778.6	0.000000	0.000000	6.312875	0.011618	NaN	0.000000	0.001591	0.001642	28.0827	0.078749	0.002012	39.1403	-17.2167	16.045	-0.032895	0.310926	-0.782390	-0.783790	0.011618	39.1403	-0.782613	-2.610566E+10	-4.450286E-13	NaN
102	1.000000	0.322309	7.36604e+06	-43739.1	955.818	-29778.6	0.000000	0.000000	6.322856	-0.035879	NaN	0.000000	0.001648	0.001645	28.0876	0.142246	0.001935	73.5309	81.8557	-165.657	0.010414	0.320965	-0.772407	-0.773751	-0.035879	73.5309	-0.772041	-1.875255E+10	1.913307E-12	NaN
102	1.000000	0.332363	7.36604e+06	-43739.1	955.818	-29778.6	0.000000	0.000000	6.332910	-0.046072	NaN	0.000000	0.001579	0.001655	28.1277	0.035644	0.001976	18.0354	175.464	14.85	0.024040	0.330990	-0.762353	-0.763726	-0.046072	18.0354	-0.760437	-1.303919E+10	3.533356E-12	NaN
102	1.000000	0.342306	7.36604e+06	-43739.1	955.818	-29778.6	0.000000	0.000000	6.342857	0.062729	NaN	0.000000	0.001568	0.001649	28.1144	0.121454	0.001978	61.3934	34.1379	-167.502	0.018447	0.341010	-0.752410	-0.753706	0.062729	61.3934	-0.753177	-1.038622E+10	-6.039662E-12	NaN
102	1.000000	0.352350	7.36604e+06	-43739.1	955.818	-29778.6	0.000000	0.000000	6.352902	0.091471	NaN	0.000000	0.001586	0.001674	28.0832	0.115032	0.002049	56.1271	54.37	13.3066	0.014950	0.350964	-0.742366	-0.743752	0.091471	56.1271	-0.743589	-7.690095E+9	-1.189470E-11	NaN
102	1.000000	0.362354	7.36604e+06	-43739.1	955.819	-29778.6	0.000000	0.000000	6.362903	0.004056	NaN	0.000000	0.001570	0.001646	28.0884	0.022084	0.001817	12.1568	56.9084	-166.105	-0.013392	0.361034	-0.732362	-0.733682	0.004056	12.1568	-0.732612	-5.450116E+9	-7.442271E-13	NaN
102	1.000000	0.372380	7.36604e+06	-43739.1	955.818	-29778.6	0.000000	0.000000	6.372929	-0.004881	NaN	0.000000	0.001551	0.001624	28.1262	0.046786	0.002037	22.9697	44.5039	13.823	0.058592	0.370969	-0.722336	-0.723747	-0.004881	22.9697	-0.722177	-3.927869E+9	1.242652E-12	NaN
102	1.000000	0.382345	7.36604e+06	-43739.1	955.818	-29778.6	0.000000	0.000000	6.382894	0.014672	NaN	0.000000	0.001581	0.001647	28.1132	0.089066	0.001997	44.6094	84.8607	-165.446	0.020330	0.381053	-0.712372	-0.713663	0.014672	44.6094	-0.712618	-2.909219E+9	-5.043256E-12	NaN
102	1.000000	0.392355	7.36604e+06	-43739.1	955.818	-29778.6	0.000000	0.000000	6.392903	-0.011740	NaN	0.000000	0.001595	0.001690	28.0826	0.053164	0.002066	25.7316	-111.055	12.9881	-0.067515	0.390982	-0.702361	-0.703735	-0.011740	25.7316	-0.702019	-2.084973E+9	5.630878E-12	NaN
102	1.000000	0.402382	7.36604e+06	-43739.1	955.818	-29778.6	0.000000	0.000000	6.402930	-0.017222	NaN	0.000000	0.001556	0.001664	28.0867	0.029147	0.002091	13.9373	-114.849	-163.165	0.019121	0.401046	-0.692334	-0.693670	-0.017222	13.9373	-0.691408	-1.493323E+9	1.153284E-11	NaN
102	1.000000	0.412347	7.36604e+06	-43739.1	955.818	-29778.6	0.000000	0.000000	6.412893	-0.069022	NaN	0.000000	0.001596	0.001700	28.1271	0.083657	0.001888	44.3079	64.1096	11.8758	-0.071787	0.411040	-0.682369	-0.683676	-0.069022	44.3079	-0.681201	-1.083002E+9	6.373228E-11	NaN
102	1.000000	0.422380	7.36604e+06	-43739.1	955.819	-29778.6	0.000000	0.000000	6.422929	0.014476	NaN	0.000000	0.001570	0.001664	28.115	0.074300	0.002043	36.3698	84.4171	-167.719	-0.107630	0.421035	-0.672336	-0.673681	0.014476	36.3698	-0.672635	-8.268870E+8	-1.750680E-11	NaN
102	1.000000	0.432377	7.36604e+06	-43739.1	955.818	-29778.6	0.000000	0.000000	6.432926	0.002563	NaN	0.000000	0.001594	0.001670	28.0839	0.037934	0.001992	19.0458	12.8412	12.5487	0.018019	0.431043	-0.662339	-0.663673	0.002563	19.0458	-0.662440	-5.996421E+8	-4.274957E-12	NaN
102	1.000000	0.442371	7.36604e+06	-43739.1	955.818	-29778.6	0.000000	0.000000	6.442918	-0.031403	NaN	0.000000	0.001585	0.001604	28.0864	0.030564	0.001881	16.2451	90.907	-167.317	-0.068181	0.441057	-0.652345	-0.653660	-0.031403	16.2451	-0.650896	-4.165946E+8	7.537910E-11	NaN
102	1.000000	0.452373	7.36604e+06	-43739.1	955.819	-29778.6	0.000000	0.000000	6.452922	-0.017465	NaN	0.000000	0.001567	0.001654	28.1243	0.066447	0.001872	35.4948	27.3655	12.2112	0.028322	0.450996	-0.642343	-0.643720	-0.017465	35.4948	-0.641974	-3.143170E+8	5.556413E-11	NaN
102	1.000000	0.462379	7.36604e+06	-43739.1	955.817	-29778.6	0.000000	0.000000	6.462926	-0.050910	NaN	0.000000	0.001616	0.001671	28.1125	0.065258	0.001997	32.6716	-1.440683	-167.1	-0.028235	0.461071	-0.632337	-0.633645	-0.050910	32.6716	-0.631169	-2.233944E+8	2.278920E-10	NaN
102	1.000000	0.472396	7.36604e+06	-43739.1	955.818	-29778.6	0.000000	0.000000	6.472948	0.065772	NaN	0.000000	0.001577	0.001638	28.08	0.042945	0.001947	22.0561	-61.2287	15.544	0.010644	0.471021	-0.622320	-0.623695	0.065772	22.0561	-0.624556	-1.812384E+8	-3.629023E-10	NaN
102	1.000000	0.482337	7.36604e+06	-43739.1	955.818	-29778.6	0.000000	0.000000	6.482886	0.018319	NaN	0.000000	0.001566	0.001667	28.0847	0.022795	0.001952	11.6777	116.961	-165.889	-0.002672	0.481038	-0.612380	-0.613678	0.018319	11.6777	-0.613556	-1.279478E+8	-1.431733E-10	NaN
102	1.000000	0.492400	7.36604e+06	-43739.1	955.818	-29778.6	0.000000	0.000000	6.492948	-0.020293	NaN	0.000000	0.001569	0.001637	28.1251	0.087954	0.001976	44.5153	-134.22	13.6135	-0.051494	0.491016	-0.602316	-0.603700	-0.020293	44.5153	-0.601974	-8.864311E+7	2.289267E-10	NaN
102	1.000000	0.502453	7.36604e+06	-43739.1	955.818	-29778.6	0.000000	0.000000	6.503001	-0.020285	NaN	0.000000	0.001548	0.001673	28.1137	0.058056	0.001886	30.7898	-111.324	-161.692	-0.004597	0.501083	-0.592263	-0.593633	-0.020285	30.7898	-0.591769	-6.412839E+7	3.163160E-10	NaN
102	1.000000	0.512413	7.36604e+06	-43739.1	955.818	-29778.6	0.000000	0.000000	6.512963	0.018848	NaN	0.000000	0.001567	0.001655	28.0812	0.075026	0.001938	38.7216	10.9897	13.2016	0.011761	0.511043	-0.582303	-0.583673	0.018848	38.7216	-0.582668	-4.803292E+7	-3.924020E-10	NaN
102	1.000000	0.522390	7.36604e+06	-43739.1	955.818	-29778.6	0.000000	0.000000	6.522939	-0.005364	NaN	0.000000	0.001563	0.001654	28.0861	0.157651	0.001989	79.2772	-134.956	-165.48	0.023193	0.521085	-0.572326	-0.573631	-0.005364	79.2772	-0.572275	-3.451972E+7	1.554020E-10	NaN
102	1.000000	0.532434	7.36604e+06	-43739.1	955.818	-29778.6	0.000000	0.000000	6.532984	0.014295	NaN	0.000000	0.001549	0.001635	28.1238	0.084033	0.002015	41.6995	-31.9399	10.942	0.055722	0.531020	-0.562282	-0.563696	0.014295	41.6995	-0.562539	-2.532183E+7	-5.645128E-10	NaN
102	1.000000	0.542405	7.36604e+06	-43739.1	955.819	-29778.6	0.000000	0.000000	6.542951	-0.048875	NaN	0.000000	0.001549	0.001632	28.1123	0.037303	0.001834	20.3406	112.44	-165.289	-0.040893	0.541078	-0.552311	-0.553638	-0.048875	20.3406	-0.550509	-1.725882E+7	2.831865E-9	NaN
102	1.000000	0.552396	7.36604e+06	-43739.1	955.818	-29778.6	0.000000	0.000000	6.552944	-0.014571	NaN	0.000000	0.001560	0.001657	28.0795	0.065478	0.001994	32.8425	-66.1374	13.3216	-0.079805	0.551105	-0.542320	-0.543611	-0.014571	32.8425	-0.541987	-1.314966E+7	1.108089E-9	NaN
102	1.000000	0.562413	7.36604e+06	-43739.1	955.818	-29778.6	0.000000	0.000000	6.562958	-0.074415	NaN	0.000000	0.001555	0.001671	28.0846	0.060084	0.001977	30.3944	-66.2544	-162.832	-0.127620	0.561113	-0.532303	-0.533603	-0.074415	30.3944	-0.530467	-9.10046e+06	8.177093E-9	NaN
102	1.000000	0.572409	7.36604e+06	-43739.1	955.818	-29778.6	0.000000	0.000000	6.572959	0.023120	NaN	0.000000	0.001573	0.001678	28.1248	0.118823	0.002111	56.2982	-11.8622	13.2164	0.004498	0.571084	-0.522307	-0.523632	0.023120	56.2982	-0.522615	-7.07888e+06	-3.266023E-9	NaN
102	1.000000	0.582419	7.36604e+06	-43739.1	955.818	-29778.6	0.000000	0.000000	6.582970	0.044136	NaN	0.000000	0.001538	0.001692	28.1151	0.112047	0.002073	54.0635	3.801313	-164.416	0.032598	0.581149	-0.512297	-0.513567	0.044136	54.0635	-0.512909	-5.18712e+06	-8.508708E-9	NaN
102	1.000000	0.592432	7.36604e+06	-43739.1	955.818	-29778.6	0.000000	0.000000	6.592980	-0.013392	NaN	0.000000	0.001555	0.001668	28.0829	0.057385	0.001997	28.7422	-53.0558	14.6716	0.029175	0.591072	-0.502285	-0.503644	-0.013392	28.7422	-0.501935	-3.64762e+06	3.671553E-9	NaN
102	1.000000	0.602458	7.36604e+06	-43739.1	955.819	-29778.6	0.000000	0.000000	6.603005	-0.037582	NaN	0.000000	0.001552	0.001658	28.0859	0.058202	0.002068	28.1426	3.947086	-163.859	-0.025329	0.601142	-0.492258	-0.493574	-0.037582	28.1426	-0.491257	-2.58793e+06	1.452185E-8	NaN
102	1.000000	0.612433	7.36604e+06	-43739.1	955.819	-29778.6	0.000000	0.000000	6.612981	-0.006755	NaN	0.000000	0.001514	0.001655	28.1248	0.062067	0.002053	30.2275	-36.8833	10.7828	0.015495	0.611124	-0.482283	-0.483592	-0.006755	30.2275	-0.482116	-1.92815e+06	3.503225E-9	NaN
102	1.000000	0.622446	7.36604e+06	-43739.1	955.818	-29778.6	0.000000	0.000000	6.622996	0.030222	NaN	0.000000	0.001535	0.001665	28.1154	0.020508	0.001951	10.5143	167.284	-166.721	-0.014547	0.621150	-0.472270	-0.473566	0.030222	10.5143	-0.474426	-1.50473e+06	-2.008486E-8	NaN
102	1.000000	0.632460	7.36604e+06	-43739.1	955.818	-29778.6	0.000000	0.000000	6.633009	0.016854	NaN	0.000000	0.001560	0.001630	28.0827	0.051813	0.002054	25.2217	-124.086	16.5776	-0.022262	0.631117	-0.462256	-0.463599	0.016854	25.2217	-0.462758	-1.03219e+06	-1.632800E-8	NaN
102	1.000000	0.642438	7.36604e+06	-43739.1	955.818	-29778.6	0.000000	0.000000	6.642986	-0.002950	NaN	0.000000	0.001570	0.001666	28.0857	0.119476	0.002052	58.2343	-64.2087	-168.8	-0.037750	0.641078	-0.452279	-0.453638	-0.002950	58.2343	-0.452241	-734324	4.016762E-9	NaN
102	1.000000	0.652475	7.36604e+06	-43739.1	955.818	-29778.6	0.000000	0.000000	6.653023	-0.036438	NaN	0.000000	0.001551	0.001640	28.1255	0.017361	0.001966	8.830900	-132.037	13.7587	-0.012933	0.651113	-0.442241	-0.443603	-0.036438	8.830900	-0.439146	-480078	7.590046E-8	NaN
102	1.000000	0.662444	7.36604e+06	-43739.1	955.818	-29778.6	0.000000	0.000000	6.662994	0.022353	NaN	0.000000	0.001562	0.001640	28.1159	0.036160	0.002047	17.6619	-96.1664	-169.402	-0.040681	0.661141	-0.432272	-0.433575	0.022353	17.6619	-0.433221	-395924	-5.645786E-8	NaN
102	1.000000	0.672483	7.36604e+06	-43739.1	955.817	-29778.6	0.000000	0.000000	6.673031	-0.037803	NaN	0.000000	0.001528	0.001643	28.0841	0.083707	0.001956	42.7998	73.3333	12.2723	-0.053861	0.671102	-0.422233	-0.423614	-0.037803	42.7998	-0.421570	-270821	1.395877E-7	NaN
102	1.000000	0.682482	7.36604e+06	-43739.1	955.819	-29778.6	0.000000	0.000000	6.683031	0.001422	NaN	0.000000	0.001527	0.001649	28.0857	0.145258	0.002038	71.2825	-58.8433	-166.68	-0.018452	0.681119	-0.412234	-0.413597	0.001422	71.2825	-0.412249	-199700	-7.118567E-9	NaN
102	1.000000	0.692485	7.36604e+06	-43739.1	955.818	-29778.6	0.000000	0.000000	6.693031	-0.047165	NaN	0.000000	0.001541	0.001642	28.1248	0.146482	0.002062	71.0345	-108.63	11.1498	-0.094234	0.691097	-0.402232	-0.403619	-0.047165	71.0345	-0.401734	-141485	3.333572E-7	NaN
102	1.000000	0.702496	7.36604e+06	-43739.1	955.819	-29778.6	0.000000	0.000000	6.703043	-0.025680	NaN	0.000000	0.001573	0.001636	28.1148	0.047759	0.001973	24.205	-100.3	-169.021	0.052136	0.701163	-0.392221	-0.393553	-0.025680	24.205	-0.391425	-100820	2.547148E-7	NaN
102	1.000000	0.712504	7.36604e+06	-43739.1	955.818	-29778.6	0.000000	0.000000	6.713051	-0.055409	NaN	0.000000	0.001539	0.001658	28.081	0.071262	0.002051	34.7434	-73.2788	13.7925	0.012047	0.711199	-0.382212	-0.383517	-0.055409	34.7434	-0.381016	-71525.5	7.746736E-7	NaN
102	1.000000	0.722507	7.36604e+06	-43739.1	955.818	-29778.6	0.000000	0.000000	6.723057	0.037625	NaN	0.000000	0.001577	0.001677	28.0847	0.058393	0.001920	30.4066	-156.226	-168.658	0.055641	0.721177	-0.372209	-0.373539	0.037625	30.4066	-0.373137	-55116.5	-6.826402E-7	NaN
102	1.000000	0.732507	7.36604e+06	-43739.1	955.819	-29778.6	0.000000	0.000000	6.733055	-0.025394	NaN	0.000000	0.001579	0.001683	28.1247	0.137767	0.001894	72.7224	140.062	12.598	0.014871	0.731152	-0.362209	-0.363564	-0.025394	72.7224	-0.361947	-38017.1	6.679551E-7	NaN
102	1.000000	0.742499	7.36604e+06	-43739.1	955.818	-29778.6	0.000000	0.000000	6.743048	-0.008852	NaN	0.000000	0.001618	0.001622	28.1147	0.105546	0.001984	53.1862	-25.3272	-166.521	-0.038210	0.741180	-0.352217	-0.353536	-0.008852	53.1862	-0.352092	-27374.7	3.233506E-7	NaN
102	1.000000	0.752478	7.36604e+06	-43739.1	955.819	-29778.6	0.000000	0.000000	6.753025	-0.041633	NaN	0.000000	0.001613	0.001613	28.0829	0.072993	0.002112	34.5613	174.179	12.8317	-0.039227	0.751140	-0.342238	-0.343576	-0.041633	34.5613	-0.341335	-19098.9	2.179843E-6	NaN
102	1.000000	0.762487	7.36604e+06	-43739.1	955.819	-29778.6	0.000000	0.000000	6.763035	-0.026839	NaN	0.000000	0.001649	0.001659	28.0843	0.049347	0.001980	24.9265	-84.9452	-164.219	0.036561	0.761218	-0.332229	-0.333498	-0.026839	24.9265	-0.331422	-13685.6	1.961131E-6	NaN
102	1.000000	0.772524	7.36604e+06	-43739.1	955.819	-29778.6	0.000000	0.000000	6.773070	-0.073492	NaN	0.000000	0.001617	0.001669	28.1225	0.043859	0.001980	22.1488	29.854	16.8455	-0.036002	0.771164	-0.322192	-0.323552	-0.073492	22.1488	-0.319704	-9210.37	7.979306E-6	NaN
102	1.000000	0.782510	7.36604e+06	-43739.1	955.818	-29778.6	0.000000	0.000000	6.783057	-0.060006	NaN	0.000000	0.001632	0.001628	28.1145	0.063267	0.001967	32.1702	-43.2479	-164.648	-0.001442	0.781182	-0.312206	-0.313534	-0.060006	32.1702	-0.310807	-6807.65	8.814439E-6	NaN
102	1.000000	0.792548	7.36604e+06	-43739.1	955.818	-29778.6	0.000000	0.000000	6.793093	-0.098097	NaN	0.000000	0.001602	0.001640	28.08	0.069648	0.001949	35.7406	-156.793	12.4992	-0.048901	0.791142	-0.302168	-0.303574	-0.098097	35.7406	-0.300110	-4723.57	2.076757E-5	NaN
102	1.000000	0.802517	7.36604e+06	-43739.1	955.818	-29778.6	0.000000	0.000000	6.803067	0.017885	NaN	0.000000	0.001605	0.001620	28.0845	0.075162	0.001920	39.141	85.0125	-166.38	-0.084737	0.801193	-0.292199	-0.293523	0.017885	39.141	-0.292542	-3642.08	-4.910543E-6	NaN
102	1.000000	0.812555	7.36604e+06	-43739.1	955.818	-29778.6	0.000000	0.000000	6.813105	0.040256	NaN	0.000000	0.001623	0.001663	28.1238	0.107768	0.002060	52.3047	33.7857	13.811	0.034123	0.811196	-0.282161	-0.283520	0.040256	52.3047	-0.282738	-2595.63	-1.550907E-5	NaN
102	1.000000	0.822547	7.36604e+06	-43739.1	955.818	-29778.6	0.000000	0.000000	6.823098	0.058022	NaN	0.000000	0.001609	0.001599	28.116	0.101067	0.002103	48.0612	-142.641	-165.403	0.039251	0.821203	-0.272169	-0.273513	0.058022	48.0612	-0.273074	-1854.48	-3.128772E-5	NaN
102	1.000000	0.832537	7.36604e+06	-43739.1	955.818	-29778.6	0.000000	0.000000	6.833085	-0.023105	NaN	0.000000	0.001625	0.001660	28.0823	0.009560	0.002052	4.658875	-131.879	10.8957	-0.012350	0.831164	-0.262179	-0.263552	-0.023105	4.658875	-0.258460	-1109.92	2.081656E-5	NaN
102	1.000000	0.842523	7.36604e+06	-43739.1	955.818	-29778.6	0.000000	0.000000	6.843071	-0.012013	NaN	0.000000	0.001577	0.001691	28.086	0.141343	0.002010	70.312	-123.777	-168.842	-0.037357	0.841188	-0.252193	-0.253528	-0.012013	70.312	-0.252065	-884.863	1.357561E-5	NaN
102	1.000000	0.852545	7.36604e+06	-43739.1	955.818	-29778.6	0.000000	0.000000	6.853094	-0.005065	NaN	0.000000	0.001561	0.001668	28.1238	0.152400	0.001973	77.2569	60.3818	13.2071	-0.039683	0.851188	-0.242171	-0.243528	-0.005065	77.2569	-0.242122	-620.385	8.163596E-6	NaN
102	1.000000	0.862547	7.36604e+06	-43739.1	955.819	-29778.6	0.000000	0.000000	6.863092	-0.080733	NaN	0.000000	0.001546	0.001702	28.1162	0.018562	0.002039	9.104280	-76.526	-167.248	-0.040410	0.861253	-0.232169	-0.233463	-0.080733	9.104280	-0.225519	-340.072	0.000237	NaN
102	1.000000	0.872560	7.36604e+06	-43739.1	955.818	-29778.6	0.000000	0.000000	6.873107	-0.052798	NaN	0.000000	0.001528	0.001619	28.0828	0.156562	0.002019	77.5632	-97.7359	16.8167	-0.023655	0.871187	-0.222156	-0.223529	-0.052798	77.5632	-0.221646	-295.088	0.000179	NaN
102	1.000000	0.882545	7.36604e+06	-43739.1	955.818	-29778.6	0.000000	0.000000	6.883093	-0.006643	NaN	0.000000	0.001521	0.001660	28.085	0.068942	0.001979	34.834	-101.697	-166.76	-0.038886	0.881236	-0.212171	-0.213480	-0.006643	34.834	-0.212028	-206.832	3.211937E-5	NaN
102	1.000000	0.892535	7.36604e+06	-43739.1	955.818	-29778.6	0.000000	0.000000	6.893084	-0.001536	NaN	0.000000	0.001534	0.001613	28.1251	0.030735	0.002028	15.1562	86.4581	14.6422	-0.012828	0.891184	-0.202181	-0.203532	-0.001536	15.1562	-0.202105	-142.639	1.076880E-5	NaN
102	1.000000	0.902594	7.36604e+06	-43739.1	955.819	-29778.6	0.000000	0.000000	6.903145	0.046209	NaN	0.000000	0.001522	0.001650	28.118	0.083813	0.001951	42.9615	-135.825	-167.305	-0.001689	0.901223	-0.192122	-0.193493	0.046209	42.9615	-0.192929	-100.654	-0.000459	NaN
102	1.000000	0.912573	7.36604e+06	-43739.1	955.818	-29778.6	0.000000	0.000000	6.913121	-0.041925	NaN	0.000000	0.001549	0.001635	28.0831	0.032959	0.002142	15.3845	54.1884	14.1209	-0.023077	0.911198	-0.182143	-0.183518	-0.041925	15.3845	-0.180099	-61.2559	0.000684	NaN
102	1.000000	0.922565	7.36604e+06	-43739.1	955.818	-29778.6	0.000000	0.000000	6.923114	-0.007155	NaN	0.000000	0.001559	0.001657	28.0861	0.009055	0.001910	4.740595	-11.256	-165.545	-0.035121	0.921258	-0.172151	-0.173458	-0.007155	4.740595	-0.171019	-42.7848	0.000167	NaN
102	1.000000	0.932575	7.36604e+06	-43739.1	955.818	-29778.6	0.000000	0.000000	6.933123	-0.034241	NaN	0.000000	0.001587	0.001662	28.1237	0.032393	0.001903	17.0195	10.0014	13.5287	-0.033751	0.931213	-0.162141	-0.163503	-0.034241	17.0195	-0.160632	-28.1325	0.001217	NaN
102	1.000000	0.942602	7.36604e+06	-43739.1	955.818	-29778.6	0.000000	0.000000	6.943151	-0.017153	NaN	0.000000	0.001577	0.001663	28.1162	0.106486	0.001934	55.0644	-101.718	-163.217	-0.012942	0.941254	-0.152114	-0.153462	-0.017153	55.0644	-0.151880	-19.5978	0.000875	NaN
102	1.000000	0.952562	7.36604e+06	-43739.1	955.818	-29778.6	0.000000	0.000000	6.953113	0.044092	NaN	0.000000	0.001628	0.001641	28.0819	0.112188	0.001992	56.3165	-99.1675	14.2664	-0.011728	0.951252	-0.142154	-0.143464	0.044092	56.3165	-0.142741	-13.3117	-0.003312	NaN
102	1.000000	0.962568	7.36604e+06	-43739.1	955.819	-29778.6	0.000000	0.000000	6.963115	-0.053186	NaN	0.000000	0.001590	0.001685	28.0842	0.097978	0.002069	47.3538	-172.876	-166.863	-0.041525	0.961272	-0.132148	-0.133444	-0.053186	47.3538	-0.131305	-8.078130	0.006584	NaN
102	1.000000	0.972570	7.36604e+06	-43739.1	955.818	-29778.6	0.000000	0.000000	6.973116	-0.050921	NaN	0.000000	0.001584	0.001645	28.1248	0.063505	0.002099	30.2555	148.851	14.1461	-0.063699	0.971235	-0.122147	-0.123481	-0.050921	30.2555	-0.120884	-5.033807	0.010116	NaN
102	1.000000	0.982593	7.36604e+06	-43739.1	955.818	-29778.6	0.000000	0.000000	6.983140	-0.055502	NaN	0.000000	0.001552	0.001648	28.1176	0.062910	0.002066	30.4574	125.888	-163.366	-0.074470	0.981262	-0.112123	-0.113454	-0.055502	30.4574	-0.110756	-3.117340	0.017804	NaN
102	1.000000	0.992598	7.36604e+06	-43739.1	955.817	-29778.6	0.000000	0.000000	6.993145	-0.043074	NaN	0.000000	0.001541	0.001661	28.0833	0.096586	0.001968	49.0819	-65.7408	16.2417	-0.038730	0.991246	-0.102118	-0.103470	-0.043074	49.0819	-0.101460	-1.967903	0.021888	NaN
102	1.000000	1.002592	7.36604e+06	-43739.1	955.818	-29778.6	0.000000	0.000000	7.003143	0.040114	NaN	0.000000	0.001564	0.001617	28.0854	0.079252	0.001912	41.4572	-164.675	-162.185	0.044899	1.001342	-0.092124	-0.093374	0.040114	41.4572	-0.092849	-1.259243	-0.031856	NaN
102	1.000000	1.012607	7.36604e+06	-43739.1	955.818	-29778.6	0.000000	0.000000	7.013153	-0.066651	NaN	0.000000	0.001585	0.001660	28.1222	0.048389	0.001999	24.2094	-7.729638	14.1478	0.007265	1.011229	-0.082109	-0.083487	-0.066651	24.2094	-0.080044	-0.620577	0.107402	NaN
102	1.000000	1.022601	7.36604e+06	-43739.1	955.817	-29778.6	0.000000	0.000000	7.023150	0.015747	NaN	0.000000	0.001552	0.001616	28.1154	0.109816	0.001961	55.9939	175.326	-164.379	-0.027268	1.021319	-0.072115	-0.073397	0.015747	55.9939	-0.072326	-0.393280	-0.040040	NaN
102	1.000000	1.032589	7.36604e+06	-43739.1	955.818	-29778.6	0.000000	0.000000	7.033138	0.009821	NaN	0.000000	0.001589	0.001646	28.0817	0.022190	0.002099	10.5699	-102.937	15.7566	-0.039493	1.031280	-0.062128	-0.063436	0.009821	10.5699	-0.062824	-0.216657	-0.045331	NaN
102	1.000000	1.042610	7.36604e+06	-43739.1	955.818	-29778.6	0.000000	0.000000	7.043162	0.074489	NaN	0.000000	0.001543	0.001658	28.0836	0.082119	0.001939	42.3435	3.725258	-166.88	0.119514	1.041249	-0.052106	-0.053467	0.074489	42.3435	-0.053426	-0.115641	-0.644136	NaN
102	1.000000	1.052627	7.36604e+06	-43739.1	955.818	-29778.6	0.000000	0.000000	7.053175	-0.025472	NaN	0.000000	0.001568	0.001647	28.123	0.033805	0.002001	16.8962	-42.1462	15.9578	0.034535	1.051261	-0.042089	-0.043455	-0.025472	16.8962	-0.040958	-0.048360	0.526716	NaN
102	1.000000	1.062607	7.36604e+06	-43739.1	955.818	-29778.6	0.000000	0.000000	7.063156	-0.009198	NaN	0.000000	0.001549	0.001648	28.1168	0.086595	0.001976	43.8157	-176.581	-166.251	0.000641	1.061312	-0.032109	-0.033404	-0.009198	43.8157	-0.031951	-0.026123	0.352124	NaN
102	1.000000	1.072607	7.36604e+06	-43739.1	955.819	-29778.6	0.000000	0.000000	7.073156	0.009256	NaN	0.000000	0.001528	0.001644	28.0831	0.059285	0.002020	29.349	-12.1837	14.1782	-0.009291	1.071292	-0.022109	-0.023424	0.009256	29.349	-0.022345	-0.014410	-0.642288	NaN
102	1.000000	1.082617	7.36604e+06	-43739.1	955.817	-29778.6	0.000000	0.000000	7.083168	0.055618	NaN	0.000000	0.001544	0.001679	28.0842	0.049268	0.002067	23.839	64.3217	-163.804	0.032053	1.081268	-0.012099	-0.013448	0.055618	23.839	-0.013849	-0.008595	-6.471078	NaN
102	1.000000	1.092633	7.36604e+06	-43739.1	955.818	-29778.6	0.000000	0.000000	7.093181	-0.037364	NaN	0.000000	0.001539	0.001655	28.1214	0.121226	0.001937	62.5847	-172.933	15.0639	-0.047568	1.091283	-0.002083	-0.003433	-0.037364	62.5847	-0.001635	-0.001185	31.5384	NaN
102	1.000000	1.102552	7.36604e+06	-43739.1	955.819	-29778.6	0.000000	0.000000	7.103385	6.910266	NaN	0.000000	0.001543	0.001667	28.1159	6.613432	0.001790	3695.55	11.2634	-169.434	4.660654	1.101335	0.007836	0.006619	6.910266	3695.55	0.006434	0.005480	1260.94	45609.1
102	2.000000	1.106623	7.36604e+06	-43739.1	955.819	-29778.6	0.000000	0.000000	7.107610	10.654	NaN	0.000000	0.001577	0.001683	28.0814	10.7596	0.001575	6830.98	4.477604	6.909548	9.659728	1.106349	0.011907	0.011632	10.654	6830.98	0.010738	0.010013	1064.03	62370.3
102	2.000000	1.109132	7.36604e+06	-43739.1	955.819	-29778.6	0.000000	0.000000	7.110354	16.3767	NaN	0.000000	0.001548	0.001646	28.0842	14.8386	0.001806	8218.28	8.703083	-176.356	18.0605	1.108835	0.014416	0.014119	16.3767	8218.28	0.012921	0.012612	1298.49	66859.2
102	2.000000	1.111586	7.36604e+06	-43739.1	955.818	-29778.6	0.000000	0.000000	7.113055	22.368	NaN	0.000000	0.001591	0.001657	28.1236	16.7128	0.001812	9223.45	2.955429	9.360926	20.2614	1.111204	0.016870	0.016488	22.368	9223.45	0.015051	0.015354	1456.83	68007.5
102	2.000000	1.114076	7.36604e+06	-43739.1	955.818	-29778.6	0.000000	0.000000	7.115858	30.0015	NaN	0.000000	0.001580	0.001624	28.1189	19.9985	0.001818	11001.4	9.609101	-178.606	31.0051	1.113737	0.019360	0.019021	30.0015	11001.4	0.017315	0.018497	1621.99	73904.7
102	2.000000	1.116563	7.36604e+06	-43739.1	955.818	-29778.6	0.000000	0.000000	7.118465	32.9201	NaN	0.000000	0.001549	0.001659	28.085	22.1504	0.001691	13095.8	3.171007	3.914631	32.7184	1.116257	0.021846	0.021541	32.9201	13095.8	0.019961	0.022481	1464.34	79798.4
102	2.000000	1.119116	7.36604e+06	-43739.1	955.819	-29778.6	0.000000	0.000000	7.121389	41.951	NaN	0.000000	0.001560	0.001574	28.0863	25.5242	0.001800	14179.8	8.606566	-179.005	44.0275	1.118732	0.024400	0.024016	41.951	14179.8	0.022181	0.026086	1608.19	80212.6
102	2.000000	1.121559	7.36604e+06	-43739.1	955.818	-29778.6	0.000000	0.000000	7.124096	48.3656	NaN	0.000000	0.001560	0.001611	28.1226	27.0225	0.001737	15557.9	2.784493	3.155780	46.7777	1.121202	0.026843	0.026486	48.3656	15557.9	0.024511	0.030132	1605.12	81885.9
102	2.000000	1.124069	7.36604e+06	-43739.1	955.82	-29778.6	0.000000	0.000000	7.126847	54.2368	NaN	0.000000	0.001534	0.001647	28.1173	29.7334	0.001887	15753.7	7.449159	179.883	57.3736	1.123739	0.029353	0.029023	54.2368	15753.7	0.026771	0.034316	1580.53	77698.3
102	2.000000	1.126567	7.36604e+06	-43739.1	955.818	-29778.6	0.000000	0.000000	7.129625	61.0599	NaN	0.000000	0.001565	0.001680	28.0827	31.6078	0.001783	17725.5	4.190965	0.551191	60.6834	1.126275	0.031850	0.031559	61.0599	17725.5	0.029267	0.039238	1556.15	81755.7
102	2.000000	1.128994	7.36604e+06	-43739.1	955.818	-29778.6	0.000000	0.000000	7.132561	73.4349	NaN	0.000000	0.001551	0.001686	28.0846	33.7082	0.001643	20511	2.405901	-178.877	71.9239	1.128691	0.034278	0.033975	73.4349	20511	0.031592	0.044109	1664.85	89227
102	2.000000	1.131581	7.36604e+06	-43739.1	955.818	-29778.6	0.000000	0.000000	7.135481	81.5304	NaN	0.000000	0.001586	0.001708	28.1232	36.6582	0.001775	20652.3	11.9686	-7.108391	82.1269	1.131203	0.036865	0.036487	81.5304	20652.3	0.033904	0.049226	1656.25	85044.5
102	2.000000	1.133982	7.36604e+06	-43739.1	955.818	-29778.6	0.000000	0.000000	7.138256	90.6299	NaN	0.000000	0.001572	0.001711	28.1184	37.777	0.001793	21066.5	0.789768	-176.661	88.1417	1.133680	0.039266	0.038964	90.6299	21066.5	0.036039	0.054193	1672.35	82678.8
102	2.000000	1.136486	7.36604e+06	-43739.1	955.819	-29778.6	0.000000	0.000000	7.141125	99.492	NaN	0.000000	0.001511	0.001645	28.0843	41.0898	0.001743	23574.1	6.023693	-3.667809	96.5195	1.136182	0.041770	0.041466	99.492	23574.1	0.038605	0.060472	1645.25	87584.8
102	2.000000	1.139032	7.36604e+06	-43739.1	955.818	-29778.6	0.000000	0.000000	7.144099	109.918	NaN	0.000000	0.001568	0.001717	28.0856	44.4516	0.001875	23704.2	7.028849	176.174	111.094	1.138683	0.044316	0.043967	109.918	23704.2	0.040838	0.066212	1660.09	84164.9
102	2.000000	1.141475	7.36604e+06	-43739.1	955.818	-29778.6	0.000000	0.000000	7.147120	123.981	NaN	0.000000	0.001596	0.001679	28.122	46.3627	0.001780	26043.3	7.739093	-5.647083	120.027	1.141126	0.046759	0.046410	123.981	26043.3	0.043188	0.072527	1709.43	88352.3
102	2.000000	1.143990	7.36604e+06	-43739.1	955.818	-29778.6	0.000000	0.000000	7.150094	135.165	NaN	0.000000	0.001612	0.001680	28.1167	47.5883	0.001813	26242.2	1.466381	-178.601	133.366	1.143661	0.049274	0.048945	135.165	26242.2	0.045411	0.078758	1716.21	85433.2
102	2.000000	1.146461	7.36604e+06	-43739.1	955.818	-29778.6	0.000000	0.000000	7.153142	149.2	NaN	0.000000	0.001545	0.001697	28.0818	51.2893	0.001897	27034.1	4.803025	-2.053104	145.723	1.146052	0.051744	0.051336	149.2	27034.1	0.047605	0.085155	1752.1	84640.8
102	2.000000	1.148923	7.36604e+06	-43739.1	955.818	-29778.6	0.000000	0.000000	7.156042	159.848	NaN	0.000000	0.001551	0.001692	28.0826	52.7941	0.001730	30515.5	3.973742	176.995	155.719	1.148678	0.054207	0.053962	159.848	30515.5	0.050278	0.093275	1713.73	91287.3
102	2.000000	1.151479	7.36604e+06	-43739.1	955.818	-29778.6	0.000000	0.000000	7.159239	175.43	NaN	0.000000	0.001548	0.001669	28.1215	54.8148	0.001883	29111.4	2.859979	-0.656652	171.664	1.151113	0.056763	0.056397	175.43	29111.4	0.052244	0.099474	1763.58	84329.9
102	2.000000	1.153930	7.36604e+06	-43739.1	955.818	-29778.6	0.000000	0.000000	7.162351	191.512	NaN	0.000000	0.001581	0.001689	28.1179	56.5361	0.001760	32114.3	2.660565	177.772	187.96	1.153700	0.059214	0.058984	191.512	32114.3	0.054741	0.107630	1779.36	89434.5
102	2.000000	1.156435	7.36604e+06	-43739.1	955.818	-29778.6	0.000000	0.000000	7.165453	206.053	NaN	0.000000	0.001557	0.001706	28.0821	59.9673	0.001835	32677.8	5.160000	-4.102817	202.717	1.156124	0.061719	0.061408	206.053	32677.8	0.056990	0.115235	1788.1	87949.4
102	2.000000	1.158982	7.36604e+06	-43739.1	955.819	-29778.6	0.000000	0.000000	7.168449	216.975	NaN	0.000000	0.001579	0.001701	28.0838	62.9007	0.001832	34336.8	3.015980	177.043	214.263	1.158786	0.064266	0.064070	216.975	34336.8	0.059526	0.124115	1748.17	89047.3
102	2.000000	1.161472	7.36604e+06	-43739.1	955.818	-29778.6	0.000000	0.000000	7.171758	236.875	NaN	0.000000	0.001561	0.001674	28.1214	63.5509	0.001673	37981.2	2.307157	-2.415491	234.534	1.161071	0.066756	0.066355	236.875	37981.2	0.062079	0.133368	1776.1	95020.2
102	2.000000	1.164003	7.36604e+06	-43739.1	955.818	-29778.6	0.000000	0.000000	7.175027	254.86	NaN	0.000000	0.001578	0.001717	28.117	66.4784	0.001791	37120.3	5.289506	175.06	255.112	1.163535	0.069287	0.068819	254.86	37120.3	0.064137	0.141060	1806.74	90298.8
102	2.000000	1.166396	7.36604e+06	-43739.1	955.819	-29778.6	0.000000	0.000000	7.178112	271.696	NaN	0.000000	0.001555	0.001661	28.082	68.9307	0.001811	38055	2.168780	-2.458715	266.684	1.166164	0.071680	0.071448	271.696	38055	0.066325	0.149460	1817.85	89933.6
102	2.000000	1.168914	7.36604e+06	-43739.1	955.819	-29778.6	0.000000	0.000000	7.180863	277.373	NaN	0.000000	0.001543	0.001692	28.0833	72.0752	0.001770	40731.8	2.114098	176.614	274.726	1.168771	0.074198	0.074055	277.373	40731.8	0.069090	0.160407	1729.18	92917
102	2.000000	1.171474	7.36604e+06	-43739.1	955.818	-29778.6	0.000000	0.000000	7.184242	297.288	NaN	0.000000	0.001562	0.001698	28.1218	73.6887	0.001572	46864.8	3.124590	-5.135576	293.759	1.171161	0.076757	0.076445	297.288	46864.8	0.072000	0.172318	1725.23	103147
102	2.000000	1.173866	7.36604e+06	-43739.1	955.819	-29778.6	0.000000	0.000000	7.187420	316.402	NaN	0.000000	0.001538	0.001662	28.1184	75.4017	0.001705	44231.5	1.740917	176.696	311.303	1.173658	0.079150	0.078942	316.402	44231.5	0.073785	0.179824	1759.51	95297.3
102	2.000000	1.176388	7.36604e+06	-43739.1	955.819	-29778.6	0.000000	0.000000	7.190736	335.716	NaN	0.000000	0.001557	0.001688	28.0832	78.7517	0.001788	44050.2	2.403050	-3.768407	330.052	1.176106	0.081672	0.081390	335.716	44050.2	0.075956	0.189159	1774.79	92535.4
102	2.000000	1.178945	7.36604e+06	-43739.1	955.818	-29778.6	0.000000	0.000000	7.193813	348.375	NaN	0.000000	0.001556	0.001696	28.0862	82.5096	0.001812	45544.5	3.775468	174.067	347.035	1.178853	0.084229	0.084137	348.375	45544.5	0.078492	0.200337	1738.95	92967
102	2.000000	1.181471	7.36604e+06	-43739.1	955.818	-29778.6	0.000000	0.000000	7.197481	376.16	NaN	0.000000	0.001538	0.001684	28.1215	83.2073	0.001764	47166	1.778783	-3.806262	372.083	1.181132	0.086755	0.086416	376.16	47166	0.080773	0.210652	1785.69	93890
102	2.000000	1.183933	7.36604e+06	-43739.1	955.819	-29778.6	0.000000	0.000000	7.200783	396.575	NaN	0.000000	0.001549	0.001688	28.1187	85.9622	0.001760	48835.5	2.500319	175.089	393.837	1.183650	0.089217	0.088934	396.575	48835.5	0.083127	0.221546	1790.03	94793
102	2.000000	1.186402	7.36604e+06	-43739.1	955.818	-29778.6	0.000000	0.000000	7.203972	414.098	NaN	0.000000	0.001557	0.001698	28.083	89.9462	0.001837	48971.6	6.491595	-8.417688	410.16	1.186009	0.091686	0.091293	414.098	48971.6	0.085344	0.232046	1784.55	92881.7
102	2.000000	1.188863	7.36604e+06	-43739.1	955.819	-29778.6	0.000000	0.000000	7.207370	436.912	NaN	0.000000	0.001564	0.001657	28.0853	91.19	0.001734	52583.2	4.015740	173.22	431.972	1.188699	0.094146	0.093983	436.912	52583.2	0.087915	0.244502	1786.95	97158
102	2.000000	1.191335	7.36604e+06	-43739.1	955.818	-29778.6	0.000000	0.000000	7.210578	454.811	NaN	0.000000	0.001555	0.001674	28.123	92.9116	0.001762	52720.2	3.353954	-5.848924	447.322	1.191106	0.096619	0.096390	454.811	52720.2	0.090148	0.255572	1779.58	95278.3
102	2.000000	1.193886	7.36604e+06	-43739.1	955.819	-29778.6	0.000000	0.000000	7.214052	477.268	NaN	0.000000	0.001539	0.001698	28.1201	95.0998	0.001711	55581	5.035589	172.006	475.157	1.193619	0.099170	0.098903	477.268	55581	0.092730	0.268652	1776.53	97972.6
102	2.000000	1.196209	7.36604e+06	-43739.1	955.819	-29778.6	0.000000	0.000000	7.217032	493.267	NaN	0.000000	0.001510	0.001697	28.084	98.7448	0.001813	54468.9	3.896016	-7.064066	479.156	1.196012	0.101493	0.101296	493.267	54468.9	0.094701	0.278841	1768.99	94241.7
102	2.000000	1.198895	7.36604e+06	-43739.1	955.818	-29778.6	0.000000	0.000000	7.220968	523.662	NaN	0.000000	0.001537	0.001680	28.084	101.445	0.001833	55333.8	3.364296	173.859	521.609	1.198634	0.104179	0.103918	523.662	55333.8	0.097081	0.291384	1797.15	93654.9
102	2.000000	1.201413	7.36604e+06	-43739.1	955.819	-29778.6	0.000000	0.000000	7.224241	542.034	NaN	0.000000	0.001549	0.001678	28.1211	102.722	0.001834	55999.1	2.523060	-5.165970	538.266	1.201151	0.106697	0.106435	542.034	55999.1	0.099437	0.304055	1782.68	92785
102	2.000000	1.202937	7.36604e+06	-43739.1	955.819	-29778.6	0.000000	0.000000	7.226462	558.985	NaN	0.000000	0.001578	0.001659	28.0838	105.524	0.001828	57715	2.699941	174	557.803	1.202544	0.108221	0.107828	558.985	57715	0.100957	0.312361	1789.55	94348.1