File: remote_trans/data/nanoindenter/0828-1/data/Data_2025-08-06,11h17m57s/2025-07-22_16-23-58_1_1138.txt
2025-07-22, 16:23:58, 1
Index	Phase	Displacement	Time	Pos X	Pos Y	Pos Z	Rot A	Rot B	Piezo Z	Force A	Force B	Gripper	Voltage A	Voltage B	Temperature	Amplitude force	Amplitude pos	Stiffness	Phase shift	Phase excitation	Force A raw	Displacement raw	HMax	HMax raw	Real Force	Real Stiffness	Contact Depth	Area	Hardness	Reduced Mod.
[#]	[#]	[um]	[s]	[um]	[um]	[um]	[m°]	[m°]	[um]	[uN]	[uN]	[V]	[V]	[V]	[°C]	[uN]	[um]	[N/m]	[°]	[°]	[uN]	[um]	[um]	[um]	[uN]	[N/m]	[um]	[um^2]	[MPa]	[MPa]
1138	1.000000	0.002111	7.37619e+06	-57039.1	1055.82	-29737.7	0.000000	0.000000	6.002798	0.106837	NaN	0.000000	0.001579	0.001634	28.0831	0.101766	0.000871	116.853	152.329	-167.838	0.124660	0.000798	-0.999257	-1.000570	0.106837	116.853	-0.999943	-2.264662E+13	-4.717554E-15	NaN
1138	1.000000	0.010085	7.37619e+06	-57039.1	1055.82	-29737.7	0.000000	0.000000	6.010766	-0.020827	NaN	0.000000	0.001607	0.001652	28.0829	0.033143	0.000987	33.5756	-112.753	-165.712	-0.020046	0.008727	-0.991284	-0.992642	-0.020827	33.5756	-0.990818	-1.706607E+13	1.220387E-15	NaN
1138	1.000000	0.018075	7.37619e+06	-57039.1	1055.82	-29737.7	0.000000	0.000000	6.018759	0.034635	NaN	0.000000	0.001579	0.001691	28.0829	0.030481	0.001740	17.5197	-79.2998	-167.555	0.061656	0.016749	-0.983293	-0.984619	0.034635	17.5197	-0.984776	-1.414962E+13	-2.447743E-15	NaN
1138	1.000000	0.026093	7.37619e+06	-57039.1	1055.82	-29737.7	0.000000	0.000000	6.026781	0.127743	NaN	0.000000	0.001654	0.001684	28.0829	0.050680	0.001852	27.3597	108.301	-164.098	0.099095	0.024756	-0.975276	-0.976612	0.127743	27.3597	-0.978777	-1.174730E+13	-1.087429E-14	NaN
1138	1.000000	0.034051	7.37619e+06	-57039.1	1055.82	-29737.7	0.000000	0.000000	6.034736	0.045338	NaN	0.000000	0.001587	0.001707	28.0828	0.099038	0.001885	52.5399	-103.235	-167.721	0.090762	0.032802	-0.967317	-0.968566	0.045338	52.5399	-0.967964	-8.399013E+12	-5.398031E-15	NaN
1138	1.000000	0.042064	7.37619e+06	-57039.1	1055.82	-29737.7	0.000000	0.000000	6.042749	0.068887	NaN	0.000000	0.001608	0.001694	28.0828	0.167878	0.002137	78.5677	105.043	-165.485	0.028403	0.040701	-0.959304	-0.960667	0.068887	78.5677	-0.959962	-6.551760E+12	-1.051432E-14	NaN
1138	1.000000	0.050068	7.37619e+06	-57039.1	1055.82	-29737.7	0.000000	0.000000	6.050750	-0.028667	NaN	0.000000	0.001597	0.001694	28.0827	0.021124	0.002108	10.0195	46.9983	-166.784	0.005349	0.048740	-0.951300	-0.952628	-0.028667	10.0195	-0.949154	-4.684000E+12	6.120118E-15	NaN
1138	1.000000	0.058071	7.37619e+06	-57039.1	1055.82	-29737.7	0.000000	0.000000	6.058757	0.082377	NaN	0.000000	0.001613	0.001731	28.0827	0.019234	0.002058	9.344740	100.224	-165.595	0.074253	0.056730	-0.943297	-0.944638	0.082377	9.344740	-0.949909	-4.795115E+12	-1.717945E-14	NaN
1138	1.000000	0.066037	7.37619e+06	-57039.1	1055.82	-29737.7	0.000000	0.000000	6.066721	0.014567	NaN	0.000000	0.001623	0.001679	28.0821	0.084082	0.002020	41.6316	-99.3747	-164.078	-0.010265	0.064738	-0.935331	-0.936630	0.014567	41.6316	-0.935593	-3.073819E+12	-4.739193E-15	NaN
1138	1.000000	0.074049	7.37619e+06	-57039.1	1055.82	-29737.7	0.000000	0.000000	6.074732	-0.000405	NaN	0.000000	0.001659	0.001679	28.0814	0.076364	0.001968	38.8007	-82.4662	-164.172	0.140573	0.072768	-0.927319	-0.928600	-0.000405	38.8007	-0.927311	-2.376340E+12	1.706290E-16	NaN
1138	1.000000	0.082067	7.37619e+06	-57039.1	1055.82	-29737.7	0.000000	0.000000	6.082751	0.044580	NaN	0.000000	0.001629	0.001712	28.0816	0.043744	0.001969	22.2124	54.74	-162.03	0.033803	0.080781	-0.919301	-0.920587	0.044580	22.2124	-0.920807	-1.941316E+12	-2.296385E-14	NaN
1138	1.000000	0.090109	7.37619e+06	-57039.1	1055.82	-29737.7	0.000000	0.000000	6.090794	0.057917	NaN	0.000000	0.001642	0.001675	28.0818	0.123155	0.002216	55.5719	-162.125	-164.989	0.053931	0.088799	-0.911259	-0.912569	0.057917	55.5719	-0.912041	-1.478175E+12	-3.918157E-14	NaN
1138	1.000000	0.098060	7.37619e+06	-57039.1	1055.82	-29737.7	0.000000	0.000000	6.098743	0.010091	NaN	0.000000	0.001647	0.001691	28.0814	0.104922	0.001952	53.7508	-139.639	-163.045	0.043025	0.096779	-0.903308	-0.904589	0.010091	53.7508	-0.903449	-1.131526E+12	-8.918378E-15	NaN
1138	1.000000	0.106096	7.37619e+06	-57039.1	1055.82	-29737.7	0.000000	0.000000	6.106779	0.022662	NaN	0.000000	0.001652	0.001670	28.0815	0.090301	0.002015	44.8048	-79.2699	-165.177	0.073609	0.104843	-0.895273	-0.896526	0.022662	44.8048	-0.895652	-8.877869E+11	-2.552642E-14	NaN
1138	1.000000	0.114075	7.37619e+06	-57039.1	1055.82	-29737.7	0.000000	0.000000	6.114757	-0.020850	NaN	0.000000	0.001654	0.001684	28.0814	0.013176	0.002167	6.081541	-68.8249	-165.389	0.031903	0.112818	-0.887293	-0.888550	-0.020850	6.081541	-0.884722	-6.317638E+11	3.300237E-14	NaN
1138	1.000000	0.122088	7.37619e+06	-57039.1	1055.82	-29737.7	0.000000	0.000000	6.122773	0.054126	NaN	0.000000	0.001680	0.001666	28.0815	0.033242	0.001979	16.7959	-102.098	-169.223	0.135252	0.120803	-0.879281	-0.880565	0.054126	16.7959	-0.881698	-5.749953E+11	-9.413243E-14	NaN
1138	1.000000	0.130091	7.37619e+06	-57039.1	1055.82	-29737.7	0.000000	0.000000	6.130777	0.068338	NaN	0.000000	0.001670	0.001662	28.0815	0.189022	0.001898	99.5652	-32.2362	-163.76	0.056925	0.128821	-0.871277	-0.872548	0.068338	99.5652	-0.871792	-4.223606E+11	-1.618010E-13	NaN
1138	1.000000	0.138121	7.37619e+06	-57039.1	1055.82	-29737.7	0.000000	0.000000	6.138802	-0.029133	NaN	0.000000	0.001688	0.001685	28.0816	0.081198	0.001942	41.8042	155.303	-164.528	-0.018948	0.136801	-0.863247	-0.864567	-0.029133	41.8042	-0.862725	-3.184180E+11	9.149153E-14	NaN
1138	1.000000	0.146100	7.37619e+06	-57039.1	1055.82	-29737.7	0.000000	0.000000	6.146781	-0.055947	NaN	0.000000	0.001708	0.001677	28.0817	0.073181	0.002005	36.5073	-83.8512	-166.514	-0.062498	0.144817	-0.855268	-0.856552	-0.055947	36.5073	-0.854118	-2.435020E+11	2.297598E-13	NaN
1138	1.000000	0.154081	7.37619e+06	-57039.1	1055.82	-29737.7	0.000000	0.000000	6.154764	0.014721	NaN	0.000000	0.001669	0.001687	28.0815	0.034277	0.002074	16.5276	156.469	-165.254	0.020336	0.152816	-0.847287	-0.848552	0.014721	16.5276	-0.847955	-2.009326E+11	-7.326540E-14	NaN
1138	1.000000	0.162071	7.37619e+06	-57039.1	1055.82	-29737.7	0.000000	0.000000	6.162755	0.028510	NaN	0.000000	0.001692	0.001702	28.0813	0.044552	0.001855	24.0209	13.7575	-167.721	0.013785	0.160792	-0.839297	-0.840576	0.028510	24.0209	-0.840188	-1.577009E+11	-1.807838E-13	NaN
1138	1.000000	0.170132	7.37619e+06	-57039.1	1055.82	-29737.7	0.000000	0.000000	6.170816	0.023223	NaN	0.000000	0.001706	0.001658	28.0814	0.068990	0.002043	33.7659	42.6529	-163.695	0.008756	0.168776	-0.831236	-0.832592	0.023223	33.7659	-0.831752	-1.212071E+11	-1.915990E-13	NaN
1138	1.000000	0.178114	7.37619e+06	-57039.1	1055.82	-29737.7	0.000000	0.000000	6.178796	-0.020726	NaN	0.000000	0.001677	0.001693	28.0815	0.019178	0.001938	9.897335	-104.465	-166.712	-0.038594	0.176771	-0.823254	-0.824598	-0.020726	9.897335	-0.821683	-8.851926E+10	2.341361E-13	NaN
1138	1.000000	0.186096	7.37619e+06	-57039.1	1055.82	-29737.7	0.000000	0.000000	6.186779	0.016556	NaN	0.000000	0.001651	0.001709	28.0812	0.091626	0.002074	44.1867	99.6762	-165.267	-0.020415	0.184808	-0.815273	-0.816560	0.016556	44.1867	-0.815554	-7.309867E+10	-2.264895E-13	NaN
1138	1.000000	0.194125	7.37619e+06	-57039.1	1055.82	-29737.7	0.000000	0.000000	6.194810	0.043899	NaN	0.000000	0.001638	0.001679	28.0816	0.047762	0.002070	23.0758	-29.3696	-167.957	-0.079942	0.192787	-0.807243	-0.808581	0.043899	23.0758	-0.808670	-5.895567E+10	-7.446027E-13	NaN
1138	1.000000	0.202133	7.37619e+06	-57039.1	1055.82	-29737.7	0.000000	0.000000	6.202815	-0.013726	NaN	0.000000	0.001638	0.001697	28.0817	0.082362	0.002052	40.1468	140.955	-164.577	-0.035015	0.200800	-0.799235	-0.800568	-0.013726	40.1468	-0.798979	-4.355155E+10	3.151614E-13	NaN
1138	1.000000	0.210148	7.37619e+06	-57039.1	1055.82	-29737.7	0.000000	0.000000	6.210830	-0.001417	NaN	0.000000	0.001659	0.001690	28.0827	0.124995	0.001976	63.2481	32.8978	-169.453	-0.040876	0.208901	-0.791221	-0.792467	-0.001417	63.2481	-0.791204	-3.415319E+10	4.148305E-14	NaN
1138	1.000000	0.218114	7.37619e+06	-57039.1	1055.82	-29737.7	0.000000	0.000000	6.218796	0.002146	NaN	0.000000	0.001632	0.001696	28.0829	0.087953	0.002023	43.4794	165.885	-162.135	-0.033753	0.216825	-0.783255	-0.784543	0.002146	43.4794	-0.783292	-2.666603E+10	-8.047473E-14	NaN
1138	1.000000	0.226105	7.37619e+06	-57039.1	1055.82	-29737.7	0.000000	0.000000	6.226791	0.067852	NaN	0.000000	0.001656	0.001687	28.083	0.118509	0.001816	65.2507	157.002	-164.534	-0.003919	0.224857	-0.775263	-0.776511	0.067852	65.2507	-0.776043	-2.125462E+10	-3.192358E-12	NaN
1138	1.000000	0.234181	7.37619e+06	-57039.1	1055.82	-29737.7	0.000000	0.000000	6.234865	0.012291	NaN	0.000000	0.001652	0.001655	28.0832	0.033739	0.001979	17.0519	7.099512	-163.153	0.036971	0.232839	-0.767187	-0.768529	0.012291	17.0519	-0.767727	-1.638343E+10	-7.502255E-13	NaN
1138	1.000000	0.242162	7.37619e+06	-57039.1	1055.82	-29737.7	0.000000	0.000000	6.242846	0.053709	NaN	0.000000	0.001666	0.001691	28.0825	0.066144	0.002061	32.0881	-130.999	-168.614	-0.009157	0.240884	-0.759207	-0.760484	0.053709	32.0881	-0.760462	-1.304933E+10	-4.115868E-12	NaN
1138	1.000000	0.250147	7.37619e+06	-57039.1	1055.82	-29737.7	0.000000	0.000000	6.250830	0.016703	NaN	0.000000	0.001630	0.001682	28.0829	0.062407	0.001983	31.4668	-74.5669	-167.468	0.028146	0.248831	-0.751222	-0.752538	0.016703	31.4668	-0.751620	-9.891595E+9	-1.688580E-12	NaN
1138	1.000000	0.258157	7.37619e+06	-57039.1	1055.82	-29737.7	0.000000	0.000000	6.258844	0.084653	NaN	0.000000	0.001636	0.001725	28.0825	0.064977	0.001984	32.7514	-114.651	-163.32	0.171276	0.256888	-0.743211	-0.744480	0.084653	32.7514	-0.745149	-8.075715E+9	-1.048236E-11	NaN
1138	1.000000	0.266153	7.37619e+06	-57039.1	1055.82	-29737.7	0.000000	0.000000	6.266834	-0.035817	NaN	0.000000	0.001623	0.001695	28.0828	0.024057	0.002017	11.9255	-127.735	-169.172	0.014716	0.264849	-0.735215	-0.736519	-0.035817	11.9255	-0.732962	-5.510353E+9	6.499979E-12	NaN
1138	1.000000	0.274171	7.37619e+06	-57039.1	1055.82	-29737.7	0.000000	0.000000	6.274854	0.011432	NaN	0.000000	0.001646	0.001682	28.0828	0.100945	0.001894	53.2999	104.931	-165.623	-0.005702	0.272850	-0.727197	-0.728518	0.011432	53.2999	-0.727358	-4.621697E+9	-2.473572E-12	NaN
1138	1.000000	0.282138	7.37619e+06	-57039.1	1055.82	-29737.7	0.000000	0.000000	6.282819	-0.035222	NaN	0.000000	0.001638	0.001705	28.0827	0.098401	0.002076	47.3942	163.442	-166.261	-0.041830	0.280867	-0.719230	-0.720501	-0.035222	47.3942	-0.718673	-3.518617E+9	1.001014E-11	NaN
1138	1.000000	0.290160	7.37619e+06	-57039.1	1055.82	-29737.7	0.000000	0.000000	6.290843	0.020090	NaN	0.000000	0.001621	0.001681	28.0829	0.043190	0.002040	21.1695	83.8471	-166.999	0.047488	0.288878	-0.711208	-0.712490	0.020090	21.1695	-0.711920	-2.846114E+9	-7.058724E-12	NaN
1138	1.000000	0.298202	7.37619e+06	-57039.1	1055.82	-29737.7	0.000000	0.000000	6.298886	0.031200	NaN	0.000000	0.001633	0.001659	28.0826	0.051916	0.001961	26.4788	65.8572	-164.796	0.080849	0.296846	-0.703166	-0.704522	0.031200	26.4788	-0.704050	-2.222440E+9	-1.403875E-11	NaN
1138	1.000000	0.306154	7.37619e+06	-57039.1	1055.82	-29737.7	0.000000	0.000000	6.306837	0.020522	NaN	0.000000	0.001620	0.001640	28.0827	0.058639	0.002065	28.3931	27.3099	-167.171	-0.040080	0.304857	-0.695214	-0.696512	0.020522	28.3931	-0.695757	-1.712270E+9	-1.198555E-11	NaN
1138	1.000000	0.314184	7.37619e+06	-57039.1	1055.82	-29737.7	0.000000	0.000000	6.314868	0.021068	NaN	0.000000	0.001602	0.001676	28.0825	0.042109	0.002125	19.819	95.5923	-167.153	0.012520	0.312899	-0.687184	-0.688469	0.021068	19.819	-0.687981	-1.340693E+9	-1.571459E-11	NaN
1138	1.000000	0.322151	7.37619e+06	-57039.1	1055.82	-29737.7	0.000000	0.000000	6.322833	-0.021951	NaN	0.000000	0.001636	0.001663	28.0828	0.133116	0.002038	65.3175	-118.141	-169.761	-0.028497	0.320861	-0.679217	-0.680508	-0.021951	65.3175	-0.678965	-1.009363E+9	2.174743E-11	NaN
1138	1.000000	0.330170	7.37619e+06	-57039.1	1055.82	-29737.7	0.000000	0.000000	6.330853	0.020224	NaN	0.000000	0.001651	0.001659	28.0831	0.011204	0.002102	5.329173	-176.815	-168.373	0.034488	0.328887	-0.671199	-0.672481	0.020224	5.329173	-0.674045	-8.644528E+8	-2.339500E-11	NaN
1138	1.000000	0.338157	7.37619e+06	-57039.1	1055.82	-29737.7	0.000000	0.000000	6.338841	0.038400	NaN	0.000000	0.001629	0.001637	28.0828	0.057426	0.002124	27.0321	-3.902569	-162.046	-0.037850	0.336902	-0.663212	-0.664466	0.038400	27.0321	-0.664277	-6.353946E+8	-6.043544E-11	NaN
1138	1.000000	0.346183	7.37619e+06	-57039.1	1055.82	-29737.7	0.000000	0.000000	6.346870	0.087837	NaN	0.000000	0.001619	0.001637	28.082	0.140408	0.002059	68.2044	-27.7341	-167.708	0.086218	0.344895	-0.655185	-0.656473	0.087837	68.2044	-0.656151	-4.917410E+8	-1.786241E-10	NaN
1138	1.000000	0.354193	7.37619e+06	-57039.1	1055.82	-29737.7	0.000000	0.000000	6.354878	0.052595	NaN	0.000000	0.001664	0.001716	28.0818	0.129927	0.002046	63.5102	-179.26	-166.309	0.031305	0.352876	-0.647176	-0.648492	0.052595	63.5102	-0.647797	-3.777705E+8	-1.392239E-10	NaN
1138	1.000000	0.362219	7.37619e+06	-57039.1	1055.82	-29737.7	0.000000	0.000000	6.362900	-0.039947	NaN	0.000000	0.001611	0.001736	28.0818	0.127353	0.002016	63.1864	-147.357	-168.416	-0.016066	0.360920	-0.639149	-0.640448	-0.039947	63.1864	-0.638675	-2.832130E+8	1.410502E-10	NaN
1138	1.000000	0.370197	7.37619e+06	-57039.1	1055.82	-29737.7	0.000000	0.000000	6.370881	0.031920	NaN	0.000000	0.001599	0.001732	28.0816	0.080747	0.001902	42.4631	53.7715	-171.52	0.050839	0.368931	-0.631172	-0.632437	0.031920	42.4631	-0.631735	-2.274328E+8	-1.403504E-10	NaN
1138	1.000000	0.378183	7.37619e+06	-57039.1	1055.82	-29737.7	0.000000	0.000000	6.378867	0.038070	NaN	0.000000	0.001623	0.001703	28.0817	0.069030	0.001886	36.5956	-150.066	-167.718	0.093882	0.376852	-0.623185	-0.624516	0.038070	36.5956	-0.623966	-1.778821E+8	-2.140155E-10	NaN
1138	1.000000	0.386225	7.37619e+06	-57039.1	1055.82	-29737.7	0.000000	0.000000	6.386911	0.069539	NaN	0.000000	0.001615	0.001678	28.0817	0.084479	0.002161	39.0874	147.312	-161.855	0.019706	0.384870	-0.615143	-0.616499	0.069539	39.0874	-0.616477	-1.403482E+8	-4.954754E-10	NaN
1138	1.000000	0.394215	7.37619e+06	-57039.1	1055.82	-29737.7	0.000000	0.000000	6.394899	0.019175	NaN	0.000000	0.001645	0.001738	28.0817	0.171533	0.001980	86.6179	-113.711	-164.763	-0.024612	0.392887	-0.607153	-0.608481	0.019175	86.6179	-0.607319	-1.050084E+8	-1.826032E-10	NaN
1138	1.000000	0.402217	7.37619e+06	-57039.1	1055.82	-29737.7	0.000000	0.000000	6.402902	0.070130	NaN	0.000000	0.001618	0.001753	28.0821	0.073732	0.002076	35.5187	119.868	-166.313	0.098522	0.400938	-0.599152	-0.600430	0.070130	35.5187	-0.600632	-8.495143E+7	-8.255350E-10	NaN
1138	1.000000	0.410225	7.37619e+06	-57039.1	1055.82	-29737.7	0.000000	0.000000	6.410910	0.051465	NaN	0.000000	0.001664	0.001741	28.0812	0.028461	0.002033	13.9968	156.149	-162.714	0.075519	0.408913	-0.591143	-0.592455	0.051465	13.9968	-0.593901	-6.861789E+7	-7.500221E-10	NaN
1138	1.000000	0.418226	7.37619e+06	-57039.1	1055.82	-29737.7	0.000000	0.000000	6.418911	0.045479	NaN	0.000000	0.001639	0.001719	28.0815	0.133789	0.002041	65.5645	-28.0051	-166.935	-0.018237	0.416929	-0.583142	-0.584439	0.045479	65.5645	-0.583663	-4.957520E+7	-9.173661E-10	NaN
1138	1.000000	0.426222	7.37619e+06	-57039.1	1055.82	-29737.7	0.000000	0.000000	6.426904	0.000991	NaN	0.000000	0.001631	0.001773	28.0818	0.024713	0.002024	12.2074	-157.539	-170.448	0.045409	0.424941	-0.575147	-0.576427	0.000991	12.2074	-0.575208	-3.789350E+7	-2.615344E-11	NaN
1138	1.000000	0.434224	7.37619e+06	-57039.1	1055.82	-29737.7	0.000000	0.000000	6.434908	0.050079	NaN	0.000000	0.001654	0.001735	28.0815	0.021142	0.002047	10.3285	58.3368	-167.184	0.017774	0.432918	-0.567145	-0.568450	0.050079	10.3285	-0.570781	-3.291735E+7	-1.521349E-9	NaN
1138	1.000000	0.442229	7.37619e+06	-57039.1	1055.82	-29737.7	0.000000	0.000000	6.442915	0.068438	NaN	0.000000	0.001658	0.001704	28.0819	0.006994	0.002065	3.386949	-60.9082	-169.643	0.094921	0.440913	-0.559139	-0.560455	0.068438	3.386949	-0.574294	-3.680840E+7	-1.859304E-9	NaN
1138	1.000000	0.450238	7.37619e+06	-57039.1	1055.82	-29737.7	0.000000	0.000000	6.450922	0.037502	NaN	0.000000	0.001644	0.001707	28.0816	0.083474	0.002115	39.4672	114.257	-166.933	0.050020	0.448915	-0.551130	-0.552453	0.037502	39.4672	-0.551843	-1.800846E+7	-2.082462E-9	NaN
1138	1.000000	0.458224	7.37619e+06	-57039.1	1055.82	-29737.7	0.000000	0.000000	6.458910	0.078943	NaN	0.000000	0.001629	0.001759	28.0815	0.050522	0.001941	26.0247	77.9208	-166.205	-0.021275	0.456893	-0.543144	-0.544475	0.078943	26.0247	-0.545419	-1.467194E+7	-5.380524E-9	NaN
1138	1.000000	0.466236	7.37619e+06	-57039.1	1055.82	-29737.7	0.000000	0.000000	6.466918	-0.010467	NaN	0.000000	0.001634	0.001737	28.0815	0.032644	0.001919	17.0074	88.1222	-166.357	-0.014456	0.464979	-0.535133	-0.536390	-0.010467	17.0074	-0.534671	-1.040934E+7	1.005561E-9	NaN
1138	1.000000	0.474250	7.37619e+06	-57039.1	1055.82	-29737.7	0.000000	0.000000	6.474934	0.046273	NaN	0.000000	0.001659	0.001686	28.0815	0.112380	0.002029	55.3922	-128.757	-167.75	0.043737	0.472867	-0.527118	-0.528501	0.046273	55.3922	-0.527745	-8.34164e+06	-5.547217E-9	NaN
1138	1.000000	0.482238	7.37619e+06	-57039.1	1055.82	-29737.7	0.000000	0.000000	6.482923	0.054018	NaN	0.000000	0.001629	0.001681	28.0829	0.072933	0.001914	38.1002	-46.4641	-166.04	0.094412	0.480969	-0.519130	-0.520400	0.054018	38.1002	-0.520194	-6.55078e+06	-8.246049E-9	NaN
1138	1.000000	0.490229	7.37619e+06	-57039.1	1055.82	-29737.7	0.000000	0.000000	6.490911	0.002056	NaN	0.000000	0.001628	0.001751	28.0825	0.104249	0.001937	53.8258	52.7833	-167.296	0.058786	0.488965	-0.511140	-0.512403	0.002056	53.8258	-0.511168	-4.90554e+06	-4.190524E-10	NaN
1138	1.000000	0.498241	7.37619e+06	-57039.1	1055.82	-29737.7	0.000000	0.000000	6.498924	0.023785	NaN	0.000000	0.001641	0.001759	28.0827	0.085580	0.002022	42.3291	-21.1442	-163.202	-0.003504	0.496992	-0.503128	-0.504377	0.023785	42.3291	-0.503549	-3.84164e+06	-6.191443E-9	NaN
1138	1.000000	0.506250	7.37619e+06	-57039.1	1055.82	-29737.7	0.000000	0.000000	6.506932	-0.007009	NaN	0.000000	0.001606	0.001722	28.0827	0.078013	0.002105	37.0623	-162.007	-165.428	0.044994	0.504976	-0.495119	-0.496392	-0.007009	37.0623	-0.494977	-2.91682e+06	2.403069E-9	NaN
1138	1.000000	0.514259	7.37619e+06	-57039.1	1055.82	-29737.7	0.000000	0.000000	6.514941	-0.011879	NaN	0.000000	0.001627	0.001755	28.0827	0.029558	0.001878	15.7426	21.3198	-166.471	-0.043676	0.512967	-0.487109	-0.488402	-0.011879	15.7426	-0.486543	-2.22367e+06	5.342293E-9	NaN
1138	1.000000	0.522261	7.37619e+06	-57039.1	1055.82	-29737.7	0.000000	0.000000	6.522947	0.080854	NaN	0.000000	0.001621	0.001691	28.0828	0.076139	0.002010	37.8844	-37.3573	-169.744	0.121637	0.520996	-0.479107	-0.480372	0.080854	37.8844	-0.480708	-1.84261e+06	-4.388021E-8	NaN
1138	1.000000	0.530295	7.37619e+06	-57039.1	1055.82	-29737.7	0.000000	0.000000	6.530980	0.043518	NaN	0.000000	0.001626	0.001714	28.0826	0.068567	0.001991	34.4421	-47.4072	-165.254	0.014351	0.528937	-0.471073	-0.472431	0.043518	34.4421	-0.472021	-1.39233e+06	-3.125560E-8	NaN
1138	1.000000	0.538280	7.37619e+06	-57039.1	1055.82	-29737.7	0.000000	0.000000	6.538963	0.019953	NaN	0.000000	0.001627	0.001752	28.0829	0.145238	0.001921	75.6218	-75.2606	-164.178	0.027858	0.536963	-0.463089	-0.464405	0.019953	75.6218	-0.463286	-1.04999e+06	-1.900283E-8	NaN
1138	1.000000	0.546261	7.37619e+06	-57039.1	1055.82	-29737.7	0.000000	0.000000	6.546942	-0.043720	NaN	0.000000	0.001606	0.001756	28.0826	0.058150	0.001913	30.3947	-33.9815	-164.342	-0.045345	0.544964	-0.455107	-0.456404	-0.043720	30.3947	-0.454028	-778116	5.618754E-8	NaN
1138	1.000000	0.554266	7.37619e+06	-57039.1	1055.82	-29737.7	0.000000	0.000000	6.554950	0.026886	NaN	0.000000	0.001624	0.001716	28.0828	0.066859	0.001952	34.2498	113.014	-164.821	0.071115	0.552915	-0.447102	-0.448453	0.026886	34.2498	-0.447691	-633603	-4.243323E-8	NaN
1138	1.000000	0.562267	7.37619e+06	-57039.1	1055.82	-29737.7	0.000000	0.000000	6.562950	0.017436	NaN	0.000000	0.001617	0.001726	28.0827	0.054143	0.001951	27.7551	-91.9451	-165.065	-0.052508	0.560982	-0.439102	-0.440387	0.017436	27.7551	-0.439573	-486781	-3.581868E-8	NaN
1138	1.000000	0.570283	7.37619e+06	-57039.1	1055.82	-29737.7	0.000000	0.000000	6.570967	0.036856	NaN	0.000000	0.001632	0.001743	28.0828	0.026170	0.001943	13.4685	-63.0156	-166.711	0.071838	0.568980	-0.431085	-0.432389	0.036856	13.4685	-0.433138	-394849	-9.334165E-8	NaN
1138	1.000000	0.578270	7.37619e+06	-57039.1	1055.82	-29737.7	0.000000	0.000000	6.578955	0.051264	NaN	0.000000	0.001655	0.001740	28.083	0.129248	0.001856	69.634	95.5739	-166.224	-0.035180	0.576925	-0.423098	-0.424443	0.051264	69.634	-0.423651	-289845	-1.768662E-7	NaN
1138	1.000000	0.586286	7.37619e+06	-57039.1	1055.82	-29737.7	0.000000	0.000000	6.586971	0.037422	NaN	0.000000	0.001649	0.001711	28.0832	0.064547	0.001994	32.3641	-41.4993	-162.739	0.063286	0.584949	-0.415082	-0.416419	0.037422	32.3641	-0.415949	-225388	-1.660351E-7	NaN
1138	1.000000	0.594316	7.37619e+06	-57039.1	1055.82	-29737.7	0.000000	0.000000	6.594999	-6.249904E-5	NaN	0.000000	0.001634	0.001704	28.0835	0.072776	0.001953	37.2645	-12.0855	-167.925	0.051948	0.592998	-0.407052	-0.408371	-6.249904E-5	37.2645	-0.407051	-168440	3.710467E-10	NaN
1138	1.000000	0.602314	7.37619e+06	-57039.1	1055.82	-29737.7	0.000000	0.000000	6.602997	0.014142	NaN	0.000000	0.001646	0.001728	28.083	0.058473	0.002020	28.944	-1.860860	-166.851	-0.013815	0.601045	-0.399055	-0.400323	0.014142	28.944	-0.399421	-131141	-1.078381E-7	NaN
1138	1.000000	0.610299	7.37619e+06	-57039.1	1055.82	-29737.7	0.000000	0.000000	6.610981	-0.016443	NaN	0.000000	0.001663	0.001698	28.0832	0.035110	0.001987	17.671	-1.863218	-163.313	0.019327	0.609032	-0.391069	-0.392336	-0.016443	17.671	-0.390371	-97382.1	1.688469E-7	NaN
1138	1.000000	0.618306	7.37619e+06	-57039.1	1055.82	-29737.7	0.000000	0.000000	6.618989	0.000975	NaN	0.000000	0.001633	0.001734	28.0819	0.106936	0.002120	50.438	-67.1707	-167.24	0.013809	0.617001	-0.383062	-0.384367	0.000975	50.438	-0.383077	-76563.7	-1.272801E-8	NaN
1138	1.000000	0.626300	7.37619e+06	-57039.1	1055.82	-29737.7	0.000000	0.000000	6.626983	-0.008849	NaN	0.000000	0.001619	0.001733	28.0821	0.047776	0.001959	24.3844	87.9509	-168.15	0.000221	0.625019	-0.375068	-0.376349	-0.008849	24.3844	-0.374796	-58228.2	1.519729E-7	NaN
1138	1.000000	0.634312	7.37619e+06	-57039.1	1055.82	-29737.7	0.000000	0.000000	6.634999	0.113113	NaN	0.000000	0.001626	0.001730	28.082	0.163782	0.001945	84.2021	46.9444	-162.721	0.117944	0.632993	-0.367057	-0.368376	0.113113	84.2021	-0.368064	-46584.2	-2.428137E-6	NaN
1138	1.000000	0.642313	7.37619e+06	-57039.1	1055.82	-29737.7	0.000000	0.000000	6.642997	0.032874	NaN	0.000000	0.001659	0.001705	28.0819	0.111060	0.001924	57.736	148.839	-165.021	-0.001908	0.641004	-0.359055	-0.360364	0.032874	57.736	-0.359482	-35023.4	-9.386318E-7	NaN
1138	1.000000	0.650303	7.37619e+06	-57039.1	1055.82	-29737.7	0.000000	0.000000	6.650987	0.020610	NaN	0.000000	0.001673	0.001721	28.0821	0.041496	0.001936	21.4353	-155.608	-167.481	0.018926	0.649017	-0.351065	-0.352351	0.020610	21.4353	-0.351786	-27096.6	-7.606191E-7	NaN
1138	1.000000	0.658304	7.37619e+06	-57039.1	1055.82	-29737.7	0.000000	0.000000	6.658988	0.032181	NaN	0.000000	0.001660	0.001706	28.0819	0.109003	0.001938	56.2343	121.406	-163.543	0.040543	0.657005	-0.343064	-0.344363	0.032181	56.2343	-0.343494	-20532.4	-1.567320E-6	NaN
1138	1.000000	0.666317	7.37619e+06	-57039.1	1055.82	-29737.7	0.000000	0.000000	6.667000	0.013097	NaN	0.000000	0.001682	0.001740	28.0819	0.044777	0.001949	22.9722	-163.648	-168.166	-0.046086	0.665062	-0.335052	-0.336307	0.013097	22.9722	-0.335479	-15688.7	-8.348232E-7	NaN
1138	1.000000	0.674320	7.37619e+06	-57039.1	1055.82	-29737.7	0.000000	0.000000	6.675001	-0.037826	NaN	0.000000	0.001660	0.001714	28.082	0.057677	0.002052	28.109	133.722	-165.02	-0.019392	0.673052	-0.327049	-0.328316	-0.037826	28.109	-0.326039	-11412.7	3.314376E-6	NaN
1138	1.000000	0.682355	7.37619e+06	-57039.1	1055.82	-29737.7	0.000000	0.000000	6.683040	0.062733	NaN	0.000000	0.001634	0.001739	28.0819	0.020174	0.001947	10.3617	48.9033	-163.885	0.000558	0.681066	-0.319013	-0.320302	0.062733	10.3617	-0.323554	-10493	-5.978631E-6	NaN
1138	1.000000	0.690334	7.37619e+06	-57039.1	1055.82	-29737.7	0.000000	0.000000	6.691017	-3.450519E-5	NaN	0.000000	0.001619	0.001725	28.0828	0.077126	0.002056	37.5145	-156.833	-166.795	-0.037406	0.689006	-0.311034	-0.312362	-3.450519E-5	37.5145	-0.311034	-6860.36	5.029650E-9	NaN
1138	1.000000	0.698321	7.37619e+06	-57039.1	1055.82	-29737.7	0.000000	0.000000	6.699007	0.081392	NaN	0.000000	0.001631	0.001742	28.0819	0.058375	0.001954	29.8801	-130.848	-166.326	0.040527	0.697011	-0.303047	-0.304357	0.081392	29.8801	-0.305090	-5601.3	-1.453087E-5	NaN
1138	1.000000	0.706351	7.37619e+06	-57039.1	1055.82	-29737.7	0.000000	0.000000	6.707034	-0.004359	NaN	0.000000	0.001685	0.001729	28.0818	0.112832	0.002017	55.9371	147.937	-164.137	-0.019046	0.705033	-0.295017	-0.296335	-0.004359	55.9371	-0.294958	-3957.91	1.101271E-6	NaN
1138	1.000000	0.714348	7.37619e+06	-57039.1	1055.82	-29737.7	0.000000	0.000000	6.715030	-0.022820	NaN	0.000000	0.001639	0.001731	28.0819	0.109005	0.001985	54.909	-27.6639	-164.729	0.027579	0.713035	-0.287020	-0.288333	-0.022820	54.909	-0.286708	-2978.06	7.662626E-6	NaN
1138	1.000000	0.722369	7.37619e+06	-57039.1	1055.82	-29737.7	0.000000	0.000000	6.723052	0.025722	NaN	0.000000	0.001640	0.001715	28.0817	0.018863	0.002043	9.231581	-14.6686	-163.866	0.033626	0.721052	-0.279000	-0.280316	0.025722	9.231581	-0.281089	-2451.31	-1.049331E-5	NaN
1138	1.000000	0.730371	7.37619e+06	-57039.1	1055.82	-29737.7	0.000000	0.000000	6.731053	-0.025720	NaN	0.000000	0.001638	0.001733	28.0821	0.043388	0.002137	20.2997	-11.8755	-166.389	-0.076252	0.729074	-0.270997	-0.272294	-0.025720	20.2997	-0.270047	-1668.22	1.541785E-5	NaN
1138	1.000000	0.738339	7.37619e+06	-57039.1	1055.82	-29737.7	0.000000	0.000000	6.739024	0.045928	NaN	0.000000	0.001646	0.001740	28.0818	0.046755	0.002043	22.8869	-151.419	-164.043	0.068776	0.737027	-0.263029	-0.264341	0.045928	22.8869	-0.264534	-1374.93	-3.340413E-5	NaN
1138	1.000000	0.746352	7.37619e+06	-57039.1	1055.82	-29737.7	0.000000	0.000000	6.747039	0.104975	NaN	0.000000	0.001598	0.001737	28.0821	0.031205	0.002111	14.7829	159.783	-165.015	0.012996	0.745009	-0.255016	-0.256359	0.104975	14.7829	-0.260342	-1186.21	-8.849640E-5	NaN
1138	1.000000	0.754388	7.37619e+06	-57039.1	1055.82	-29737.7	0.000000	0.000000	6.755073	0.044541	NaN	0.000000	0.001642	0.001745	28.0829	0.066092	0.002048	32.2779	64.1825	-162.964	0.057134	0.752995	-0.246980	-0.248373	0.044541	32.2779	-0.248015	-766.009	-5.814645E-5	NaN
1138	1.000000	0.762346	7.37619e+06	-57039.1	1055.82	-29737.7	0.000000	0.000000	6.763030	0.035972	NaN	0.000000	0.001641	0.001727	28.083	0.048119	0.001934	24.8827	71.9542	-167.944	-0.018123	0.761056	-0.239022	-0.240312	0.035972	24.8827	-0.240106	-577.049	-6.233717E-5	NaN
1138	1.000000	0.770318	7.37619e+06	-57039.1	1055.82	-29737.7	0.000000	0.000000	6.771000	-0.023146	NaN	0.000000	0.001643	0.001733	28.083	0.143676	0.001941	74.0254	-13.3275	-162.606	-0.034827	0.769082	-0.231050	-0.232287	-0.023146	74.0254	-0.230816	-412.467	5.611529E-5	NaN
1138	1.000000	0.778404	7.37619e+06	-57039.1	1055.82	-29737.7	0.000000	0.000000	6.779089	0.062819	NaN	0.000000	0.001632	0.001693	28.0829	0.123247	0.001996	61.7383	-134.774	-167.781	0.099616	0.777038	-0.222965	-0.224330	0.062819	61.7383	-0.223728	-318.502	-0.000197	NaN
1138	1.000000	0.786385	7.37619e+06	-57039.1	1055.82	-29737.7	0.000000	0.000000	6.787069	0.047792	NaN	0.000000	0.001648	0.001698	28.0831	0.108755	0.002101	51.7759	123.746	-163.875	0.110504	0.785036	-0.214984	-0.216333	0.047792	51.7759	-0.215676	-236.8	-0.000202	NaN
1138	1.000000	0.794384	7.37619e+06	-57039.1	1055.82	-29737.7	0.000000	0.000000	6.795066	-0.005551	NaN	0.000000	0.001628	0.001735	28.083	0.076481	0.002142	35.697	22.4589	-167.641	-0.079380	0.793078	-0.206984	-0.208291	-0.005551	35.697	-0.206868	-170.6	3.253922E-5	NaN
1138	1.000000	0.802376	7.37619e+06	-57039.1	1055.82	-29737.7	0.000000	0.000000	6.803060	0.011198	NaN	0.000000	0.001625	0.001708	28.0832	0.104707	0.001991	52.5777	-137.605	-167.516	-0.021530	0.801109	-0.198992	-0.200260	0.011198	52.5777	-0.199152	-127.569	-8.777611E-5	NaN
1138	1.000000	0.810376	7.37619e+06	-57039.1	1055.82	-29737.7	0.000000	0.000000	6.811056	-0.063489	NaN	0.000000	0.001656	0.001722	28.0829	0.049665	0.002025	24.5256	72.1607	-165.276	-0.027883	0.809121	-0.190992	-0.192247	-0.063489	24.5256	-0.189050	-86.7264	0.000732	NaN
1138	1.000000	0.818366	7.37619e+06	-57039.1	1055.82	-29737.7	0.000000	0.000000	6.819049	-0.000743	NaN	0.000000	0.001639	0.001731	28.0831	0.058616	0.002027	28.919	74.0704	-169.135	-0.018413	0.817091	-0.183002	-0.184277	-0.000743	28.919	-0.182982	-68.5592	1.083241E-5	NaN
1138	1.000000	0.826367	7.37619e+06	-57039.1	1055.82	-29737.7	0.000000	0.000000	6.827049	-0.028219	NaN	0.000000	0.001618	0.001692	28.083	0.050022	0.001867	26.7866	-155.457	-165.55	-0.012866	0.825074	-0.175001	-0.176294	-0.028219	26.7866	-0.174211	-48.5749	0.000581	NaN
1138	1.000000	0.834393	7.37619e+06	-57039.1	1055.82	-29737.7	0.000000	0.000000	6.835076	0.008137	NaN	0.000000	0.001619	0.001656	28.0831	0.027291	0.001919	14.2253	-72.0412	-163.6	-0.083868	0.833106	-0.166975	-0.168263	0.008137	14.2253	-0.167404	-37.018	-0.000220	NaN
1138	1.000000	0.842390	7.37619e+06	-57039.1	1055.82	-29737.7	0.000000	0.000000	6.843074	0.037917	NaN	0.000000	0.001622	0.001659	28.083	0.042934	0.002112	20.3313	-83.0493	-165.285	0.084311	0.841102	-0.158978	-0.160266	0.037917	20.3313	-0.160377	-27.8408	-0.001362	NaN
1138	1.000000	0.850373	7.37619e+06	-57039.1	1055.82	-29737.7	0.000000	0.000000	6.851056	0.008787	NaN	0.000000	0.001684	0.001679	28.0829	0.124474	0.001974	63.0501	90.0614	-167.826	-0.027751	0.849152	-0.150995	-0.152216	0.008787	63.0501	-0.151100	-18.9686	-0.000463	NaN
1138	1.000000	0.858409	7.37619e+06	-57039.1	1055.82	-29737.7	0.000000	0.000000	6.859092	0.015729	NaN	0.000000	0.001702	0.001702	28.083	0.069121	0.001932	35.7846	4.858757	-163.542	0.035481	0.857103	-0.142959	-0.144265	0.015729	35.7846	-0.143289	-13.6281	-0.001154	NaN
1138	1.000000	0.866426	7.37619e+06	-57039.1	1055.82	-29737.7	0.000000	0.000000	6.867109	-0.011032	NaN	0.000000	0.001733	0.001687	28.0831	0.055267	0.002043	27.0574	-45.3392	-169.512	0.002644	0.865124	-0.134942	-0.136244	-0.011032	27.0574	-0.134636	-9.361292	0.001178	NaN
1138	1.000000	0.874447	7.37619e+06	-57039.1	1055.82	-29737.7	0.000000	0.000000	6.875132	0.071235	NaN	0.000000	0.001723	0.001672	28.0832	0.017838	0.001934	9.223268	-113.374	-167.295	0.054992	0.873115	-0.126922	-0.128253	0.071235	9.223268	-0.132714	-8.599644	-0.008283	NaN
1138	1.000000	0.882396	7.37619e+06	-57039.1	1055.82	-29737.7	0.000000	0.000000	6.883081	0.043566	NaN	0.000000	0.001732	0.001675	28.0834	0.024486	0.001955	12.5219	-124.032	-166.708	-0.044956	0.881122	-0.118972	-0.120246	0.043566	12.5219	-0.121582	-5.198755	-0.008380	NaN
1138	1.000000	0.890415	7.37619e+06	-57039.1	1055.82	-29737.7	0.000000	0.000000	6.891099	0.014948	NaN	0.000000	0.001716	0.001697	28.0821	0.019909	0.001952	10.2016	6.522742	-166.33	0.007654	0.889059	-0.110953	-0.112309	0.014948	10.2016	-0.112052	-3.318423	-0.004504	NaN
1138	1.000000	0.898438	7.37619e+06	-57039.1	1055.82	-29737.7	0.000000	0.000000	6.899121	0.002980	NaN	0.000000	0.001660	0.001716	28.082	0.106256	0.001894	56.1063	-152.863	-169.221	0.076746	0.897134	-0.102930	-0.104234	0.002980	56.1063	-0.102970	-2.123680	-0.001403	NaN
1138	1.000000	0.906411	7.37619e+06	-57039.1	1055.82	-29737.7	0.000000	0.000000	6.907096	0.065559	NaN	0.000000	0.001635	0.001719	28.0818	0.134048	0.002076	64.5746	-83.8982	-165.183	0.087713	0.905145	-0.094957	-0.096223	0.065559	64.5746	-0.095719	-1.464732	-0.044758	NaN
1138	1.000000	0.914408	7.37619e+06	-57039.1	1055.82	-29737.7	0.000000	0.000000	6.915092	0.031148	NaN	0.000000	0.001652	0.001668	28.082	0.086032	0.001965	43.7897	7.821322	-164.703	-0.072010	0.913122	-0.086960	-0.088246	0.031148	43.7897	-0.087493	-0.943083	-0.033028	NaN
1138	1.000000	0.922424	7.37619e+06	-57039.1	1055.82	-29737.7	0.000000	0.000000	6.923107	0.003946	NaN	0.000000	0.001646	0.001676	28.0821	0.092387	0.001904	48.5277	-106.663	-169.639	-0.011096	0.921138	-0.078944	-0.080230	0.003946	48.5277	-0.079005	-0.584431	-0.006752	NaN
1138	1.000000	0.930416	7.37619e+06	-57039.1	1055.82	-29737.7	0.000000	0.000000	6.931100	0.049025	NaN	0.000000	0.001655	0.001689	28.0819	0.071067	0.002066	34.4047	-65.8895	-165.08	0.011058	0.929137	-0.070953	-0.072231	0.049025	34.4047	-0.072021	-0.386065	-0.126987	NaN
1138	1.000000	0.938414	7.37619e+06	-57039.1	1055.82	-29737.7	0.000000	0.000000	6.939095	-0.045488	NaN	0.000000	0.001601	0.001682	28.0826	0.041655	0.002074	20.0843	-134.969	-164.708	0.020745	0.937178	-0.062954	-0.064190	-0.045488	20.0843	-0.061256	-0.195599	0.232558	NaN
1138	1.000000	0.946472	7.37619e+06	-57039.1	1055.82	-29737.7	0.000000	0.000000	6.947156	0.041985	NaN	0.000000	0.001629	0.001676	28.0818	0.063042	0.002058	30.6326	-37.6647	-164.632	0.038933	0.945090	-0.054896	-0.056279	0.041985	30.6326	-0.055924	-0.137118	-0.306193	NaN
1138	1.000000	0.954418	7.37619e+06	-57039.1	1055.82	-29737.7	0.000000	0.000000	6.955101	-0.008640	NaN	0.000000	0.001634	0.001663	28.0819	0.052801	0.001992	26.51	-119.422	-163.018	0.059933	0.953114	-0.046950	-0.048254	-0.008640	26.51	-0.046705	-0.072460	0.119239	NaN
1138	1.000000	0.962442	7.37619e+06	-57039.1	1055.82	-29737.7	0.000000	0.000000	6.963126	0.050878	NaN	0.000000	0.001633	0.001666	28.0818	0.083240	0.001961	42.4392	116.255	-165.453	-0.010769	0.961172	-0.038927	-0.040197	0.050878	42.4392	-0.039826	-0.044675	-1.138851	NaN
1138	1.000000	0.970438	7.37619e+06	-57039.1	1055.82	-29737.7	0.000000	0.000000	6.971122	0.030853	NaN	0.000000	0.001621	0.001670	28.0816	0.131183	0.002090	62.7674	-122.073	-168.201	0.067995	0.969098	-0.030930	-0.032270	0.030853	62.7674	-0.031299	-0.025031	-1.232614	NaN
1138	1.000000	0.978445	7.37619e+06	-57039.1	1055.82	-29737.7	0.000000	0.000000	6.979127	-0.032192	NaN	0.000000	0.001658	0.001681	28.0821	0.066127	0.001911	34.6071	-158.734	-163.474	0.001341	0.977142	-0.022923	-0.024226	-0.032192	34.6071	-0.022225	-0.014309	2.249795	NaN
1138	1.000000	0.986470	7.37619e+06	-57039.1	1055.82	-29737.7	0.000000	0.000000	6.987154	0.024346	NaN	0.000000	0.001643	0.001688	28.0818	0.082044	0.002010	40.8118	-130.242	-166.612	0.073330	0.985151	-0.014898	-0.016218	0.024346	40.8118	-0.015346	-0.009484	-2.567221	NaN
1138	1.000000	0.994471	7.37619e+06	-57039.1	1055.82	-29737.7	0.000000	0.000000	6.995155	0.019969	NaN	0.000000	0.001631	0.001702	28.0817	0.047611	0.001965	24.2235	51.2305	-170.737	0.104252	0.993173	-0.006897	-0.008195	0.019969	24.2235	-0.007515	-0.004947	-4.036826	NaN
1138	1.000000	1.002476	7.37619e+06	-57039.1	1055.82	-29737.7	0.000000	0.000000	7.003312	3.720954	NaN	0.000000	0.001624	0.001691	28.0819	4.635168	0.002018	2297.24	13.1532	-170.44	2.454748	1.001164	0.001108	-0.000204	3.720954	2297.24	-0.000107	-7.971973E-5	-46675.4	NaN
1138	2.000000	1.008026	7.37619e+06	-57039.1	1055.82	-29737.7	0.000000	0.000000	7.009099	9.504949	NaN	0.000000	0.001639	0.001677	28.0818	9.476996	0.001560	6076.25	1.763681	-170.429	8.235775	1.007732	0.006657	0.006364	9.504949	6076.25	0.005484	0.004580	2075.54	82035
1138	2.000000	1.010055	7.37619e+06	-57039.1	1055.82	-29737.7	0.000000	0.000000	7.011197	11.1654	NaN	0.000000	0.001653	0.001665	28.0827	11.895	0.001820	6535.81	9.699332	-176.102	11.5441	1.009738	0.008687	0.008370	11.1654	6535.81	0.007405	0.006438	1734.33	74421.8
1138	2.000000	1.012058	7.37619e+06	-57039.1	1055.82	-29737.7	0.000000	0.000000	7.013335	14.4457	NaN	0.000000	0.001663	0.001677	28.0831	14.3631	0.001754	8187.55	9.398209	-177.853	14.1097	1.011722	0.010690	0.010354	14.4457	8187.55	0.009367	0.008486	1702.28	81203.3
1138	2.000000	1.014015	7.37619e+06	-57039.1	1055.82	-29737.7	0.000000	0.000000	7.015396	16.9791	NaN	0.000000	0.001664	0.001704	28.083	15.3506	0.001620	9477.14	-0.228093	-170.182	17.0187	1.013778	0.012647	0.012410	16.9791	9477.14	0.011303	0.010666	1591.9	83839.9
1138	2.000000	1.015954	7.37619e+06	-57039.1	1055.82	-29737.7	0.000000	0.000000	7.017555	22.3227	NaN	0.000000	0.001668	0.001681	28.083	18.7884	0.001848	10165.2	0.876256	-171.862	20.2349	1.015659	0.014586	0.014291	22.3227	10165.2	0.012939	0.012634	1766.88	82626.7
1138	2.000000	1.017926	7.37619e+06	-57039.1	1055.82	-29737.7	0.000000	0.000000	7.019640	25.0728	NaN	0.000000	0.001638	0.001680	28.0829	20.1238	0.001743	11545.9	8.296295	-179.868	24.5693	1.017761	0.016557	0.016393	25.0728	11545.9	0.014929	0.015190	1650.57	85589
1138	2.000000	1.019964	7.37619e+06	-57039.1	1055.82	-29737.7	0.000000	0.000000	7.021739	26.5553	NaN	0.000000	0.001667	0.001707	28.0835	22.2782	0.001760	12659	3.712210	-176.154	25.6377	1.019728	0.018595	0.018359	26.5553	12659	0.017022	0.018077	1469	86021.6
1138	2.000000	1.022010	7.37619e+06	-57039.1	1055.82	-29737.7	0.000000	0.000000	7.023977	31.2226	NaN	0.000000	0.001639	0.001713	28.0828	24.6899	0.001841	13408.5	6.270903	-179.547	31.8415	1.021756	0.020642	0.020388	31.2226	13408.5	0.018895	0.020836	1498.5	84869
1138	2.000000	1.023983	7.37619e+06	-57039.1	1055.82	-29737.7	0.000000	0.000000	7.026066	34.0389	NaN	0.000000	0.001642	0.001665	28.083	26.611	0.001853	14364.1	8.816330	177.189	33.5921	1.023689	0.022614	0.022320	34.0389	14364.1	0.020837	0.023875	1425.72	84933.7
1138	2.000000	1.025940	7.37619e+06	-57039.1	1055.82	-29737.7	0.000000	0.000000	7.028371	42.4978	NaN	0.000000	0.001639	0.001680	28.0828	28.3504	0.001889	15008.9	3.473961	-177.022	42.1748	1.025629	0.024572	0.024261	42.4978	15008.9	0.022448	0.026536	1601.5	84178.8
1138	2.000000	1.027961	7.37619e+06	-57039.1	1055.82	-29737.7	0.000000	0.000000	7.030687	49.6697	NaN	0.000000	0.001632	0.001688	28.0826	29.3928	0.001673	17571.9	4.281603	-179.093	49.1071	1.027583	0.026592	0.026215	49.6697	17571.9	0.024472	0.030063	1652.21	92592.9
1138	2.000000	1.029998	7.37619e+06	-57039.1	1055.82	-29737.7	0.000000	0.000000	7.032867	53.1552	NaN	0.000000	0.001633	0.001696	28.0839	32.3569	0.001885	17166.2	7.011056	178.987	55.2204	1.029640	0.028630	0.028272	53.1552	17166.2	0.026307	0.033437	1589.72	85769.8
1138	2.000000	1.031965	7.37619e+06	-57039.1	1055.82	-29737.7	0.000000	0.000000	7.035026	57.8157	NaN	0.000000	0.001647	0.001719	28.0827	34.7125	0.001874	18527.7	6.218501	178.818	57.6895	1.031661	0.030597	0.030292	57.8157	18527.7	0.028256	0.037207	1553.88	87757
1138	2.000000	1.033916	7.37619e+06	-57039.1	1055.82	-29737.7	0.000000	0.000000	7.037268	64.8779	NaN	0.000000	0.001628	0.001710	28.0829	36.2103	0.001829	19803.2	5.494590	177.195	62.5619	1.033539	0.032548	0.032170	64.8779	19803.2	0.030091	0.040933	1584.98	89427.7
1138	2.000000	1.035921	7.37619e+06	-57039.1	1055.82	-29737.7	0.000000	0.000000	7.039575	72.2194	NaN	0.000000	0.001630	0.001737	28.0829	37.8509	0.001723	21961.8	6.462572	176.666	71.4678	1.035530	0.034553	0.034162	72.2194	21961.8	0.032087	0.045180	1598.48	94399
1138	2.000000	1.037932	7.37619e+06	-57039.1	1055.82	-29737.7	0.000000	0.000000	7.041845	78.5342	NaN	0.000000	0.001668	0.001697	28.0826	39.1567	0.001717	22807.7	6.266494	176.333	78.9489	1.037614	0.036563	0.036246	78.5342	22807.7	0.033981	0.049400	1589.77	93754.8
1138	2.000000	1.039945	7.37619e+06	-57039.1	1055.82	-29737.7	0.000000	0.000000	7.044075	83.7992	NaN	0.000000	0.001677	0.001681	28.0839	42.2722	0.001706	24782.6	5.744639	175.809	84.8694	1.039651	0.038577	0.038283	83.7992	24782.6	0.036041	0.054197	1546.2	97259.4
1138	2.000000	1.041887	7.37619e+06	-57039.1	1055.82	-29737.7	0.000000	0.000000	7.046351	91.908	NaN	0.000000	0.001645	0.001700	28.0827	44.6342	0.001805	24730.2	5.755797	175.428	86.5568	1.041545	0.040519	0.040177	91.908	24730.2	0.037732	0.058297	1576.54	93578.4
1138	2.000000	1.043917	7.37619e+06	-57039.1	1055.82	-29737.7	0.000000	0.000000	7.048573	96.5886	NaN	0.000000	0.001655	0.001686	28.0828	46.9885	0.001778	26425.4	2.428839	178.187	96.4556	1.043645	0.042548	0.042277	96.5886	26425.4	0.039807	0.063531	1520.34	95786.1
1138	2.000000	1.045901	7.37619e+06	-57039.1	1055.82	-29737.7	0.000000	0.000000	7.050981	106.877	NaN	0.000000	0.001644	0.001690	28.0817	48.307	0.001719	28109.6	1.145380	179.345	104.8	1.045645	0.044532	0.044276	106.877	28109.6	0.041681	0.068444	1561.53	98165.8
1138	2.000000	1.047969	7.37619e+06	-57039.1	1055.82	-29737.7	0.000000	0.000000	7.053330	113.697	NaN	0.000000	0.001650	0.001731	28.0815	50.5239	0.001803	28019.4	6.909808	173.21	115.177	1.047610	0.046601	0.046242	113.697	28019.4	0.043558	0.073545	1545.94	94396.2
1138	2.000000	1.049844	7.37619e+06	-57039.1	1055.82	-29737.7	0.000000	0.000000	7.055678	125.195	NaN	0.000000	0.001638	0.001707	28.0818	51.5538	0.001714	30071.6	-0.072955	-179.825	121.93	1.049591	0.048476	0.048222	125.195	30071.6	0.045353	0.078594	1592.94	98002.2
1138	2.000000	1.051989	7.37619e+06	-57039.1	1055.82	-29737.7	0.000000	0.000000	7.057892	126.897	NaN	0.000000	0.001635	0.001729	28.0814	55.164	0.001787	30872.6	5.212281	175.192	130.025	1.051625	0.050621	0.050256	126.897	30872.6	0.047538	0.084955	1493.7	96772.6
1138	2.000000	1.053894	7.37619e+06	-57039.1	1055.82	-29737.7	0.000000	0.000000	7.060394	141.411	NaN	0.000000	0.001670	0.001671	28.0816	56.5545	0.001799	31440.9	6.776924	172.775	138.315	1.053535	0.052525	0.052167	141.411	31440.9	0.049152	0.089811	1574.54	95852.6
1138	2.000000	1.055935	7.37619e+06	-57039.1	1055.82	-29737.7	0.000000	0.000000	7.062692	147.633	NaN	0.000000	0.001669	0.001723	28.0817	59.6188	0.001883	31666.7	6.336879	174.024	150.393	1.055584	0.054567	0.054216	147.633	31666.7	0.051070	0.095749	1541.87	93499.1
1138	2.000000	1.057896	7.37619e+06	-57039.1	1055.82	-29737.7	0.000000	0.000000	7.065215	161.288	NaN	0.000000	0.001651	0.001713	28.0818	59.6074	0.001864	31983.1	4.037854	176.296	160.13	1.057562	0.056528	0.056194	161.288	31983.1	0.052746	0.101089	1595.5	91905.2
1138	2.000000	1.059937	7.37619e+06	-57039.1	1055.82	-29737.7	0.000000	0.000000	7.067497	167.155	NaN	0.000000	0.001622	0.001698	28.0818	62.3075	0.001863	33451.4	5.489109	173.529	168.725	1.059596	0.058569	0.058228	167.155	33451.4	0.054821	0.107896	1549.23	93043.3
1138	2.000000	1.061880	7.37619e+06	-57039.1	1055.82	-29737.7	0.000000	0.000000	7.069839	176.852	NaN	0.000000	0.001599	0.001726	28.0817	63.5515	0.001911	33257.5	2.935383	176.474	172.692	1.061654	0.060512	0.060286	176.852	33257.5	0.056523	0.113638	1556.28	90136.8
1138	2.000000	1.063924	7.37619e+06	-57039.1	1055.82	-29737.7	0.000000	0.000000	7.072348	188.158	NaN	0.000000	0.001612	0.001728	28.0818	64.7247	0.001732	37361.3	3.113311	174.81	188.345	1.063665	0.062556	0.062297	188.158	37361.3	0.058779	0.121465	1549.07	97942
1138	2.000000	1.065911	7.37619e+06	-57039.1	1055.82	-29737.7	0.000000	0.000000	7.074222	185.407	NaN	0.000000	0.001636	0.001738	28.082	67.2441	0.001729	38898	1.793199	175.385	184.581	1.065765	0.064543	0.064397	185.407	38898	0.060968	0.129303	1433.9	98831.9
1138	2.000000	1.067958	7.37619e+06	-57039.1	1055.82	-29737.7	0.000000	0.000000	7.077159	207.029	NaN	0.000000	0.001673	0.001754	28.082	68.9184	0.001797	38344.5	6.802817	171.856	207.818	1.067508	0.066590	0.066140	207.029	38344.5	0.062540	0.135075	1532.69	95321
1138	2.000000	1.069874	7.37619e+06	-57039.1	1055.82	-29737.7	0.000000	0.000000	7.079691	222.013	NaN	0.000000	0.001643	0.001714	28.0816	70.9369	0.001813	39127	3.534229	174.275	221.106	1.069595	0.068505	0.068227	222.013	39127	0.064250	0.141487	1569.14	95036.6
1138	2.000000	1.071904	7.37619e+06	-57039.1	1055.82	-29737.7	0.000000	0.000000	7.082076	230.631	NaN	0.000000	0.001650	0.001674	28.0817	72.9355	0.001815	40195.8	6.712750	171.756	228.574	1.071540	0.070536	0.070172	230.631	40195.8	0.066232	0.149101	1546.81	95107.3
1138	2.000000	1.073871	7.37619e+06	-57039.1	1055.82	-29737.7	0.000000	0.000000	7.084672	245.92	NaN	0.000000	0.001632	0.001686	28.0814	73.2099	0.001749	41855	3.267192	174.35	244.497	1.073530	0.072503	0.072162	245.92	41855	0.068096	0.156429	1572.08	96685.4
1138	2.000000	1.075805	7.37619e+06	-57039.1	1055.82	-29737.7	0.000000	0.000000	7.086957	254.452	NaN	0.000000	0.001627	0.001689	28.0813	77.0019	0.001823	42232.2	3.783355	172.976	249.656	1.075624	0.074437	0.074255	254.452	42232.2	0.069918	0.163755	1553.86	95349.7
1138	2.000000	1.077888	7.37619e+06	-57039.1	1055.82	-29737.7	0.000000	0.000000	7.089585	267.71	NaN	0.000000	0.001630	0.001736	28.0814	76.8937	0.001809	42515.9	3.131190	174.002	266.041	1.077603	0.076520	0.076234	267.71	42515.9	0.071797	0.171477	1561.2	93804
1138	2.000000	1.079934	7.37619e+06	-57039.1	1055.82	-29737.7	0.000000	0.000000	7.091886	273.906	NaN	0.000000	0.001653	0.001654	28.0828	80.2868	0.001793	44785.6	7.619827	169.005	277.888	1.079620	0.078565	0.078252	273.906	44785.6	0.073979	0.180648	1516.25	96270.9
1138	2.000000	1.081876	7.37619e+06	-57039.1	1055.82	-29737.7	0.000000	0.000000	7.094735	295.941	NaN	0.000000	0.001671	0.001651	28.0831	80.8866	0.001677	48236.6	9.389411	167.734	293.171	1.081501	0.080508	0.080133	295.941	48236.6	0.075907	0.188943	1566.3	101388
1138	2.000000	1.083972	7.37619e+06	-57039.1	1055.82	-29737.7	0.000000	0.000000	7.097245	306.005	NaN	0.000000	0.001637	0.001675	28.083	83.177	0.001887	44080.8	5.149126	172.381	311.661	1.083525	0.082604	0.082157	306.005	44080.8	0.077397	0.195475	1565.45	91091.4
1138	2.000000	1.085945	7.37619e+06	-57039.1	1055.82	-29737.7	0.000000	0.000000	7.099533	313.67	NaN	0.000000	0.001655	0.001711	28.0829	85.36	0.001844	46278.3	4.344222	171.923	314.395	1.085784	0.084577	0.084416	313.67	46278.3	0.079494	0.204837	1531.32	93421.5
1138	2.000000	1.087897	7.37619e+06	-57039.1	1055.82	-29737.7	0.000000	0.000000	7.102439	336.866	NaN	0.000000	0.001654	0.001666	28.0828	85.0516	0.001715	49607.2	2.545101	173.723	337.115	1.087655	0.086528	0.086287	336.866	49607.2	0.081435	0.213691	1576.41	98044.7
1138	2.000000	1.089785	7.37619e+06	-57039.1	1055.82	-29737.7	0.000000	0.000000	7.104773	347.694	NaN	0.000000	0.001635	0.001646	28.0829	88.1656	0.001857	47481.1	4.497262	171.729	342.485	1.089502	0.088417	0.088134	347.694	47481.1	0.082924	0.220600	1576.13	92361.6
1138	2.000000	1.091953	7.37619e+06	-57039.1	1055.82	-29737.7	0.000000	0.000000	7.107430	359.567	NaN	0.000000	0.001660	0.001665	28.0829	90.7423	0.001783	50884	6.416238	169.725	361.776	1.091534	0.090585	0.090166	359.567	50884	0.085285	0.231764	1551.43	96567.5
1138	2.000000	1.093904	7.37619e+06	-57039.1	1055.82	-29737.7	0.000000	0.000000	7.110071	376.353	NaN	0.000000	0.001606	0.001665	28.0831	90.8755	0.001747	52020.3	6.670483	168.776	375.046	1.093579	0.092536	0.092211	376.353	52020.3	0.087110	0.240569	1564.43	96900.5
1138	2.000000	1.095881	7.37619e+06	-57039.1	1055.82	-29737.7	0.000000	0.000000	7.112539	388.279	NaN	0.000000	0.001622	0.001653	28.083	94.042	0.001769	53158.7	2.295875	173.599	388.51	1.095512	0.094513	0.094144	388.279	53158.7	0.089035	0.250026	1552.95	97130.4
1138	2.000000	1.097802	7.37619e+06	-57039.1	1055.82	-29737.7	0.000000	0.000000	7.115147	404.985	NaN	0.000000	0.001656	0.001681	28.0828	95.1096	0.001899	50094	6.230445	170.432	400.519	1.097451	0.096434	0.096082	404.985	50094	0.090370	0.256685	1577.75	90335.5
1138	2.000000	1.099800	7.37619e+06	-57039.1	1055.82	-29737.7	0.000000	0.000000	7.117525	414.228	NaN	0.000000	0.001652	0.001691	28.083	97.2806	0.001674	58121.2	2.934029	172.333	409.186	1.099453	0.098432	0.098085	414.228	58121.2	0.093086	0.270480	1531.45	102103
1138	2.000000	1.101890	7.37619e+06	-57039.1	1055.82	-29737.7	0.000000	0.000000	7.120281	430.411	NaN	0.000000	0.001635	0.001676	28.0831	100.401	0.001881	53370.6	3.199144	172.756	429.627	1.101564	0.100522	0.100196	430.411	53370.6	0.094473	0.277657	1550.16	92538.2
1138	2.000000	1.103849	7.37619e+06	-57039.1	1055.82	-29737.7	0.000000	0.000000	7.122255	430.789	NaN	0.000000	0.001623	0.001663	28.0831	102.451	0.001812	56550.7	5.456150	169.147	430.798	1.103737	0.102480	0.102368	430.789	56550.7	0.096767	0.289715	1486.94	95989.9
1138	2.000000	1.105984	7.37619e+06	-57039.1	1055.82	-29737.7	0.000000	0.000000	7.125215	450.829	NaN	0.000000	0.001622	0.001689	28.0831	103.944	0.001742	59665.6	1.784814	173.076	458.479	1.105821	0.104616	0.104453	450.829	59665.6	0.098949	0.301407	1495.75	99293.5