File: remote_trans/data/nanoindenter/0828-1/data/Data_2025-08-06,11h17m57s/2025-07-22_16-23-58_1_390.txt
2025-07-22, 16:23:58, 1
Index	Phase	Displacement	Time	Pos X	Pos Y	Pos Z	Rot A	Rot B	Piezo Z	Force A	Force B	Gripper	Voltage A	Voltage B	Temperature	Amplitude force	Amplitude pos	Stiffness	Phase shift	Phase excitation	Force A raw	Displacement raw	HMax	HMax raw	Real Force	Real Stiffness	Contact Depth	Area	Hardness	Reduced Mod.
[#]	[#]	[um]	[s]	[um]	[um]	[um]	[m°]	[m°]	[um]	[uN]	[uN]	[V]	[V]	[V]	[°C]	[uN]	[um]	[N/m]	[°]	[°]	[uN]	[um]	[um]	[um]	[uN]	[N/m]	[um]	[um^2]	[MPa]	[MPa]
390	1.000000	0.002557	7.36888e+06	-57589.1	1005.82	-29736.9	0.000000	0.000000	6.002803	-0.027524	NaN	0.000000	0.001638	0.001654	28.0798	0.027577	0.000957	28.8148	145.655	-161.069	0.058243	0.001336	-1.056493	-1.057713	-0.027524	28.8148	-1.055776	-1.276604E+14	2.155996E-16	NaN
390	1.000000	0.010519	7.36888e+06	-57589.1	1005.82	-29736.9	0.000000	0.000000	6.010766	-0.019215	NaN	0.000000	0.001656	0.001635	28.0798	0.037315	0.000862	43.2749	136.17	-168.442	-0.052689	0.009218	-1.048530	-1.049831	-0.019215	43.2749	-1.048197	-1.009673E+14	1.903122E-16	NaN
390	1.000000	0.018534	7.36888e+06	-57589.1	1005.82	-29736.9	0.000000	0.000000	6.018783	0.018867	NaN	0.000000	0.001661	0.001639	28.0797	0.025866	0.001707	15.1489	-169.395	-169.472	-0.022101	0.017194	-1.040515	-1.041855	0.018867	15.1489	-1.041449	-8.193199E+13	-2.302777E-16	NaN
390	1.000000	0.026523	7.36888e+06	-57589.1	1005.82	-29736.9	0.000000	0.000000	6.026773	0.038544	NaN	0.000000	0.001633	0.001638	28.0812	0.076314	0.001825	41.806	111.989	-162.891	0.040701	0.025222	-1.032526	-1.033828	0.038544	41.806	-1.033217	-6.349744E+13	-6.070212E-16	NaN
390	1.000000	0.034534	7.36888e+06	-57589.1	1005.82	-29736.9	0.000000	0.000000	6.034781	-0.016962	NaN	0.000000	0.001678	0.001632	28.0811	0.053597	0.001901	28.1985	104.754	-167.667	-0.050955	0.033194	-1.024515	-1.025855	-0.016962	28.1985	-1.024064	-4.782211E+13	3.546913E-16	NaN
390	1.000000	0.042510	7.36888e+06	-57589.1	1005.82	-29736.9	0.000000	0.000000	6.042757	-0.007279	NaN	0.000000	0.001632	0.001645	28.0811	0.116894	0.001972	59.2876	123.596	-163.58	-0.044764	0.041187	-1.016540	-1.017862	-0.007279	59.2876	-1.016448	-3.777044E+13	1.927162E-16	NaN
390	1.000000	0.050492	7.36888e+06	-57589.1	1005.82	-29736.9	0.000000	0.000000	6.050737	-0.068295	NaN	0.000000	0.001620	0.001616	28.0811	0.086927	0.002014	43.1697	-138.645	-165.126	-0.050111	0.049226	-1.008557	-1.009824	-0.068295	43.1697	-1.007370	-2.850949E+13	2.395520E-15	NaN
390	1.000000	0.058511	7.36888e+06	-57589.1	1005.82	-29736.9	0.000000	0.000000	6.058758	-0.024657	NaN	0.000000	0.001635	0.001625	28.0809	0.045975	0.002080	22.1077	133.103	-164.822	0.008716	0.057195	-1.000538	-1.001854	-0.024657	22.1077	-0.999702	-2.247772E+13	1.096933E-15	NaN
390	1.000000	0.066494	7.36888e+06	-57589.1	1005.82	-29736.9	0.000000	0.000000	6.066738	-0.109865	NaN	0.000000	0.001577	0.001631	28.0809	0.039350	0.001952	20.156	169.809	-166.124	-0.135895	0.065183	-0.992555	-0.993867	-0.109865	20.156	-0.988467	-1.586579E+13	6.924660E-15	NaN
390	1.000000	0.074530	7.36888e+06	-57589.1	1005.82	-29736.9	0.000000	0.000000	6.074775	-0.056793	NaN	0.000000	0.001559	0.001613	28.0807	0.029231	0.001909	15.3101	-25.7456	-164.607	-0.011371	0.073224	-0.984520	-0.985825	-0.056793	15.3101	-0.981737	-1.287710E+13	4.410373E-15	NaN
390	1.000000	0.082501	7.36888e+06	-57589.1	1005.82	-29736.9	0.000000	0.000000	6.082750	0.014528	NaN	0.000000	0.001548	0.001584	28.0809	0.023065	0.002050	11.2528	120.667	-163.73	-0.010902	0.081221	-0.976548	-0.977829	0.014528	11.2528	-0.977516	-1.129664E+13	-1.286088E-15	NaN
390	1.000000	0.090515	7.36888e+06	-57589.1	1005.82	-29736.9	0.000000	0.000000	6.090760	-0.073398	NaN	0.000000	0.001555	0.001580	28.0809	0.041870	0.001976	21.1922	-115.616	-166.623	-0.026136	0.089192	-0.968534	-0.969857	-0.073398	21.1922	-0.965937	-7.886727E+12	9.306553E-15	NaN
390	1.000000	0.098524	7.36888e+06	-57589.1	1005.82	-29736.9	0.000000	0.000000	6.098773	0.018631	NaN	0.000000	0.001538	0.001617	28.0809	0.060449	0.001979	30.5496	158.54	-163.271	0.000599	0.097136	-0.960525	-0.961914	0.018631	30.5496	-0.960983	-6.762638E+12	-2.754974E-15	NaN
390	1.000000	0.106549	7.36888e+06	-57589.1	1005.82	-29736.9	0.000000	0.000000	6.106796	-0.009412	NaN	0.000000	0.001568	0.001626	28.0809	0.122348	0.001945	62.8997	178.6	-163.266	0.009181	0.105230	-0.952501	-0.953820	-0.009412	62.8997	-0.952388	-5.178905E+12	1.817412E-15	NaN
390	1.000000	0.114518	7.36888e+06	-57589.1	1005.82	-29736.9	0.000000	0.000000	6.114764	-0.034343	NaN	0.000000	0.001572	0.001619	28.0809	0.014056	0.002036	6.904625	-174.584	-164.325	-0.007098	0.113183	-0.944531	-0.945866	-0.034343	6.904625	-0.940801	-3.613606E+12	9.503888E-15	NaN
390	1.000000	0.122532	7.36888e+06	-57589.1	1005.82	-29736.9	0.000000	0.000000	6.122778	-0.041671	NaN	0.000000	0.001592	0.001617	28.0811	0.041295	0.001918	21.5347	-7.417331	-168.197	0.024579	0.121219	-0.936518	-0.937831	-0.041671	21.5347	-0.935066	-3.023918E+12	1.378053E-14	NaN
390	1.000000	0.130532	7.36888e+06	-57589.1	1005.82	-29736.9	0.000000	0.000000	6.130780	-0.000912	NaN	0.000000	0.001607	0.001587	28.0808	0.072547	0.001966	36.9092	15.819	-168.973	-0.008089	0.129244	-0.928517	-0.929805	-0.000912	36.9092	-0.928498	-2.465633E+12	3.697076E-16	NaN
390	1.000000	0.138544	7.36888e+06	-57589.1	1005.82	-29736.9	0.000000	0.000000	6.138789	-0.060488	NaN	0.000000	0.001591	0.001573	28.081	0.038790	0.001941	19.9879	88.5031	-163.339	0.008368	0.137260	-0.920506	-0.921789	-0.060488	19.9879	-0.918236	-1.792200E+12	3.375079E-14	NaN
390	1.000000	0.146572	7.36888e+06	-57589.1	1005.82	-29736.9	0.000000	0.000000	6.146822	0.075560	NaN	0.000000	0.001606	0.001591	28.0807	0.076188	0.001997	38.1605	92.3437	-166.649	0.104340	0.145216	-0.912478	-0.913833	0.075560	38.1605	-0.913963	-1.569222E+12	-4.815118E-14	NaN
390	1.000000	0.154518	7.36888e+06	-57589.1	1005.82	-29736.9	0.000000	0.000000	6.154763	-0.058711	NaN	0.000000	0.001618	0.001613	28.0808	0.054191	0.001951	27.7819	-148.589	-167.839	-0.044809	0.153255	-0.904532	-0.905795	-0.058711	27.7819	-0.902947	-1.113992E+12	5.270342E-14	NaN
390	1.000000	0.162542	7.36888e+06	-57589.1	1005.82	-29736.9	0.000000	0.000000	6.162788	-0.030872	NaN	0.000000	0.001612	0.001606	28.0797	0.113537	0.002060	55.1044	164.449	-167.703	-0.017670	0.161295	-0.896508	-0.897754	-0.030872	55.1044	-0.896087	-8.999007E+11	3.430559E-14	NaN
390	1.000000	0.170544	7.36888e+06	-57589.1	1005.82	-29736.9	0.000000	0.000000	6.170790	-0.035015	NaN	0.000000	0.001607	0.001603	28.0792	0.106024	0.001959	54.1248	-3.837669	-167.067	0.015287	0.169234	-0.888506	-0.889815	-0.035015	54.1248	-0.888020	-7.000895E+11	5.001501E-14	NaN
390	1.000000	0.178577	7.36888e+06	-57589.1	1005.82	-29736.9	0.000000	0.000000	6.178822	-0.066832	NaN	0.000000	0.001621	0.001577	28.0799	0.079260	0.002036	38.9254	135.305	-167.294	-0.013700	0.177219	-0.880472	-0.881830	-0.066832	38.9254	-0.879185	-5.317175E+11	1.256910E-13	NaN
390	1.000000	0.186559	7.36888e+06	-57589.1	1005.82	-29736.9	0.000000	0.000000	6.186806	-0.006758	NaN	0.000000	0.001578	0.001597	28.0795	0.017583	0.001999	8.794486	-36.0735	-169.738	-0.016890	0.185214	-0.872490	-0.873836	-0.006758	8.794486	-0.871914	-4.239747E+11	1.593934E-14	NaN
390	1.000000	0.194562	7.36888e+06	-57589.1	1005.82	-29736.9	0.000000	0.000000	6.194808	-0.048233	NaN	0.000000	0.001657	0.001589	28.0795	0.095742	0.001827	52.3953	-98.7515	-165.673	-0.049574	0.193241	-0.864487	-0.865808	-0.048233	52.3953	-0.863797	-3.292377E+11	1.464998E-13	NaN
390	1.000000	0.202558	7.36888e+06	-57589.1	1005.82	-29736.9	0.000000	0.000000	6.202805	-0.011594	NaN	0.000000	0.001664	0.001575	28.0796	0.085877	0.002089	41.0991	123.247	-166.426	-0.012140	0.201230	-0.856491	-0.857819	-0.011594	41.0991	-0.856280	-2.604732E+11	4.451276E-14	NaN
390	1.000000	0.210584	7.36888e+06	-57589.1	1005.82	-29736.9	0.000000	0.000000	6.210834	0.041109	NaN	0.000000	0.001675	0.001593	28.0793	0.086561	0.001930	44.8467	-151.305	-168.752	0.029039	0.209313	-0.848465	-0.849737	0.041109	44.8467	-0.849153	-2.085758E+11	-1.970947E-13	NaN
390	1.000000	0.218570	7.36888e+06	-57589.1	1005.82	-29736.9	0.000000	0.000000	6.218817	-0.022620	NaN	0.000000	0.001581	0.001561	28.0795	0.042444	0.001789	23.7238	78.08	-165.049	-0.001258	0.217272	-0.840479	-0.841778	-0.022620	23.7238	-0.839764	-1.556316E+11	1.453406E-13	NaN
390	1.000000	0.226589	7.36888e+06	-57589.1	1005.82	-29736.9	0.000000	0.000000	6.226838	0.030857	NaN	0.000000	0.001631	0.001598	28.0794	0.036458	0.002027	17.9843	-146.317	-166.87	0.022745	0.225282	-0.832460	-0.833767	0.030857	17.9843	-0.833747	-1.289935E+11	-2.392139E-13	NaN
390	1.000000	0.234589	7.36888e+06	-57589.1	1005.82	-29736.9	0.000000	0.000000	6.234836	-0.020816	NaN	0.000000	0.001670	0.001580	28.0793	0.072480	0.002062	35.1501	113.77	-164.719	-0.010535	0.233241	-0.824460	-0.825808	-0.020816	35.1501	-0.824016	-9.520630E+10	2.186444E-13	NaN
390	1.000000	0.242579	7.36888e+06	-57589.1	1005.82	-29736.9	0.000000	0.000000	6.242826	-0.019470	NaN	0.000000	0.001716	0.001592	28.0794	0.118357	0.001981	59.7544	117.35	-163.922	0.002195	0.241273	-0.816470	-0.817777	-0.019470	59.7544	-0.816226	-7.464924E+10	2.608163E-13	NaN
390	1.000000	0.250571	7.36888e+06	-57589.1	1005.82	-29736.9	0.000000	0.000000	6.250818	-0.000800	NaN	0.000000	0.001702	0.001589	28.0794	0.083126	0.002005	41.4551	-36.8587	-167.247	-0.009369	0.249273	-0.808479	-0.809777	-0.000800	41.4551	-0.808464	-5.857792E+10	1.366457E-14	NaN
390	1.000000	0.258559	7.36888e+06	-57589.1	1005.82	-29736.9	0.000000	0.000000	6.258805	-0.046244	NaN	0.000000	0.001711	0.001609	28.0795	0.091221	0.002107	43.2864	0.009743	-166.116	-0.109487	0.257207	-0.800490	-0.801843	-0.046244	43.2864	-0.799689	-4.452883E+10	1.038518E-12	NaN
390	1.000000	0.266574	7.36888e+06	-57589.1	1005.82	-29736.9	0.000000	0.000000	6.266822	0.015730	NaN	0.000000	0.001673	0.001617	28.0794	0.081012	0.001868	43.3606	24.2619	-161.736	-0.010445	0.265245	-0.792475	-0.793805	0.015730	43.3606	-0.792747	-3.584220E+10	-4.388667E-13	NaN
390	1.000000	0.274570	7.36888e+06	-57589.1	1005.82	-29736.9	0.000000	0.000000	6.274816	-0.035126	NaN	0.000000	0.001714	0.001629	28.0793	0.113900	0.001838	61.9537	-56.8435	-169.078	-0.059698	0.273332	-0.784479	-0.785717	-0.035126	61.9537	-0.784054	-2.730974E+10	1.286225E-12	NaN
390	1.000000	0.282589	7.36888e+06	-57589.1	1005.82	-29736.9	0.000000	0.000000	6.282836	-0.032492	NaN	0.000000	0.001726	0.001629	28.0797	0.040035	0.001941	20.6274	-105.616	-167.152	0.001968	0.281237	-0.776460	-0.777812	-0.032492	20.6274	-0.775278	-2.075216E+10	1.565734E-12	NaN
390	1.000000	0.290596	7.36888e+06	-57589.1	1005.82	-29736.9	0.000000	0.000000	6.290840	-0.071871	NaN	0.000000	0.001705	0.001642	28.0795	0.069542	0.002081	33.4245	107.248	-162.688	-0.020612	0.289278	-0.768454	-0.769771	-0.071871	33.4245	-0.766841	-1.593499E+10	4.510261E-12	NaN
390	1.000000	0.298600	7.36888e+06	-57589.1	1005.82	-29736.9	0.000000	0.000000	6.298847	-0.013574	NaN	0.000000	0.001711	0.001614	28.081	0.020838	0.001971	10.5749	-29.0592	-165.725	-0.002751	0.297271	-0.760450	-0.761779	-0.013574	10.5749	-0.759487	-1.265678E+10	1.072485E-12	NaN
390	1.000000	0.306605	7.36888e+06	-57589.1	1005.82	-29736.9	0.000000	0.000000	6.306851	-0.035685	NaN	0.000000	0.001681	0.001610	28.0808	0.096779	0.002021	47.894	-87.3123	-167.233	0.018283	0.305326	-0.752444	-0.753723	-0.035685	47.894	-0.751886	-9.974396E+9	3.577671E-12	NaN
390	1.000000	0.314626	7.36888e+06	-57589.1	1005.82	-29736.9	0.000000	0.000000	6.314872	-0.032825	NaN	0.000000	0.001746	0.001600	28.0809	0.088992	0.002010	44.285	-84.4094	-166.109	0.017355	0.313297	-0.744424	-0.745752	-0.032825	44.285	-0.743868	-7.757679E+9	4.231334E-12	NaN
390	1.000000	0.322625	7.36888e+06	-57589.1	1005.82	-29736.9	0.000000	0.000000	6.322870	-0.058257	NaN	0.000000	0.001702	0.001601	28.0807	0.128342	0.001996	64.2891	151.699	-163.28	-0.038631	0.321257	-0.736424	-0.737792	-0.058257	64.2891	-0.735745	-6.012992E+9	9.688506E-12	NaN
390	1.000000	0.330608	7.36888e+06	-57589.1	1005.82	-29736.9	0.000000	0.000000	6.330855	-0.019647	NaN	0.000000	0.001672	0.001625	28.0808	0.063875	0.002012	31.7403	177.058	-169.449	-0.046686	0.329308	-0.728442	-0.729741	-0.019647	31.7403	-0.727977	-4.712362E+9	4.169197E-12	NaN
390	1.000000	0.338610	7.36888e+06	-57589.1	1005.82	-29736.9	0.000000	0.000000	6.338855	-0.074119	NaN	0.000000	0.001651	0.001636	28.0809	0.108318	0.001907	56.8056	70.107	-166.675	-0.152577	0.337305	-0.720439	-0.721744	-0.074119	56.8056	-0.719461	-3.606753E+9	2.055002E-11	NaN
390	1.000000	0.346654	7.36888e+06	-57589.1	1005.82	-29736.9	0.000000	0.000000	6.346905	0.069000	NaN	0.000000	0.001656	0.001636	28.0808	0.070280	0.002014	34.9005	-19.6979	-166.425	0.123545	0.345285	-0.712395	-0.713765	0.069000	34.9005	-0.713878	-3.026659E+9	-2.279751E-11	NaN
390	1.000000	0.354616	7.36888e+06	-57589.1	1005.82	-29736.9	0.000000	0.000000	6.354863	-0.025462	NaN	0.000000	0.001669	0.001624	28.081	0.039945	0.002009	19.8822	-15.7435	-164.809	0.009025	0.353291	-0.704433	-0.705758	-0.025462	19.8822	-0.703473	-2.182467E+9	1.166648E-11	NaN
390	1.000000	0.362649	7.36888e+06	-57589.1	1005.82	-29736.9	0.000000	0.000000	6.362894	-0.071369	NaN	0.000000	0.001677	0.001585	28.0806	0.095545	0.001958	48.8003	125.658	-170.001	-0.062020	0.361345	-0.696400	-0.697704	-0.071369	48.8003	-0.695303	-1.688035E+9	4.227934E-11	NaN
390	1.000000	0.370657	7.36888e+06	-57589.1	1005.82	-29736.9	0.000000	0.000000	6.370902	-0.064418	NaN	0.000000	0.001670	0.001619	28.0809	0.027645	0.002000	13.8214	165.263	-165.554	-0.125621	0.369325	-0.688393	-0.689724	-0.064418	13.8214	-0.684897	-1.216656E+9	5.294691E-11	NaN
390	1.000000	0.378647	7.36888e+06	-57589.1	1005.82	-29736.9	0.000000	0.000000	6.378897	0.032665	NaN	0.000000	0.001669	0.001638	28.0808	0.038285	0.002108	18.1646	47.7648	-166.544	0.029888	0.377328	-0.680402	-0.681722	0.032665	18.1646	-0.681750	-1.101906E+9	-2.964388E-11	NaN
390	1.000000	0.386640	7.36888e+06	-57589.1	1005.82	-29736.9	0.000000	0.000000	6.386888	-0.001711	NaN	0.000000	0.001660	0.001659	28.0808	0.148037	0.002002	73.9458	-80.3971	-170.112	0.015307	0.385323	-0.672409	-0.673727	-0.001711	73.9458	-0.672392	-8.205804E+8	2.085232E-12	NaN
390	1.000000	0.394662	7.36888e+06	-57589.1	1005.82	-29736.9	0.000000	0.000000	6.394910	-0.005290	NaN	0.000000	0.001671	0.001614	28.0807	0.080797	0.001846	43.7718	139.158	-164.359	0.047189	0.393289	-0.664387	-0.665761	-0.005290	43.7718	-0.664296	-6.357814E+8	8.319750E-12	NaN
390	1.000000	0.402655	7.36888e+06	-57589.1	1005.82	-29736.9	0.000000	0.000000	6.402900	-0.063263	NaN	0.000000	0.001676	0.001613	28.0807	0.060539	0.002014	30.0553	-37.4819	-166.883	-0.032158	0.401340	-0.656394	-0.657709	-0.063263	30.0553	-0.654816	-4.714556E+8	1.341862E-10	NaN
390	1.000000	0.410633	7.36888e+06	-57589.1	1005.82	-29736.9	0.000000	0.000000	6.410877	-0.071299	NaN	0.000000	0.001726	0.001623	28.0809	0.087285	0.002115	41.262	121.311	-165.595	-0.000396	0.409350	-0.648417	-0.649700	-0.071299	41.262	-0.647121	-3.697954E+8	1.928054E-10	NaN
390	1.000000	0.418658	7.36888e+06	-57589.1	1005.82	-29736.9	0.000000	0.000000	6.418905	-0.010915	NaN	0.000000	0.001674	0.001636	28.0807	0.046984	0.002051	22.9104	103.901	-162.169	-0.000954	0.417318	-0.640392	-0.641732	-0.010915	22.9104	-0.640034	-2.956379E+8	3.691975E-11	NaN
390	1.000000	0.426674	7.36888e+06	-57589.1	1005.82	-29736.9	0.000000	0.000000	6.426919	-0.060154	NaN	0.000000	0.001685	0.001629	28.0808	0.045097	0.002146	21.0111	7.211335	-163.245	0.051007	0.425335	-0.632376	-0.633714	-0.060154	21.0111	-0.630228	-2.168507E+8	2.773990E-10	NaN
390	1.000000	0.434674	7.36888e+06	-57589.1	1005.82	-29736.9	0.000000	0.000000	6.434919	-0.056426	NaN	0.000000	0.001672	0.001666	28.0794	0.053686	0.002059	26.075	141.536	-165.749	-0.073003	0.433372	-0.624376	-0.625678	-0.056426	26.075	-0.622753	-1.711852E+8	3.296192E-10	NaN
390	1.000000	0.442699	7.36888e+06	-57589.1	1005.82	-29736.9	0.000000	0.000000	6.442946	-0.025909	NaN	0.000000	0.001632	0.001648	28.0795	0.032051	0.002035	15.7532	136.179	-169.758	-0.100194	0.441338	-0.616350	-0.617711	-0.025909	15.7532	-0.615117	-1.344304E+8	1.927289E-10	NaN
390	1.000000	0.450673	7.36888e+06	-57589.1	1005.82	-29736.9	0.000000	0.000000	6.450920	-0.001444	NaN	0.000000	0.001645	0.001682	28.0797	0.021498	0.001994	10.7821	-86.7647	-168.078	-0.055447	0.449364	-0.608377	-0.609686	-0.001444	10.7821	-0.608276	-1.082414E+8	1.334477E-11	NaN
390	1.000000	0.458676	7.36888e+06	-57589.1	1005.82	-29736.9	0.000000	0.000000	6.458922	-0.033734	NaN	0.000000	0.001642	0.001667	28.0795	0.018215	0.002032	8.966114	-130	-165.38	-0.070328	0.457355	-0.600374	-0.601694	-0.033734	8.966114	-0.597552	-7.704413E+7	4.378552E-10	NaN
390	1.000000	0.466677	7.36888e+06	-57589.1	1005.82	-29736.9	0.000000	0.000000	6.466926	0.033752	NaN	0.000000	0.001607	0.001668	28.0794	0.042901	0.001990	21.5608	-57.3793	-167.082	-0.003799	0.465424	-0.592373	-0.593625	0.033752	21.5608	-0.593547	-6.785099E+7	-4.974381E-10	NaN
390	1.000000	0.474703	7.36888e+06	-57589.1	1005.82	-29736.9	0.000000	0.000000	6.474949	-0.033622	NaN	0.000000	0.001644	0.001626	28.0795	0.047265	0.001984	23.8262	103.33	-168.562	0.055321	0.473298	-0.584346	-0.585751	-0.033622	23.8262	-0.583288	-4.898885E+7	6.863192E-10	NaN
390	1.000000	0.482684	7.36888e+06	-57589.1	1005.82	-29736.9	0.000000	0.000000	6.482932	0.002549	NaN	0.000000	0.001628	0.001645	28.0796	0.061907	0.002014	30.7373	166.603	-163.988	0.034046	0.481371	-0.576366	-0.577678	0.002549	30.7373	-0.576428	-3.939252E+7	-6.470698E-11	NaN
390	1.000000	0.490669	7.36888e+06	-57589.1	1005.82	-29736.9	0.000000	0.000000	6.490913	-0.098926	NaN	0.000000	0.001648	0.001640	28.0797	0.103577	0.002017	51.343	169.771	-165.946	-0.112695	0.489397	-0.568380	-0.569653	-0.098926	51.343	-0.566935	-2.912534E+7	3.396553E-9	NaN
390	1.000000	0.498686	7.36888e+06	-57589.1	1005.82	-29736.9	0.000000	0.000000	6.498935	0.034689	NaN	0.000000	0.001640	0.001636	28.0796	0.092463	0.001969	46.9632	117.113	-169.092	-0.029130	0.497387	-0.560364	-0.561662	0.034689	46.9632	-0.560918	-2.404769E+7	-1.442493E-9	NaN
390	1.000000	0.506679	7.36888e+06	-57589.1	1005.82	-29736.9	0.000000	0.000000	6.506927	-0.012482	NaN	0.000000	0.001657	0.001660	28.0795	0.013026	0.001925	6.766398	-77.1509	-165.97	-0.055075	0.505411	-0.552370	-0.553638	-0.012482	6.766398	-0.550986	-1.752332E+7	7.122893E-10	NaN
390	1.000000	0.514682	7.36888e+06	-57589.1	1005.82	-29736.9	0.000000	0.000000	6.514929	-0.019093	NaN	0.000000	0.001622	0.001643	28.0796	0.056885	0.001933	29.4249	75.1451	-171.101	-0.062643	0.513415	-0.544368	-0.545635	-0.019093	29.4249	-0.543881	-1.396918E+7	1.366775E-9	NaN
390	1.000000	0.522685	7.36888e+06	-57589.1	1005.82	-29736.9	0.000000	0.000000	6.522933	0.002782	NaN	0.000000	0.001632	0.001641	28.0795	0.084233	0.002105	40.0235	-8.887741	-160.676	0.008797	0.521368	-0.536365	-0.537681	0.002782	40.0235	-0.536417	-1.100649E+7	-2.527869E-10	NaN
390	1.000000	0.530719	7.36888e+06	-57589.1	1005.82	-29736.9	0.000000	0.000000	6.530965	-0.025118	NaN	0.000000	0.001628	0.001645	28.0796	0.082027	0.002044	40.1379	-67.4428	-163.563	0.033663	0.529378	-0.528331	-0.529671	-0.025118	40.1379	-0.527861	-8.37275e+06	2.999917E-9	NaN
390	1.000000	0.538725	7.36888e+06	-57589.1	1005.82	-29736.9	0.000000	0.000000	6.538969	-0.084102	NaN	0.000000	0.001626	0.001639	28.0794	0.097770	0.001991	49.115	49.5258	-162.598	-0.106403	0.537404	-0.520325	-0.521646	-0.084102	49.115	-0.519040	-6.31323e+06	1.332160E-8	NaN
390	1.000000	0.546719	7.36888e+06	-57589.1	1005.82	-29736.9	0.000000	0.000000	6.546963	-0.088253	NaN	0.000000	0.001604	0.001647	28.0797	0.059520	0.002077	28.6517	-102.207	-166.331	-0.087173	0.545401	-0.512331	-0.513648	-0.088253	28.6517	-0.510020	-4.72825e+06	1.866502E-8	NaN
390	1.000000	0.554712	7.36888e+06	-57589.1	1005.82	-29736.9	0.000000	0.000000	6.554959	-0.019075	NaN	0.000000	0.001662	0.001601	28.0796	0.108703	0.002172	50.0479	-143.107	-169.026	-0.097712	0.553381	-0.504338	-0.505669	-0.019075	50.0479	-0.504052	-3.90414e+06	4.885730E-9	NaN
390	1.000000	0.562699	7.36888e+06	-57589.1	1005.82	-29736.9	0.000000	0.000000	6.562945	-0.052686	NaN	0.000000	0.001616	0.001643	28.0795	0.065468	0.002010	32.575	167.273	-164.874	-0.094163	0.561417	-0.496350	-0.497632	-0.052686	32.575	-0.495137	-2.93191e+06	1.796983E-8	NaN
390	1.000000	0.570755	7.36888e+06	-57589.1	1005.82	-29736.9	0.000000	0.000000	6.571002	-0.016271	NaN	0.000000	0.001627	0.001620	28.0807	0.006161	0.001931	3.190956	117.62	-166.847	-0.040854	0.569384	-0.488295	-0.489665	-0.016271	3.190956	-0.484470	-2.08008e+06	7.822422E-9	NaN
390	1.000000	0.578711	7.36888e+06	-57589.1	1005.82	-29736.9	0.000000	0.000000	6.578959	0.000189	NaN	0.000000	0.001643	0.001632	28.0808	0.128117	0.002107	60.817	-144.004	-163.099	-0.030214	0.577414	-0.480338	-0.481635	0.000189	60.817	-0.480340	-1.82092e+06	-1.035294E-10	NaN
390	1.000000	0.586710	7.36888e+06	-57589.1	1005.82	-29736.9	0.000000	0.000000	6.586957	-0.015119	NaN	0.000000	0.001618	0.001643	28.0809	0.095759	0.002017	47.4772	-153.935	-164.501	-0.025309	0.585434	-0.472339	-0.473616	-0.015119	47.4772	-0.472100	-1.39591e+06	1.083080E-8	NaN
390	1.000000	0.594746	7.36888e+06	-57589.1	1005.82	-29736.9	0.000000	0.000000	6.594994	-0.010895	NaN	0.000000	0.001625	0.001601	28.0809	0.013648	0.002015	6.771657	91.5652	-165.274	-0.022848	0.593352	-0.464303	-0.465697	-0.010895	6.771657	-0.463096	-1.04356e+06	1.043983E-8	NaN
390	1.000000	0.602736	7.36888e+06	-57589.1	1005.82	-29736.9	0.000000	0.000000	6.602985	0.013201	NaN	0.000000	0.001621	0.001601	28.0809	0.084149	0.002088	40.3082	125.689	-164.258	-0.058014	0.601408	-0.456313	-0.457641	0.013201	40.3082	-0.456559	-844577	-1.563052E-8	NaN
390	1.000000	0.610715	7.36888e+06	-57589.1	1005.82	-29736.9	0.000000	0.000000	6.610964	0.026419	NaN	0.000000	0.001615	0.001628	28.0808	0.109319	0.002033	53.7614	116.166	-164.069	-0.078432	0.609474	-0.448334	-0.449575	0.026419	53.7614	-0.448702	-654737	-4.035118E-8	NaN
390	1.000000	0.618745	7.36888e+06	-57589.1	1005.82	-29736.9	0.000000	0.000000	6.618993	0.001130	NaN	0.000000	0.001642	0.001637	28.0807	0.024313	0.001960	12.4021	110.122	-163.665	-0.030530	0.617418	-0.440304	-0.441631	0.001130	12.4021	-0.440372	-499596	-2.261663E-9	NaN
390	1.000000	0.626727	7.36888e+06	-57589.1	1005.82	-29736.9	0.000000	0.000000	6.626971	-0.081850	NaN	0.000000	0.001694	0.001639	28.0806	0.063245	0.001977	31.9942	44.5933	-169.556	-0.100401	0.625422	-0.432323	-0.433628	-0.081850	31.9942	-0.430404	-361223	2.265913E-7	NaN
390	1.000000	0.634721	7.36888e+06	-57589.1	1005.82	-29736.9	0.000000	0.000000	6.634967	-0.047466	NaN	0.000000	0.001693	0.001593	28.0808	0.095364	0.002045	46.6255	-127.2	-165.807	-0.050206	0.633425	-0.424328	-0.425624	-0.047466	46.6255	-0.423565	-289034	1.642241E-7	NaN
390	1.000000	0.642741	7.36888e+06	-57589.1	1005.82	-29736.9	0.000000	0.000000	6.642988	-0.016288	NaN	0.000000	0.001679	0.001615	28.0814	0.058804	0.002135	27.5397	-164.422	-166.878	-0.080449	0.641460	-0.416309	-0.417589	-0.016288	27.5397	-0.415865	-224770	7.246608E-8	NaN
390	1.000000	0.650764	7.36888e+06	-57589.1	1005.82	-29736.9	0.000000	0.000000	6.651011	-0.033031	NaN	0.000000	0.001669	0.001634	28.0808	0.030149	0.001966	15.339	28.9947	-166.925	-0.007442	0.649450	-0.408285	-0.409599	-0.033031	15.339	-0.406670	-166351	1.985643E-7	NaN
390	1.000000	0.658751	7.36888e+06	-57589.1	1005.82	-29736.9	0.000000	0.000000	6.658995	-0.088497	NaN	0.000000	0.001683	0.001646	28.0811	0.022205	0.001977	11.234	-165.764	-165.824	-0.015303	0.657491	-0.400299	-0.401558	-0.088497	11.234	-0.394390	-111155	7.961646E-7	NaN
390	1.000000	0.666762	7.36888e+06	-57589.1	1005.82	-29736.9	0.000000	0.000000	6.667009	-0.007229	NaN	0.000000	0.001693	0.001632	28.0808	0.077554	0.002109	36.7647	15.4706	-168.25	-0.047233	0.665472	-0.392287	-0.393577	-0.007229	36.7647	-0.392140	-103221	7.002964E-8	NaN
390	1.000000	0.674765	7.36888e+06	-57589.1	1005.82	-29736.9	0.000000	0.000000	6.675011	-0.043561	NaN	0.000000	0.001682	0.001622	28.0808	0.015540	0.002083	7.459933	-130.14	-163.869	-0.055435	0.673424	-0.384284	-0.385625	-0.043561	7.459933	-0.379904	-68947.1	6.318016E-7	NaN
390	1.000000	0.682796	7.36888e+06	-57589.1	1005.82	-29736.9	0.000000	0.000000	6.683044	0.004766	NaN	0.000000	0.001686	0.001640	28.0809	0.062342	0.002017	30.9055	-141.92	-168.794	0.009124	0.681493	-0.376253	-0.377556	0.004766	30.9055	-0.376369	-61339.9	-7.770012E-8	NaN
390	1.000000	0.690773	7.36888e+06	-57589.1	1005.82	-29736.9	0.000000	0.000000	6.691018	-0.050293	NaN	0.000000	0.001689	0.001621	28.0806	0.049184	0.001933	25.4438	0.570942	-165.53	-0.145514	0.689508	-0.368277	-0.369542	-0.050293	25.4438	-0.366794	-44661.2	1.126109E-6	NaN
390	1.000000	0.698760	7.36888e+06	-57589.1	1005.82	-29736.9	0.000000	0.000000	6.699006	-0.050749	NaN	0.000000	0.001664	0.001638	28.0808	0.076486	0.002038	37.5328	25.523	-165.513	-0.072939	0.697508	-0.360289	-0.361541	-0.050749	37.5328	-0.359275	-34782.8	1.459024E-6	NaN
390	1.000000	0.706775	7.36888e+06	-57589.1	1005.82	-29736.9	0.000000	0.000000	6.707020	-0.069406	NaN	0.000000	0.001678	0.001604	28.0797	0.098345	0.001996	49.2703	-68.0508	-167.287	-0.114187	0.705396	-0.352274	-0.353653	-0.069406	49.2703	-0.351218	-26587.3	2.610491E-6	NaN
390	1.000000	0.714771	7.36888e+06	-57589.1	1005.82	-29736.9	0.000000	0.000000	6.715017	-0.043828	NaN	0.000000	0.001663	0.001648	28.0797	0.193841	0.001965	98.6369	12.4842	-165.038	-0.106692	0.713483	-0.344278	-0.345566	-0.043828	98.6369	-0.343945	-20845.4	2.102526E-6	NaN
390	1.000000	0.722781	7.36888e+06	-57589.1	1005.82	-29736.9	0.000000	0.000000	6.723030	0.033995	NaN	0.000000	0.001667	0.001631	28.0796	0.023193	0.001965	11.8019	148.037	-168.083	0.005664	0.721477	-0.336269	-0.337573	0.033995	11.8019	-0.338429	-17323.9	-1.962304E-6	NaN
390	1.000000	0.730755	7.36888e+06	-57589.1	1005.82	-29736.9	0.000000	0.000000	6.731000	-0.070691	NaN	0.000000	0.001650	0.001629	28.0796	0.029480	0.001826	16.1444	-128.923	-169.272	-0.080574	0.729497	-0.328294	-0.329552	-0.070691	16.1444	-0.325010	-11022.6	6.413243E-6	NaN
390	1.000000	0.738785	7.36888e+06	-57589.1	1005.82	-29736.9	0.000000	0.000000	6.739035	0.045728	NaN	0.000000	0.001679	0.001633	28.0796	0.066992	0.002030	33.0076	-160.491	-165.235	0.008092	0.737540	-0.320264	-0.321509	0.045728	33.0076	-0.321303	-9723.38	-4.702874E-6	NaN
390	1.000000	0.746815	7.36888e+06	-57589.1	1005.82	-29736.9	0.000000	0.000000	6.747059	-0.081389	NaN	0.000000	0.001659	0.001598	28.0796	0.067685	0.001894	35.7364	-29.0105	-164.409	-0.064194	0.745504	-0.312234	-0.313545	-0.081389	35.7364	-0.310526	-6742.8	1.207055E-5	NaN
390	1.000000	0.754806	7.36888e+06	-57589.1	1005.82	-29736.9	0.000000	0.000000	6.755054	-0.011266	NaN	0.000000	0.001678	0.001618	28.0795	0.144063	0.001913	75.3022	2.123510	-169.761	-0.064918	0.753488	-0.304243	-0.305561	-0.011266	75.3022	-0.304131	-5420.64	2.078335E-6	NaN
390	1.000000	0.762784	7.36888e+06	-57589.1	1005.82	-29736.9	0.000000	0.000000	6.763032	-0.006467	NaN	0.000000	0.001719	0.001636	28.0795	0.081431	0.002037	39.985	-46.0361	-170.589	0.046365	0.761517	-0.296265	-0.297532	-0.006467	39.985	-0.296144	-4122.49	1.568811E-6	NaN
390	1.000000	0.770797	7.36888e+06	-57589.1	1005.82	-29736.9	0.000000	0.000000	6.771044	-0.038195	NaN	0.000000	0.001690	0.001614	28.0794	0.071691	0.002036	35.2036	128.76	-167.496	-0.064319	0.769462	-0.288252	-0.289587	-0.038195	35.2036	-0.287438	-3054.13	1.250597E-5	NaN
390	1.000000	0.778812	7.36888e+06	-57589.1	1005.82	-29736.9	0.000000	0.000000	6.779060	0.025585	NaN	0.000000	0.001661	0.001623	28.0795	0.105865	0.001934	54.7461	118.649	-164.409	0.070946	0.777456	-0.280238	-0.281594	0.025585	54.7461	-0.280588	-2409.03	-1.062063E-5	NaN
390	1.000000	0.786800	7.36888e+06	-57589.1	1005.82	-29736.9	0.000000	0.000000	6.787046	-0.035564	NaN	0.000000	0.001647	0.001638	28.0795	0.042536	0.001939	21.9414	59.819	-167.418	0.001180	0.785470	-0.272250	-0.273580	-0.035564	21.9414	-0.271034	-1726.86	2.059466E-5	NaN
390	1.000000	0.794815	7.36888e+06	-57589.1	1005.82	-29736.9	0.000000	0.000000	6.795061	-0.048683	NaN	0.000000	0.001665	0.001634	28.0796	0.099993	0.001874	53.365	108.985	-169.236	-0.061292	0.793546	-0.264234	-0.265503	-0.048683	53.365	-0.263550	-1328.14	3.665463E-5	NaN
390	1.000000	0.802797	7.36888e+06	-57589.1	1005.82	-29736.9	0.000000	0.000000	6.803043	-0.039045	NaN	0.000000	0.001649	0.001629	28.0795	0.062837	0.002044	30.7355	154.247	-165.754	-0.019196	0.801467	-0.256252	-0.257582	-0.039045	30.7355	-0.255300	-992.492	3.934033E-5	NaN
390	1.000000	0.810829	7.36888e+06	-57589.1	1005.82	-29736.9	0.000000	0.000000	6.811077	0.012196	NaN	0.000000	0.001622	0.001621	28.0793	0.020241	0.001918	10.5537	-145.284	-168.14	-0.005470	0.809523	-0.248220	-0.249527	0.012196	10.5537	-0.249087	-795.861	-1.532394E-5	NaN
390	1.000000	0.818837	7.36888e+06	-57589.1	1005.82	-29736.9	0.000000	0.000000	6.819085	-0.010552	NaN	0.000000	0.001681	0.001618	28.0795	0.080810	0.002029	39.8371	-172.381	-164.395	0.014979	0.817492	-0.240212	-0.241557	-0.010552	39.8371	-0.240013	-575.124	1.834753E-5	NaN
390	1.000000	0.826791	7.36888e+06	-57589.1	1005.82	-29736.9	0.000000	0.000000	6.827036	-0.068112	NaN	0.000000	0.001705	0.001663	28.0797	0.035729	0.001916	18.6508	99.0769	-166.438	0.016121	0.825516	-0.232258	-0.233533	-0.068112	18.6508	-0.229519	-393.483	0.000173	NaN
390	1.000000	0.834803	7.36888e+06	-57589.1	1005.82	-29736.9	0.000000	0.000000	6.835051	-0.000199	NaN	0.000000	0.001645	0.001631	28.0796	0.068505	0.002080	32.9339	-169.961	-166.51	0.036165	0.833481	-0.224246	-0.225568	-0.000199	32.9339	-0.224242	-324.552	6.134710E-7	NaN
390	1.000000	0.842818	7.36888e+06	-57589.1	1005.82	-29736.9	0.000000	0.000000	6.843065	-0.027210	NaN	0.000000	0.001689	0.001608	28.0807	0.093966	0.001909	49.2283	26.3361	-165.3	0.026775	0.841529	-0.216231	-0.217521	-0.027210	49.2283	-0.215816	-238.034	0.000114	NaN
390	1.000000	0.850849	7.36888e+06	-57589.1	1005.82	-29736.9	0.000000	0.000000	6.851098	0.026285	NaN	0.000000	0.001683	0.001619	28.0805	0.027461	0.001996	13.756	69.6022	-163.943	0.003339	0.849529	-0.208201	-0.209520	0.026285	13.756	-0.209634	-189.185	-0.000139	NaN
390	1.000000	0.858824	7.36888e+06	-57589.1	1005.82	-29736.9	0.000000	0.000000	6.859070	-0.037760	NaN	0.000000	0.001690	0.001653	28.0808	0.182448	0.002012	90.6615	-151.397	-166.379	-0.001499	0.857538	-0.200225	-0.201511	-0.037760	90.6615	-0.199913	-131.3	0.000288	NaN
390	1.000000	0.866844	7.36888e+06	-57589.1	1005.82	-29736.9	0.000000	0.000000	6.867092	0.008511	NaN	0.000000	0.001662	0.001656	28.0807	0.086979	0.001965	44.2666	-140.62	-167.614	-0.112489	0.865544	-0.192205	-0.193505	0.008511	44.2666	-0.192349	-98.4455	-8.645048E-5	NaN
390	1.000000	0.874842	7.36888e+06	-57589.1	1005.82	-29736.9	0.000000	0.000000	6.875089	-0.025321	NaN	0.000000	0.001706	0.001668	28.0809	0.060038	0.002017	29.7628	52.7678	-165.816	0.003316	0.873471	-0.184207	-0.185578	-0.025321	29.7628	-0.183569	-70.142	0.000361	NaN
390	1.000000	0.882878	7.36888e+06	-57589.1	1005.82	-29736.9	0.000000	0.000000	6.883125	-0.014568	NaN	0.000000	0.001678	0.001656	28.0811	0.058134	0.002127	27.3278	54.0833	-165.159	-0.066282	0.881557	-0.176171	-0.177493	-0.014568	27.3278	-0.175771	-51.6686	0.000282	NaN
390	1.000000	0.890843	7.36888e+06	-57589.1	1005.82	-29736.9	0.000000	0.000000	6.891092	0.028651	NaN	0.000000	0.001669	0.001672	28.0807	0.100317	0.001994	50.2974	-114.495	-162.651	0.073447	0.889521	-0.168207	-0.169528	0.028651	50.2974	-0.168634	-38.8914	-0.000737	NaN
390	1.000000	0.898841	7.36888e+06	-57589.1	1005.82	-29736.9	0.000000	0.000000	6.899091	0.054376	NaN	0.000000	0.001640	0.001673	28.0809	0.075664	0.001978	38.2561	-150.479	-165.64	0.011847	0.897596	-0.160208	-0.161454	0.054376	38.2561	-0.161274	-28.88	-0.001883	NaN
390	1.000000	0.906912	7.36888e+06	-57589.1	1005.82	-29736.9	0.000000	0.000000	6.907160	-0.002003	NaN	0.000000	0.001639	0.001674	28.0807	0.052739	0.002042	25.8243	-170.219	-165.577	0.033227	0.905550	-0.152137	-0.153499	-0.002003	25.8243	-0.152079	-19.761	0.000101	NaN
390	1.000000	0.914904	7.36888e+06	-57589.1	1005.82	-29736.9	0.000000	0.000000	6.915147	-0.104392	NaN	0.000000	0.001669	0.001687	28.0808	0.129762	0.001983	65.4308	-117.398	-167.791	-0.018195	0.913481	-0.144146	-0.145568	-0.104392	65.4308	-0.142949	-13.431	0.007772	NaN
390	1.000000	0.922849	7.36888e+06	-57589.1	1005.82	-29736.9	0.000000	0.000000	6.923098	0.037794	NaN	0.000000	0.001652	0.001599	28.0808	0.041499	0.002013	20.6143	166.375	-166.391	0.005435	0.921584	-0.136201	-0.137466	0.037794	20.6143	-0.137576	-10.6476	-0.003549	NaN
390	1.000000	0.930872	7.36888e+06	-57589.1	1005.82	-29736.9	0.000000	0.000000	6.931120	0.010116	NaN	0.000000	0.001629	0.001640	28.0807	0.058968	0.002015	29.2648	-3.450233	-166.539	0.003639	0.929612	-0.128177	-0.129437	0.010116	29.2648	-0.128436	-7.104853	-0.001424	NaN
390	1.000000	0.938852	7.36888e+06	-57589.1	1005.82	-29736.9	0.000000	0.000000	6.939099	-0.020668	NaN	0.000000	0.001671	0.001643	28.0807	0.133560	0.001996	66.9101	-74.2682	-166.716	0.073315	0.937535	-0.120197	-0.121515	-0.020668	66.9101	-0.119966	-4.823785	0.004285	NaN
390	1.000000	0.946892	7.36888e+06	-57589.1	1005.82	-29736.9	0.000000	0.000000	6.947141	0.026424	NaN	0.000000	0.001629	0.001672	28.0807	0.145848	0.001975	73.8307	176.427	-165.715	-0.031727	0.945557	-0.112157	-0.113493	0.026424	73.8307	-0.112425	-3.378534	-0.007821	NaN
390	1.000000	0.954882	7.36888e+06	-57589.1	1005.82	-29736.9	0.000000	0.000000	6.955130	0.006910	NaN	0.000000	0.001634	0.001668	28.081	0.083629	0.001966	42.5412	-146.355	-169.764	-0.002035	0.953565	-0.104167	-0.105484	0.006910	42.5412	-0.104289	-2.268751	-0.003046	NaN
390	1.000000	0.962911	7.36888e+06	-57589.1	1005.82	-29736.9	0.000000	0.000000	6.963160	0.031867	NaN	0.000000	0.001618	0.001678	28.0809	0.059296	0.002031	29.1964	47.1119	-165.85	-0.025243	0.961629	-0.096138	-0.097420	0.031867	29.1964	-0.096957	-1.562270	-0.020398	NaN
390	1.000000	0.970892	7.36888e+06	-57589.1	1005.82	-29736.9	0.000000	0.000000	6.971138	-0.047037	NaN	0.000000	0.001641	0.001668	28.0808	0.040431	0.001964	20.5887	-58.6864	-165.395	-0.031724	0.969566	-0.088157	-0.089484	-0.047037	20.5887	-0.086444	-0.890147	0.052842	NaN
390	1.000000	0.978913	7.36888e+06	-57589.1	1005.82	-29736.9	0.000000	0.000000	6.979160	-0.020076	NaN	0.000000	0.001632	0.001664	28.0798	0.065852	0.002216	29.7133	-157.586	-165.516	0.039435	0.977579	-0.080136	-0.081471	-0.020076	29.7133	-0.079629	-0.605900	0.033134	NaN
390	1.000000	0.986867	7.36888e+06	-57589.1	1005.82	-29736.9	0.000000	0.000000	6.987113	-0.062885	NaN	0.000000	0.001639	0.001661	28.0797	0.041452	0.002107	19.6721	135.175	-166.279	-0.077830	0.985526	-0.072182	-0.073524	-0.062885	19.6721	-0.069784	-0.336599	0.186825	NaN
390	1.000000	0.994891	7.36888e+06	-57589.1	1005.82	-29736.9	0.000000	0.000000	6.995139	-0.009282	NaN	0.000000	0.001629	0.001657	28.0797	0.038031	0.002002	18.9933	-87.2445	-169.88	-0.088250	0.993572	-0.064158	-0.065477	-0.009282	18.9933	-0.063792	-0.230630	0.040245	NaN
390	1.000000	1.002879	7.36888e+06	-57589.1	1005.82	-29736.9	0.000000	0.000000	7.003123	-0.086915	NaN	0.000000	0.001617	0.001648	28.0796	0.037430	0.001889	19.818	165.199	-165.958	-0.120919	1.001607	-0.056171	-0.057442	-0.086915	19.818	-0.052881	-0.111396	0.780231	NaN
390	1.000000	1.010909	7.36888e+06	-57589.1	1005.82	-29736.9	0.000000	0.000000	7.011156	-0.011093	NaN	0.000000	0.001648	0.001625	28.0797	0.023543	0.002121	11.1007	-133.147	-166.58	0.011254	1.009627	-0.048140	-0.049422	-0.011093	11.1007	-0.047391	-0.076034	0.145888	NaN
390	1.000000	1.018910	7.36888e+06	-57589.1	1005.82	-29736.9	0.000000	0.000000	7.019158	-0.008425	NaN	0.000000	0.001613	0.001621	28.0794	0.085350	0.002074	41.1567	126.312	-171.459	-0.104422	1.017636	-0.040139	-0.041414	-0.008425	41.1567	-0.039985	-0.045176	0.186505	NaN
390	1.000000	1.026900	7.36888e+06	-57589.1	1005.82	-29736.9	0.000000	0.000000	7.027147	-0.012821	NaN	0.000000	0.001643	0.001600	28.0797	0.114847	0.002059	55.7724	96.9626	-164.706	0.019400	1.025644	-0.032150	-0.033405	-0.012821	55.7724	-0.031977	-0.026167	0.489948	NaN
390	1.000000	1.034915	7.36888e+06	-57589.1	1005.82	-29736.9	0.000000	0.000000	7.035161	-0.027234	NaN	0.000000	0.001624	0.001685	28.0795	0.086713	0.002010	43.1361	-50.8135	-165.545	0.072868	1.033596	-0.024135	-0.025454	-0.027234	43.1361	-0.023661	-0.015574	1.748696	NaN
390	1.000000	1.042923	7.36888e+06	-57589.1	1005.82	-29736.9	0.000000	0.000000	7.043170	-0.016235	NaN	0.000000	0.001653	0.001655	28.0794	0.066843	0.001952	34.2514	149.211	-169.038	0.006297	1.041604	-0.016127	-0.017446	-0.016235	34.2514	-0.015771	-0.009742	1.666427	NaN
390	1.000000	1.050914	7.36888e+06	-57589.1	1005.82	-29736.9	0.000000	0.000000	7.051162	0.018206	NaN	0.000000	0.001645	0.001644	28.0796	0.062206	0.002023	30.755	-85.8724	-165.694	-0.005652	1.049631	-0.008136	-0.009419	0.018206	30.755	-0.008580	-0.005570	-3.268774	NaN
390	1.000000	1.058900	7.36888e+06	-57589.1	1005.82	-29736.9	0.000000	0.000000	7.059145	-0.073480	NaN	0.000000	0.001656	0.001614	28.0794	0.075946	0.002046	37.1268	-42.6293	-162.973	-0.017833	1.057579	-0.000149	-0.001470	-0.073480	37.1268	0.001335	0.001024	-71.7519	1059.97
390	1.000000	1.066877	7.36888e+06	-57589.1	1005.82	-29736.9	0.000000	0.000000	7.067368	5.917541	NaN	0.000000	0.001642	0.001655	28.0796	5.954193	0.001769	3366.25	16.8116	-173.6	4.856031	1.065581	0.007828	0.006531	5.917541	3366.25	0.006509	0.005553	1065.58	41270.8
390	2.000000	1.071513	7.36888e+06	-57589.1	1005.82	-29736.9	0.000000	0.000000	7.072164	9.807461	NaN	0.000000	0.001643	0.001641	28.0794	10.1937	0.001500	6794.31	5.341752	-176.043	8.524769	1.071249	0.012464	0.012200	9.807461	6794.31	0.011381	0.010757	911.711	59850.6
390	2.000000	1.073507	7.36888e+06	-57589.1	1005.82	-29736.9	0.000000	0.000000	7.074172	10.1509	NaN	0.000000	0.001643	0.001657	28.0795	12.3018	0.001848	6655.15	11.7389	-177.222	10.1679	1.073197	0.014458	0.014147	10.1509	6655.15	0.013314	0.013102	774.748	53120.2
390	2.000000	1.075451	7.36888e+06	-57589.1	1005.82	-29736.9	0.000000	0.000000	7.076393	16.8717	NaN	0.000000	0.001629	0.001670	28.0798	14.5156	0.001657	8759.92	1.756032	-172.949	15.4682	1.075203	0.016401	0.016153	16.8717	8759.92	0.014957	0.015228	1107.93	64856.1
390	2.000000	1.077441	7.36888e+06	-57589.1	1005.82	-29736.9	0.000000	0.000000	7.078522	20.2515	NaN	0.000000	0.001669	0.001665	28.0795	17.3347	0.001705	10164.1	2.899174	-174.755	18.5334	1.077114	0.018392	0.018065	20.2515	10164.1	0.016897	0.017899	1131.42	69410.5
390	2.000000	1.079475	7.36888e+06	-57589.1	1005.82	-29736.9	0.000000	0.000000	7.080535	19.737	NaN	0.000000	0.001638	0.001656	28.0798	18.8137	0.001737	10832.3	6.014779	-177.971	18.7447	1.079095	0.020426	0.020046	19.737	10832.3	0.019059	0.021086	936.033	68155
390	2.000000	1.081424	7.36888e+06	-57589.1	1005.82	-29736.9	0.000000	0.000000	7.082777	26.8548	NaN	0.000000	0.001631	0.001623	28.0805	21.6367	0.001801	12016.4	5.337826	-178.724	25.2474	1.081110	0.022375	0.022060	26.8548	12016.4	0.020699	0.023652	1135.4	71385.6
390	2.000000	1.083401	7.36888e+06	-57589.1	1005.82	-29736.9	0.000000	0.000000	7.085004	32.9452	NaN	0.000000	0.001611	0.001652	28.0808	22.7862	0.001815	12556.8	0.046601	-173.016	31.2357	1.083116	0.024352	0.024067	32.9452	12556.8	0.022384	0.026428	1246.61	70570.4
390	2.000000	1.085487	7.36888e+06	-57589.1	1005.82	-29736.9	0.000000	0.000000	7.086979	30.2346	NaN	0.000000	0.001672	0.001648	28.0839	24.2132	0.001811	13370.4	7.055417	-179.165	32.4529	1.085079	0.026438	0.026029	30.2346	13370.4	0.024742	0.030548	989.751	69892.3
390	2.000000	1.087421	7.36888e+06	-57589.1	1005.82	-29736.9	0.000000	0.000000	7.089205	37.3195	NaN	0.000000	0.001635	0.001655	28.0847	26.4439	0.001706	15503.5	7.020178	179.467	37.8171	1.087072	0.028372	0.028023	37.3195	15503.5	0.026567	0.033927	1099.98	76900.1
390	2.000000	1.089422	7.36888e+06	-57589.1	1005.82	-29736.9	0.000000	0.000000	7.091463	43.5753	NaN	0.000000	0.001650	0.001650	28.0818	28.3056	0.001904	14864.5	6.482834	-178.711	42.7615	1.089088	0.030373	0.030038	43.5753	14864.5	0.028174	0.037045	1176.29	70560.2
390	2.000000	1.091362	7.36888e+06	-57589.1	1005.82	-29736.9	0.000000	0.000000	7.093487	45.622	NaN	0.000000	0.001661	0.001685	28.0811	30.7366	0.001812	16958.7	4.905640	179.169	42.9671	1.091100	0.032313	0.032050	45.622	16958.7	0.030296	0.041358	1103.09	76187.3
390	2.000000	1.093369	7.36888e+06	-57589.1	1005.82	-29736.9	0.000000	0.000000	7.095671	49.9378	NaN	0.000000	0.001675	0.001638	28.0809	32.7229	0.001836	17826.3	5.660155	179.031	48.0872	1.093100	0.034320	0.034051	49.9378	17826.3	0.032219	0.045468	1098.31	76380.4
390	2.000000	1.095415	7.36888e+06	-57589.1	1005.82	-29736.9	0.000000	0.000000	7.097801	51.967	NaN	0.000000	0.001658	0.001636	28.0811	32.6915	0.001510	21650.2	5.485572	176.142	51.818	1.095104	0.036366	0.036055	51.967	21650.2	0.034566	0.050740	1024.19	87813.5
390	2.000000	1.097368	7.36888e+06	-57589.1	1005.82	-29736.9	0.000000	0.000000	7.100112	60.6534	NaN	0.000000	0.001685	0.001655	28.0809	36.4092	0.001740	20919.2	-0.066935	-177.299	58.7751	1.097055	0.038319	0.038006	60.6534	20919.2	0.036145	0.054445	1114.04	81910.9
390	2.000000	1.099356	7.36888e+06	-57589.1	1005.82	-29736.9	0.000000	0.000000	7.102491	70.1902	NaN	0.000000	0.001625	0.001658	28.0811	39.0945	0.001872	20879.4	4.739584	178.323	67.6234	1.099047	0.040306	0.039997	70.1902	20879.4	0.037785	0.058430	1201.28	78917.6
390	2.000000	1.101459	7.36888e+06	-57589.1	1005.82	-29736.9	0.000000	0.000000	7.104726	73.3813	NaN	0.000000	0.001667	0.001625	28.0808	40.5971	0.001812	22403.5	5.588768	176.103	75.3251	1.101155	0.042410	0.042106	73.3813	22403.5	0.039953	0.063908	1148.23	80967.6
390	2.000000	1.103331	7.36888e+06	-57589.1	1005.82	-29736.9	0.000000	0.000000	7.107062	84.6404	NaN	0.000000	0.001696	0.001600	28.0804	42.5193	0.001891	22484.3	5.682119	177.302	82.4694	1.102990	0.044282	0.043941	84.6404	22484.3	0.041459	0.067853	1247.42	78862.4
390	2.000000	1.105319	7.36888e+06	-57589.1	1005.82	-29736.9	0.000000	0.000000	7.109294	90.5913	NaN	0.000000	0.001656	0.001614	28.0807	43.3868	0.001718	25255.2	7.319533	173.026	87.1568	1.105055	0.046270	0.046006	90.5913	25255.2	0.043580	0.073606	1230.75	85048.4
390	2.000000	1.107367	7.36888e+06	-57589.1	1005.82	-29736.9	0.000000	0.000000	7.111432	92.7668	NaN	0.000000	0.001680	0.001632	28.0805	45.9283	0.001920	23919.5	5.566069	175.866	89.7777	1.107109	0.048318	0.048060	92.7668	23919.5	0.045409	0.078754	1177.93	77873.5
390	2.000000	1.109366	7.36888e+06	-57589.1	1005.82	-29736.9	0.000000	0.000000	7.114069	108.283	NaN	0.000000	0.001637	0.001634	28.0818	46.719	0.001710	27325.6	4.313864	176.438	107.089	1.109013	0.050317	0.049964	108.283	27325.6	0.047345	0.084383	1283.22	85943.9
390	2.000000	1.111401	7.36888e+06	-57589.1	1005.82	-29736.9	0.000000	0.000000	7.116186	110.275	NaN	0.000000	0.001638	0.001600	28.0805	48.2396	0.001873	25761.8	4.661631	176.199	110.365	1.111141	0.052351	0.052091	110.275	25761.8	0.049141	0.089777	1228.33	78554
390	2.000000	1.113393	7.36888e+06	-57589.1	1005.82	-29736.9	0.000000	0.000000	7.118626	121.159	NaN	0.000000	0.001647	0.001637	28.0805	50.4759	0.001797	28082.8	4.389813	175.536	120.252	1.113116	0.054344	0.054066	121.159	28082.8	0.051108	0.095870	1263.79	82865.3
390	2.000000	1.115341	7.36888e+06	-57589.1	1005.82	-29736.9	0.000000	0.000000	7.120768	125.882	NaN	0.000000	0.001650	0.001684	28.0801	51.1183	0.001703	30014.3	5.006022	174.833	124.481	1.115051	0.056292	0.056002	125.882	30014.3	0.053146	0.102386	1229.49	85700.3
390	2.000000	1.117384	7.36888e+06	-57589.1	1005.82	-29736.9	0.000000	0.000000	7.123118	133.337	NaN	0.000000	0.001655	0.001654	28.0794	54.3805	0.001686	32254.8	9.336618	169.309	133.176	1.117017	0.058335	0.057968	133.337	32254.8	0.055235	0.109277	1220.18	89146.4
390	2.000000	1.119375	7.36888e+06	-57589.1	1005.82	-29736.9	0.000000	0.000000	7.125574	144.646	NaN	0.000000	0.001612	0.001654	28.0799	57.2503	0.001865	30699.9	9.631662	170.114	143.2	1.119038	0.060325	0.059989	144.646	30699.9	0.056792	0.114555	1262.68	82870.9
390	2.000000	1.121402	7.36888e+06	-57589.1	1005.82	-29736.9	0.000000	0.000000	7.127770	148.76	NaN	0.000000	0.001644	0.001615	28.0795	58.2166	0.001774	32821.9	4.392019	174.442	151.618	1.121068	0.062352	0.062018	148.76	32821.9	0.058953	0.122081	1218.53	85824.9
390	2.000000	1.123376	7.36888e+06	-57589.1	1005.82	-29736.9	0.000000	0.000000	7.130249	161.029	NaN	0.000000	0.001632	0.001636	28.0796	61.2518	0.001863	32884.4	6.378112	172.978	161.578	1.123042	0.064327	0.063993	161.029	32884.4	0.060654	0.128164	1256.42	83922.7
390	2.000000	1.125283	7.36888e+06	-57589.1	1005.82	-29736.9	0.000000	0.000000	7.132550	170.589	NaN	0.000000	0.001630	0.001657	28.0794	60.5264	0.001648	36718	0.275520	176.974	167.275	1.125046	0.066234	0.065997	170.589	36718	0.062749	0.135851	1255.71	91016.9
390	2.000000	1.127292	7.36888e+06	-57589.1	1005.82	-29736.9	0.000000	0.000000	7.134972	180.646	NaN	0.000000	0.001619	0.001663	28.0795	64.6051	0.001850	34914	5.087686	173.195	175.046	1.126928	0.068242	0.067879	180.646	34914	0.064362	0.141913	1272.94	84676.3
390	2.000000	1.129461	7.36888e+06	-57589.1	1005.82	-29736.9	0.000000	0.000000	7.137513	189.664	NaN	0.000000	0.001641	0.001671	28.0797	65.9411	0.001799	36651.7	2.801686	176.119	193.229	1.129039	0.070412	0.069990	189.664	36651.7	0.066531	0.150263	1262.22	86385.7
390	2.000000	1.131294	7.36888e+06	-57589.1	1005.82	-29736.9	0.000000	0.000000	7.139884	202.744	NaN	0.000000	0.001610	0.001658	28.0796	67.9455	0.001781	38149.7	8.861473	168.588	198.485	1.131001	0.072245	0.071952	202.744	38149.7	0.068259	0.157078	1290.72	87944
390	2.000000	1.133311	7.36888e+06	-57589.1	1005.82	-29736.9	0.000000	0.000000	7.142146	208.724	NaN	0.000000	0.001632	0.001626	28.0798	69.8131	0.001746	39978	5.618588	172.014	205.814	1.132968	0.074261	0.073918	208.724	39978	0.070346	0.165497	1261.2	89784
390	2.000000	1.135376	7.36888e+06	-57589.1	1005.82	-29736.9	0.000000	0.000000	7.144852	224.278	NaN	0.000000	0.001639	0.001632	28.0798	70.2693	0.001808	38857.7	4.821069	173.194	224.023	1.134972	0.076327	0.075922	224.278	38857.7	0.071998	0.172311	1301.58	85525
390	2.000000	1.137425	7.36888e+06	-57589.1	1005.82	-29736.9	0.000000	0.000000	7.147132	229.904	NaN	0.000000	0.001629	0.001661	28.0795	73.4013	0.001722	42634.6	8.494308	168.329	234.172	1.137063	0.078376	0.078014	229.904	42634.6	0.074331	0.182153	1262.15	91267.8
390	2.000000	1.139604	7.36888e+06	-57589.1	1005.82	-29736.9	0.000000	0.000000	7.149367	231.264	NaN	0.000000	0.001635	0.001650	28.0796	76.3202	0.001851	41236.9	8.890604	169.112	244.139	1.139124	0.080555	0.080074	231.264	41236.9	0.076348	0.190867	1211.65	86237
390	2.000000	1.141301	7.36888e+06	-57589.1	1005.82	-29736.9	0.000000	0.000000	7.151985	253.62	NaN	0.000000	0.001611	0.001619	28.0795	77.2326	0.001859	41548.7	5.256691	172.144	252.955	1.140893	0.082252	0.081844	253.62	41548.7	0.077674	0.196698	1289.39	85591.4
390	2.000000	1.143329	7.36888e+06	-57589.1	1005.82	-29736.9	0.000000	0.000000	7.154310	260.869	NaN	0.000000	0.001638	0.001634	28.08	80.2721	0.001825	43993.2	6.145723	170.551	259.593	1.143052	0.084280	0.084003	260.869	43993.2	0.079832	0.206368	1264.1	88478.5
390	2.000000	1.145339	7.36888e+06	-57589.1	1005.82	-29736.9	0.000000	0.000000	7.157058	278.813	NaN	0.000000	0.001647	0.001617	28.0798	79.6258	0.001718	46356	3.744990	172.574	279.733	1.144939	0.086289	0.085889	278.813	46356	0.081778	0.215273	1295.16	91281.7
390	2.000000	1.147283	7.36888e+06	-57589.1	1005.82	-29736.9	0.000000	0.000000	7.159346	287.154	NaN	0.000000	0.001677	0.001596	28.0798	82.9112	0.001742	47599.1	3.180633	173.415	283.322	1.146864	0.088234	0.087815	287.154	47599.1	0.083709	0.224283	1280.32	91827.8
390	2.000000	1.149367	7.36888e+06	-57589.1	1005.82	-29736.9	0.000000	0.000000	7.162017	301.434	NaN	0.000000	0.001684	0.001575	28.0799	85.0177	0.001798	47297.4	3.386924	173.38	299.943	1.148923	0.090317	0.089873	301.434	47297.4	0.085537	0.232972	1293.86	89527.8
390	2.000000	1.151321	7.36888e+06	-57589.1	1005.82	-29736.9	0.000000	0.000000	7.164519	314.738	NaN	0.000000	0.001648	0.001570	28.0809	86.5486	0.001772	48836.8	5.018316	170.916	311.147	1.150960	0.092272	0.091911	314.738	48836.8	0.087439	0.242172	1299.65	90668.9
390	2.000000	1.153277	7.36888e+06	-57589.1	1005.82	-29736.9	0.000000	0.000000	7.166848	323.797	NaN	0.000000	0.001604	0.001655	28.081	89.9199	0.001819	49435	5.998967	169.553	319.894	1.152993	0.094228	0.093944	323.797	49435	0.089316	0.251418	1287.88	90076.1
390	2.000000	1.155314	7.36888e+06	-57589.1	1005.82	-29736.9	0.000000	0.000000	7.169107	329.203	NaN	0.000000	0.001601	0.001634	28.081	90.6274	0.001910	47449.4	2.924849	173.001	327.597	1.155072	0.096265	0.096022	329.203	47449.4	0.091062	0.260164	1265.37	84992.5
390	2.000000	1.157217	7.36888e+06	-57589.1	1005.82	-29736.9	0.000000	0.000000	7.171675	345.358	NaN	0.000000	0.001639	0.001645	28.0813	91.8989	0.001785	51493.3	2.837222	172.783	340.423	1.157048	0.098168	0.097999	345.358	51493.3	0.093138	0.270746	1275.58	90415.5
390	2.000000	1.159348	7.36888e+06	-57589.1	1005.82	-29736.9	0.000000	0.000000	7.174535	363.094	NaN	0.000000	0.001566	0.001670	28.0808	94.5944	0.001850	51135	3.620535	172.215	361.54	1.159109	0.100298	0.100060	363.094	51135	0.094973	0.280261	1295.55	88248.9
390	2.000000	1.161220	7.36888e+06	-57589.1	1005.82	-29736.9	0.000000	0.000000	7.176848	373.814	NaN	0.000000	0.001625	0.001634	28.0809	95.6321	0.001962	48751.8	0.914011	175.108	368.122	1.161002	0.102171	0.101953	373.814	48751.8	0.096420	0.287875	1298.53	83016
390	2.000000	1.163353	7.36888e+06	-57589.1	1005.82	-29736.9	0.000000	0.000000	7.179348	382.721	NaN	0.000000	0.001702	0.001614	28.0812	97.6998	0.001778	54936.1	4.576041	170.826	385.791	1.163070	0.104303	0.104021	382.721	54936.1	0.099078	0.302110	1266.83	91316.4
390	2.000000	1.165314	7.36888e+06	-57589.1	1005.82	-29736.9	0.000000	0.000000	7.182323	407.375	NaN	0.000000	0.001627	0.001623	28.0811	96.9414	0.001776	54570.5	2.879909	172.649	407.788	1.164923	0.106265	0.105874	407.375	54570.5	0.100666	0.310763	1310.89	89436.8
390	2.000000	1.167277	7.36888e+06	-57589.1	1005.82	-29736.9	0.000000	0.000000	7.184618	415.431	NaN	0.000000	0.001637	0.001631	28.0813	100.307	0.001861	53890.2	8.188566	167.498	412.587	1.166930	0.108228	0.107881	415.431	53890.2	0.102446	0.320604	1295.78	86955.7
390	2.000000	1.168898	7.36888e+06	-57589.1	1005.82	-29736.9	0.000000	0.000000	7.186728	427.335	NaN	0.000000	0.001625	0.001644	28.081	99.5308	0.001710	58202.8	4.247125	-8.441776	430.367	1.168318	0.109848	0.109269	427.335	58202.8	0.104342	0.331240	1290.11	92394.5