File: remote_trans/data/nanoindenter/0828-1/data/Data_2025-08-06,11h17m57s/2025-07-22_16-23-58_1_511.txt
2025-07-22, 16:23:58, 1
Index	Phase	Displacement	Time	Pos X	Pos Y	Pos Z	Rot A	Rot B	Piezo Z	Force A	Force B	Gripper	Voltage A	Voltage B	Temperature	Amplitude force	Amplitude pos	Stiffness	Phase shift	Phase excitation	Force A raw	Displacement raw	HMax	HMax raw	Real Force	Real Stiffness	Contact Depth	Area	Hardness	Reduced Mod.
[#]	[#]	[um]	[s]	[um]	[um]	[um]	[m°]	[m°]	[um]	[uN]	[uN]	[V]	[V]	[V]	[°C]	[uN]	[um]	[N/m]	[°]	[°]	[uN]	[um]	[um]	[um]	[uN]	[N/m]	[um]	[um^2]	[MPa]	[MPa]
511	1.000000	0.002148	7.37005e+06	-51539.1	1005.82	-29752	0.000000	0.000000	6.002809	0.003999	NaN	0.000000	0.001535	0.001814	28.0816	0.067777	0.001007	67.3202	-89.7529	-169.13	-0.030455	0.000780	-1.130731	-1.132099	0.003999	67.3202	-1.130775	-1.297236E+15	-3.082860E-18	NaN
511	1.000000	0.012206	7.37005e+06	-51539.1	1005.82	-29752	0.000000	0.000000	6.012868	0.033079	NaN	0.000000	0.001572	0.001827	28.0816	0.097904	0.001393	70.2683	2.548742	17.3278	0.085073	0.010754	-1.120672	-1.122124	0.033079	70.2683	-1.121025	-9.599036E+14	-3.446071E-17	NaN
511	1.000000	0.022082	7.37005e+06	-51539.1	1005.82	-29752	0.000000	0.000000	6.022742	-0.014908	NaN	0.000000	0.001572	0.001832	28.0816	0.088070	0.001582	55.6717	107.999	-161.631	-0.002495	0.020750	-1.110797	-1.112129	-0.014908	55.6717	-1.110596	-6.954833E+14	2.143509E-17	NaN
511	1.000000	0.032064	7.37005e+06	-51539.1	1005.82	-29752	0.000000	0.000000	6.032724	-0.000751	NaN	0.000000	0.001527	0.001798	28.0814	0.101626	0.001858	54.6938	101.68	15.1015	0.072816	0.030764	-1.100815	-1.102115	-0.000751	54.6938	-1.100805	-5.138876E+14	1.461229E-18	NaN
511	1.000000	0.042085	7.37005e+06	-51539.1	1005.82	-29752	0.000000	0.000000	6.042745	-0.016357	NaN	0.000000	0.001559	0.001803	28.0815	0.047974	0.001886	25.4327	-103	-164.939	0.000760	0.040768	-1.090794	-1.092110	-0.016357	25.4327	-1.090311	-3.715291E+14	4.402691E-17	NaN
511	1.000000	0.052057	7.37005e+06	-51539.1	1005.82	-29752	0.000000	0.000000	6.052718	0.010714	NaN	0.000000	0.001557	0.001801	28.0815	0.045628	0.002073	22.0111	-68.217	14.7696	0.022895	0.050716	-1.080822	-1.082162	0.010714	22.0111	-1.081187	-2.801949E+14	-3.823757E-17	NaN
511	1.000000	0.062091	7.37005e+06	-51539.1	1005.82	-29752	0.000000	0.000000	6.062749	-0.060765	NaN	0.000000	0.001525	0.001797	28.0816	0.103799	0.002124	48.8599	-104.206	-165.755	-0.009945	0.060754	-1.070787	-1.072125	-0.060765	48.8599	-1.069855	-1.973501E+14	3.079062E-16	NaN
511	1.000000	0.072123	7.37005e+06	-51539.1	1005.82	-29752	0.000000	0.000000	6.072782	-0.018834	NaN	0.000000	0.001545	0.001789	28.0816	0.117180	0.001987	58.9605	-83.1137	15.1151	-0.016901	0.070728	-1.060756	-1.062151	-0.018834	58.9605	-1.060516	-1.478289E+14	1.274038E-16	NaN
511	1.000000	0.082122	7.37005e+06	-51539.1	1005.82	-29752	0.000000	0.000000	6.082785	0.065399	NaN	0.000000	0.001535	0.001808	28.0817	0.125469	0.001976	63.4888	54.9468	-163.116	0.104850	0.080792	-1.050756	-1.052087	0.065399	63.4888	-1.051529	-1.119351E+14	-5.842556E-16	NaN
511	1.000000	0.092111	7.37005e+06	-51539.1	1005.82	-29752	0.000000	0.000000	6.092772	0.029446	NaN	0.000000	0.001505	0.001759	28.0817	0.023376	0.001957	11.9439	60.8844	15.9943	0.053126	0.090738	-1.040768	-1.042141	0.029446	11.9439	-1.042617	-8.494849E+13	-3.466300E-16	NaN
511	1.000000	0.102138	7.37005e+06	-51539.1	1005.82	-29752	0.000000	0.000000	6.102803	0.100603	NaN	0.000000	0.001545	0.001854	28.0816	0.111985	0.001888	59.3292	10.7152	-165.334	0.130024	0.100790	-1.030740	-1.032089	0.100603	59.3292	-1.032012	-6.117069E+13	-1.644625E-15	NaN
511	1.000000	0.112114	7.37005e+06	-51539.1	1005.82	-29752	0.000000	0.000000	6.112775	0.011817	NaN	0.000000	0.001572	0.001808	28.0816	0.114406	0.002085	54.8589	49.4645	12.1875	0.005259	0.110776	-1.020765	-1.022103	0.011817	54.8589	-1.020926	-4.339265E+13	-2.723315E-16	NaN
511	1.000000	0.122095	7.37005e+06	-51539.1	1005.82	-29752	0.000000	0.000000	6.122758	0.077548	NaN	0.000000	0.001549	0.001791	28.0816	0.039812	0.002056	19.3684	-53.5824	-168.367	0.028257	0.120779	-1.010784	-1.012100	0.077548	19.3684	-1.013787	-3.478150E+13	-2.229589E-15	NaN
511	1.000000	0.132127	7.37005e+06	-51539.1	1005.82	-29752	0.000000	0.000000	6.132791	0.088341	NaN	0.000000	0.001553	0.001818	28.0806	0.058647	0.002107	27.8282	-84.9696	17.6704	0.044759	0.130766	-1.000752	-1.002113	0.088341	27.8282	-1.003132	-2.500002E+13	-3.533624E-15	NaN
511	1.000000	0.142150	7.37005e+06	-51539.1	1005.82	-29752	0.000000	0.000000	6.142810	0.001828	NaN	0.000000	0.001497	0.001816	28.0804	0.092615	0.001919	48.269	61.4975	-169.598	-0.073635	0.140831	-0.990729	-0.992048	0.001828	48.269	-0.990757	-1.703371E+13	-1.072978E-16	NaN
511	1.000000	0.152114	7.37005e+06	-51539.1	1005.82	-29752	0.000000	0.000000	6.152776	0.039429	NaN	0.000000	0.001541	0.001796	28.0804	0.060196	0.001962	30.6764	-122.876	13.82	0.063469	0.150770	-0.980764	-0.982109	0.039429	30.6764	-0.981728	-1.287337E+13	-3.062865E-15	NaN
511	1.000000	0.162117	7.37005e+06	-51539.1	1005.82	-29752	0.000000	0.000000	6.162777	-0.001269	NaN	0.000000	0.001628	0.001804	28.0805	0.104792	0.002005	52.2633	124.012	-165.578	0.025861	0.160804	-0.970762	-0.972074	-0.001269	52.2633	-0.970743	-9.155522E+12	1.385647E-16	NaN
511	1.000000	0.172127	7.37005e+06	-51539.1	1005.82	-29752	0.000000	0.000000	6.172790	0.064749	NaN	0.000000	0.001628	0.001810	28.0803	0.116053	0.001949	59.5581	4.014908	10.478	-0.006263	0.170774	-0.960751	-0.962104	0.064749	59.5581	-0.961567	-6.886350E+12	-9.402474E-15	NaN
511	1.000000	0.182114	7.37005e+06	-51539.1	1005.82	-29752	0.000000	0.000000	6.182774	-0.007440	NaN	0.000000	0.001595	0.001799	28.0806	0.053276	0.001982	26.8783	-126.072	-162.892	0.025810	0.180818	-0.950765	-0.952061	-0.007440	26.8783	-0.950557	-4.892629E+12	1.520710E-15	NaN
511	1.000000	0.192151	7.37005e+06	-51539.1	1005.82	-29752	0.000000	0.000000	6.192811	-0.001352	NaN	0.000000	0.001584	0.001790	28.0803	0.104634	0.002068	50.5857	46.9741	14.8926	-0.062187	0.190760	-0.940728	-0.942118	-0.001352	50.5857	-0.940708	-3.603175E+12	3.752966E-16	NaN
511	1.000000	0.202167	7.37005e+06	-51539.1	1005.82	-29752	0.000000	0.000000	6.202824	-0.089055	NaN	0.000000	0.001622	0.001807	28.0809	0.026246	0.002040	12.867	-75.989	-167.75	-0.087001	0.200795	-0.930711	-0.932084	-0.089055	12.867	-0.925520	-2.247663E+12	3.962098E-14	NaN
511	1.000000	0.212203	7.37005e+06	-51539.1	1005.82	-29752	0.000000	0.000000	6.212864	0.024054	NaN	0.000000	0.001609	0.001841	28.0804	0.100321	0.002039	49.1935	-135.046	13.8705	0.002649	0.210737	-0.920676	-0.922142	0.024054	49.1935	-0.921043	-1.955614E+12	-1.229980E-14	NaN
511	1.000000	0.222127	7.37005e+06	-51539.1	1005.82	-29752	0.000000	0.000000	6.222787	-0.004155	NaN	0.000000	0.001608	0.001836	28.0809	0.045336	0.002052	22.0936	131.26	-162.881	-0.018261	0.220817	-0.910751	-0.912061	-0.004155	22.0936	-0.910610	-1.413865E+12	2.938824E-15	NaN
511	1.000000	0.232175	7.37005e+06	-51539.1	1005.82	-29752	0.000000	0.000000	6.232836	0.012068	NaN	0.000000	0.001528	0.001784	28.0806	0.057915	0.001933	29.9681	-89.966	19.2352	-0.060217	0.230837	-0.900704	-0.902042	0.012068	29.9681	-0.901006	-1.048718E+12	-1.150782E-14	NaN
511	1.000000	0.242172	7.37005e+06	-51539.1	1005.82	-29752	0.000000	0.000000	6.242832	0.005516	NaN	0.000000	0.001549	0.001834	28.0811	0.055198	0.002007	27.5087	117.93	-166.539	-0.009150	0.240869	-0.890707	-0.892010	0.005516	27.5087	-0.890857	-7.647241E+11	-7.213266E-15	NaN
511	1.000000	0.252167	7.37005e+06	-51539.1	1005.82	-29752	0.000000	0.000000	6.252826	-0.033147	NaN	0.000000	0.001510	0.001787	28.0806	0.075413	0.001941	38.8462	54.9157	12.3122	-0.092359	0.250842	-0.880712	-0.882037	-0.033147	38.8462	-0.880072	-5.466159E+11	6.063977E-14	NaN
511	1.000000	0.262198	7.37005e+06	-51539.1	1005.82	-29752	0.000000	0.000000	6.262860	0.038007	NaN	0.000000	0.001527	0.001765	28.0818	0.026656	0.002134	12.4885	146.488	-168.489	0.042060	0.260896	-0.870681	-0.871982	0.038007	12.4885	-0.872963	-4.380576E+11	-8.676361E-14	NaN
511	1.000000	0.272181	7.37005e+06	-51539.1	1005.82	-29752	0.000000	0.000000	6.272842	0.015179	NaN	0.000000	0.001515	0.001750	28.0818	0.044451	0.001914	23.2208	-167.865	12.4839	0.003897	0.270819	-0.860698	-0.862059	0.015179	23.2208	-0.861188	-3.035325E+11	-5.000877E-14	NaN
511	1.000000	0.282182	7.37005e+06	-51539.1	1005.82	-29752	0.000000	0.000000	6.282844	0.039209	NaN	0.000000	0.001531	0.001771	28.0819	0.071218	0.001909	37.3111	-164.777	-166.334	0.048770	0.280843	-0.850696	-0.852036	0.039209	37.3111	-0.851485	-2.243060E+11	-1.748021E-13	NaN
511	1.000000	0.292165	7.37005e+06	-51539.1	1005.82	-29752	0.000000	0.000000	6.292825	-0.000627	NaN	0.000000	0.001502	0.001812	28.0817	0.070284	0.002105	33.3811	82.4379	11.8705	0.006927	0.290827	-0.840714	-0.842052	-0.000627	33.3811	-0.840700	-1.602416E+11	3.913653E-15	NaN
511	1.000000	0.302219	7.37005e+06	-51539.1	1005.82	-29752	0.000000	0.000000	6.302881	0.041729	NaN	0.000000	0.001546	0.001782	28.0818	0.043021	0.001999	21.5263	32.5955	-165.503	0.025557	0.300863	-0.830660	-0.832016	0.041729	21.5263	-0.832114	-1.225839E+11	-3.404100E-13	NaN
511	1.000000	0.312221	7.37005e+06	-51539.1	1005.82	-29752	0.000000	0.000000	6.312881	-0.028166	NaN	0.000000	0.001544	0.001788	28.0819	0.021638	0.001965	11.0098	41.1975	15.1468	-0.036562	0.310860	-0.820657	-0.822019	-0.028166	11.0098	-0.818738	-8.074282E+10	3.488303E-13	NaN
511	1.000000	0.322199	7.37005e+06	-51539.1	1005.82	-29752	0.000000	0.000000	6.322862	0.041049	NaN	0.000000	0.001535	0.001780	28.0818	0.105950	0.002005	52.8379	-150.636	-164.243	0.094037	0.320871	-0.810679	-0.812008	0.041049	52.8379	-0.811262	-6.392790E+10	-6.421131E-13	NaN
511	1.000000	0.332177	7.37005e+06	-51539.1	1005.82	-29752	0.000000	0.000000	6.332837	0.002111	NaN	0.000000	0.001509	0.001771	28.082	0.033338	0.002026	16.4583	72.2396	14.0439	-0.024848	0.330823	-0.800702	-0.802056	0.002111	16.4583	-0.800798	-4.609938E+10	-4.578160E-14	NaN
511	1.000000	0.342232	7.37005e+06	-51539.1	1005.82	-29752	0.000000	0.000000	6.342894	0.050551	NaN	0.000000	0.001490	0.001760	28.0819	0.094185	0.002018	46.673	112.82	-166.543	-0.018996	0.340910	-0.790647	-0.791969	0.050551	46.673	-0.791459	-3.442685E+10	-1.468348E-12	NaN
511	1.000000	0.352232	7.37005e+06	-51539.1	1005.82	-29752	0.000000	0.000000	6.352893	0.029066	NaN	0.000000	0.001499	0.001775	28.0821	0.038198	0.001862	20.5153	-151.58	11.2881	0.021213	0.350864	-0.780647	-0.782015	0.029066	20.5153	-0.781710	-2.537834E+10	-1.145298E-12	NaN
511	1.000000	0.362205	7.37005e+06	-51539.1	1005.82	-29752	0.000000	0.000000	6.362867	0.026488	NaN	0.000000	0.001533	0.001745	28.0818	0.111501	0.002009	55.4975	-144.643	-166.076	0.048910	0.360892	-0.770674	-0.771987	0.026488	55.4975	-0.771032	-1.816898E+10	-1.457876E-12	NaN
511	1.000000	0.372221	7.37005e+06	-51539.1	1005.82	-29752	0.000000	0.000000	6.372885	0.077885	NaN	0.000000	0.001517	0.001755	28.0817	0.032454	0.002100	15.4554	-60.8644	12.5117	0.038790	0.370868	-0.760658	-0.762011	0.077885	15.4554	-0.764437	-1.477943E+10	-5.269797E-12	NaN
511	1.000000	0.382236	7.37005e+06	-51539.1	1005.82	-29752	0.000000	0.000000	6.382895	-0.019093	NaN	0.000000	0.001530	0.001815	28.0818	0.051033	0.002085	24.4755	42.5473	-169.97	0.044472	0.380916	-0.750643	-0.751963	-0.019093	24.4755	-0.750058	-9.419094E+9	2.027050E-12	NaN
511	1.000000	0.392219	7.37005e+06	-51539.1	1005.82	-29752	0.000000	0.000000	6.392880	0.029759	NaN	0.000000	0.001548	0.001783	28.0821	0.042085	0.001959	21.4878	-13.1862	15.5098	0.034305	0.390873	-0.740660	-0.742006	0.029759	21.4878	-0.741699	-7.247590E+9	-4.106060E-12	NaN
511	1.000000	0.402226	7.37005e+06	-51539.1	1005.82	-29752	0.000000	0.000000	6.402884	-0.054330	NaN	0.000000	0.001529	0.001779	28.0803	0.054221	0.002078	26.0974	-166.504	-166.559	-0.020127	0.400976	-0.730652	-0.731903	-0.054330	26.0974	-0.729091	-4.879995E+9	1.113321E-11	NaN
511	1.000000	0.412218	7.37005e+06	-51539.1	1005.82	-29752	0.000000	0.000000	6.412878	0.000163	NaN	0.000000	0.001554	0.001778	28.0804	0.064450	0.001998	32.2491	170.704	20.4243	0.045349	0.410887	-0.720661	-0.721992	0.000163	32.2491	-0.720665	-3.745754E+9	-4.363878E-14	NaN
511	1.000000	0.422258	7.37005e+06	-51539.1	1005.82	-29752	0.000000	0.000000	6.422919	0.001769	NaN	0.000000	0.001571	0.001767	28.0807	0.116160	0.001998	58.1301	23.7079	-168.63	-0.031558	0.420910	-0.710620	-0.711968	0.001769	58.1301	-0.710643	-2.734160E+9	-6.471373E-13	NaN
511	1.000000	0.432238	7.37005e+06	-51539.1	1005.82	-29752	0.000000	0.000000	6.432900	0.048964	NaN	0.000000	0.001502	0.001792	28.0808	0.064574	0.002052	31.4625	-90.2908	15.9144	0.050540	0.430917	-0.700641	-0.701962	0.048964	31.4625	-0.701808	-2.071189E+9	-2.364076E-11	NaN
511	1.000000	0.442270	7.37005e+06	-51539.1	1005.82	-29752	0.000000	0.000000	6.442933	0.051352	NaN	0.000000	0.001531	0.001835	28.0807	0.018120	0.001936	9.358600	-166.126	-170.023	0.083489	0.440968	-0.690608	-0.691910	0.051352	9.358600	-0.694723	-1.657522E+9	-3.098109E-11	NaN
511	1.000000	0.452273	7.37005e+06	-51539.1	1005.82	-29752	0.000000	0.000000	6.452935	0.029862	NaN	0.000000	0.001544	0.001812	28.0808	0.097336	0.002010	48.4186	-171.039	10.1997	0.044525	0.450914	-0.680605	-0.681965	0.029862	48.4186	-0.681068	-1.078479E+9	-2.768925E-11	NaN
511	1.000000	0.462276	7.37005e+06	-51539.1	1005.82	-29752	0.000000	0.000000	6.462940	0.085463	NaN	0.000000	0.001515	0.001799	28.0808	0.034367	0.002068	16.6221	87.4228	-165.327	0.069647	0.460969	-0.670602	-0.671910	0.085463	16.6221	-0.674459	-8.757967E+8	-9.758287E-11	NaN
511	1.000000	0.472272	7.37005e+06	-51539.1	1005.82	-29752	0.000000	0.000000	6.472933	0.028505	NaN	0.000000	0.001545	0.001785	28.0809	0.077005	0.001979	38.9169	-141.687	13.7822	0.036516	0.470939	-0.660607	-0.661939	0.028505	38.9169	-0.661156	-5.758431E+8	-4.950057E-11	NaN
511	1.000000	0.482266	7.37005e+06	-51539.1	1005.82	-29752	0.000000	0.000000	6.482928	0.027753	NaN	0.000000	0.001534	0.001801	28.0806	0.067059	0.001988	33.7239	-57.265	-162.406	-0.013044	0.480921	-0.650613	-0.651958	0.027753	33.7239	-0.651230	-4.210115E+8	-6.591875E-11	NaN
511	1.000000	0.492272	7.37005e+06	-51539.1	1005.82	-29752	0.000000	0.000000	6.492934	0.056308	NaN	0.000000	0.001548	0.001820	28.0809	0.036977	0.001954	18.9236	158.925	11.7705	0.067509	0.490960	-0.640607	-0.641918	0.056308	18.9236	-0.642839	-3.230235E+8	-1.743156E-10	NaN
511	1.000000	0.502274	7.37005e+06	-51539.1	1005.82	-29752	0.000000	0.000000	6.502933	-0.021327	NaN	0.000000	0.001569	0.001784	28.081	0.074648	0.002093	35.6602	155.139	-163.096	-0.074599	0.500981	-0.630605	-0.631897	-0.021327	35.6602	-0.630156	-2.163565E+8	9.857354E-11	NaN
511	1.000000	0.512305	7.37005e+06	-51539.1	1005.82	-29752	0.000000	0.000000	6.512970	0.094865	NaN	0.000000	0.001581	0.001799	28.0807	0.026470	0.002062	12.8359	125.902	13.9825	0.066156	0.510977	-0.620573	-0.621901	0.094865	12.8359	-0.626116	-1.904056E+8	-4.982280E-10	NaN
511	1.000000	0.522300	7.37005e+06	-51539.1	1005.82	-29752	0.000000	0.000000	6.522962	0.046811	NaN	0.000000	0.001524	0.001801	28.0811	0.069379	0.002003	34.6294	59.373	-163.784	-0.013330	0.520946	-0.610579	-0.611932	0.046811	34.6294	-0.611593	-1.202335E+8	-3.893374E-10	NaN
511	1.000000	0.532312	7.37005e+06	-51539.1	1005.82	-29752	0.000000	0.000000	6.532975	0.062686	NaN	0.000000	0.001595	0.001808	28.0809	0.072791	0.002066	35.231	-78.5578	13.4756	0.022018	0.530944	-0.600567	-0.601934	0.062686	35.231	-0.601902	-8.843960E+7	-7.088037E-10	NaN
511	1.000000	0.542266	7.37005e+06	-51539.1	1005.82	-29752	0.000000	0.000000	6.542926	-0.013263	NaN	0.000000	0.001578	0.001797	28.0822	0.058991	0.001949	30.2669	103.981	-165.15	0.000112	0.540982	-0.590613	-0.591897	-0.013263	30.2669	-0.590284	-6.117621E+7	2.167927E-10	NaN
511	1.000000	0.552308	7.37005e+06	-51539.1	1005.82	-29752	0.000000	0.000000	6.552971	0.048336	NaN	0.000000	0.001616	0.001806	28.0819	0.015400	0.001932	7.969420	-51.9136	12.7954	0.017536	0.550940	-0.580570	-0.581938	0.048336	7.969420	-0.585119	-5.192291E+7	-9.309249E-10	NaN
511	1.000000	0.562319	7.37005e+06	-51539.1	1005.82	-29752	0.000000	0.000000	6.562979	-0.012913	NaN	0.000000	0.001609	0.001814	28.082	0.068985	0.002034	33.914	-81.7514	-167.878	0.045557	0.561016	-0.570560	-0.571863	-0.012913	33.914	-0.570274	-3.239052E+7	3.986549E-10	NaN
511	1.000000	0.572278	7.37005e+06	-51539.1	1005.82	-29752	0.000000	0.000000	6.572941	0.050575	NaN	0.000000	0.001537	0.001794	28.0821	0.073935	0.002100	35.2126	151.555	15.4453	0.031900	0.570958	-0.560600	-0.561921	0.050575	35.2126	-0.561677	-2.463658E+7	-2.052831E-9	NaN
511	1.000000	0.582313	7.37005e+06	-51539.1	1005.82	-29752	0.000000	0.000000	6.582974	0.008269	NaN	0.000000	0.001528	0.001788	28.082	0.097510	0.002041	47.7809	-116.309	-166.611	0.029708	0.580952	-0.550566	-0.551927	0.008269	47.7809	-0.550695	-1.736146E+7	-4.762740E-10	NaN
511	1.000000	0.592314	7.37005e+06	-51539.1	1005.82	-29752	0.000000	0.000000	6.592974	-0.012158	NaN	0.000000	0.001555	0.001803	28.0816	0.155198	0.001831	84.7665	63.5998	11.8211	-0.044206	0.590939	-0.540565	-0.541939	-0.012158	84.7665	-0.540457	-1.252275E+7	9.708507E-10	NaN
511	1.000000	0.602346	7.37005e+06	-51539.1	1005.82	-29752	0.000000	0.000000	6.603008	0.040990	NaN	0.000000	0.001525	0.001793	28.0817	0.011902	0.002144	5.551971	-43.3049	-164.174	0.070864	0.600988	-0.530533	-0.531890	0.040990	5.551971	-0.536070	-1.088534E+7	-3.765601E-9	NaN
511	1.000000	0.612318	7.37005e+06	-51539.1	1005.82	-29752	0.000000	0.000000	6.612980	0.038049	NaN	0.000000	0.001527	0.001796	28.0823	0.073218	0.002066	35.4461	137.94	13.8765	0.091554	0.610993	-0.520561	-0.521885	0.038049	35.4461	-0.521366	-6.80134e+06	-5.594289E-9	NaN
511	1.000000	0.622345	7.37005e+06	-51539.1	1005.82	-29752	0.000000	0.000000	6.623007	0.021372	NaN	0.000000	0.001559	0.001800	28.0818	0.079713	0.002101	37.9457	-44.4861	-164.785	0.041233	0.621016	-0.510533	-0.511862	0.021372	37.9457	-0.510956	-4.87224e+06	-4.386568E-9	NaN
511	1.000000	0.632321	7.37005e+06	-51539.1	1005.82	-29752	0.000000	0.000000	6.632982	0.015828	NaN	0.000000	0.001553	0.001793	28.0819	0.037256	0.001913	19.4739	-99.4375	15.0133	0.017668	0.630996	-0.500558	-0.501883	0.015828	19.4739	-0.501168	-3.55881e+06	-4.447434E-9	NaN
511	1.000000	0.642346	7.37005e+06	-51539.1	1005.82	-29752	0.000000	0.000000	6.643005	-0.050810	NaN	0.000000	0.001519	0.001812	28.0819	0.027598	0.002000	13.8023	164.727	-166.744	-0.068699	0.640967	-0.490532	-0.491912	-0.050810	13.8023	-0.487771	-2.31335e+06	2.196379E-8	NaN
511	1.000000	0.652309	7.37005e+06	-51539.1	1005.82	-29752	0.000000	0.000000	6.652968	-0.023364	NaN	0.000000	0.001544	0.001769	28.0821	0.092983	0.002117	43.9178	38.6718	12.4825	0.012848	0.650966	-0.480570	-0.481912	-0.023364	43.9178	-0.480171	-1.81099e+06	1.290140E-8	NaN
511	1.000000	0.662353	7.37005e+06	-51539.1	1005.82	-29752	0.000000	0.000000	6.663015	0.042310	NaN	0.000000	0.001580	0.001805	28.082	0.067101	0.001947	34.4627	-63.8646	-165.644	-0.013572	0.661051	-0.470526	-0.471828	0.042310	34.4627	-0.471447	-1.36677e+06	-3.095603E-8	NaN
511	1.000000	0.672369	7.37005e+06	-51539.1	1005.82	-29752	0.000000	0.000000	6.673031	0.035499	NaN	0.000000	0.001558	0.001806	28.0807	0.088562	0.002017	43.9167	-70.2009	17.9488	0.083439	0.670974	-0.460510	-0.461904	0.035499	43.9167	-0.461116	-978813	-3.626720E-8	NaN
511	1.000000	0.682383	7.37005e+06	-51539.1	1005.82	-29752	0.000000	0.000000	6.683044	0.009845	NaN	0.000000	0.001558	0.001783	28.0808	0.028839	0.001967	14.6644	-134.21	-169.38	-0.018223	0.681093	-0.450495	-0.451785	0.009845	14.6644	-0.450999	-705358	-1.395716E-8	NaN
511	1.000000	0.692376	7.37005e+06	-51539.1	1005.82	-29752	0.000000	0.000000	6.693039	0.047977	NaN	0.000000	0.001535	0.001775	28.0807	0.057674	0.001862	30.9685	-13.556	12.8661	0.061712	0.690992	-0.440502	-0.441887	0.047977	30.9685	-0.441664	-521009	-9.208472E-8	NaN
511	1.000000	0.702381	7.37005e+06	-51539.1	1005.82	-29752	0.000000	0.000000	6.703043	0.029044	NaN	0.000000	0.001539	0.001808	28.0809	0.037865	0.001948	19.4403	72.0656	-166.994	0.008082	0.701024	-0.430497	-0.431855	0.029044	19.4403	-0.431618	-375788	-7.728873E-8	NaN
511	1.000000	0.712383	7.37005e+06	-51539.1	1005.82	-29752	0.000000	0.000000	6.713045	0.040421	NaN	0.000000	0.001551	0.001777	28.0807	0.135016	0.001938	69.6681	-117.36	15.4014	0.034995	0.711020	-0.420496	-0.421858	0.040421	69.6681	-0.420931	-265228	-1.524007E-7	NaN
511	1.000000	0.722366	7.37005e+06	-51539.1	1005.82	-29752	0.000000	0.000000	6.723025	-0.031724	NaN	0.000000	0.001537	0.001786	28.0809	0.160672	0.002069	77.6465	-11.207	-167.25	0.021532	0.721092	-0.410513	-0.411787	-0.031724	77.6465	-0.410207	-186784	1.698428E-7	NaN
511	1.000000	0.732377	7.37005e+06	-51539.1	1005.82	-29752	0.000000	0.000000	6.733037	-0.015708	NaN	0.000000	0.001556	0.001802	28.0806	0.141813	0.001955	72.5387	-156.028	18.676	0.017968	0.731014	-0.400502	-0.401864	-0.015708	72.5387	-0.400339	-135156	1.162220E-7	NaN
511	1.000000	0.742368	7.37005e+06	-51539.1	1005.82	-29752	0.000000	0.000000	6.743031	0.051186	NaN	0.000000	0.001538	0.001767	28.0813	0.029382	0.001912	15.3684	-120.68	-166.183	0.059772	0.741064	-0.390510	-0.391815	0.051186	15.3684	-0.393008	-106213	-4.819168E-7	NaN
511	1.000000	0.752399	7.37005e+06	-51539.1	1005.82	-29752	0.000000	0.000000	6.753059	-0.024248	NaN	0.000000	0.001552	0.001764	28.0807	0.141071	0.002062	68.4132	-51.469	12.683	0.014837	0.751033	-0.380479	-0.381845	-0.024248	68.4132	-0.380213	-69655	3.481187E-7	NaN
511	1.000000	0.762386	7.37005e+06	-51539.1	1005.82	-29752	0.000000	0.000000	6.763046	-0.023679	NaN	0.000000	0.001563	0.001738	28.081	0.079980	0.001883	42.4658	11.1722	-164.423	-0.070078	0.761037	-0.370492	-0.371841	-0.023679	42.4658	-0.370074	-49795.9	4.755250E-7	NaN
511	1.000000	0.772387	7.37005e+06	-51539.1	1005.82	-29752	0.000000	0.000000	6.773047	0.007681	NaN	0.000000	0.001575	0.001769	28.0807	0.021660	0.001933	11.2049	-172.042	15.1961	0.063201	0.771048	-0.360492	-0.361830	0.007681	11.2049	-0.361006	-36845.5	-2.084553E-7	NaN
511	1.000000	0.782390	7.37005e+06	-51539.1	1005.82	-29752	0.000000	0.000000	6.783052	0.037854	NaN	0.000000	0.001582	0.001747	28.0808	0.040864	0.002021	20.2224	26.37	-168.039	0.021396	0.781025	-0.350489	-0.351854	0.037854	20.2224	-0.351893	-27193.4	-1.392024E-6	NaN
511	1.000000	0.792411	7.37005e+06	-51539.1	1005.82	-29752	0.000000	0.000000	6.793074	0.058641	NaN	0.000000	0.001576	0.001749	28.0809	0.067544	0.002065	32.7042	-7.754261	13.5353	-0.019281	0.791025	-0.340467	-0.341853	0.058641	32.7042	-0.341812	-19406.9	-3.021630E-6	NaN
511	1.000000	0.802406	7.37005e+06	-51539.1	1005.82	-29752	0.000000	0.000000	6.803065	-0.032177	NaN	0.000000	0.001613	0.001764	28.0808	0.077226	0.002073	37.2458	84.5149	-164.566	0.021987	0.801093	-0.330473	-0.331785	-0.032177	37.2458	-0.329825	-12968.5	2.481156E-6	NaN
511	1.000000	0.812413	7.37005e+06	-51539.1	1005.82	-29752	0.000000	0.000000	6.813073	-0.001142	NaN	0.000000	0.001653	0.001790	28.0821	0.030486	0.001896	16.08	-163.884	13.3768	-0.069814	0.811088	-0.320466	-0.321790	-0.001142	16.08	-0.320412	-9434.29	1.210097E-7	NaN
511	1.000000	0.822400	7.37005e+06	-51539.1	1005.82	-29752	0.000000	0.000000	6.823062	0.053976	NaN	0.000000	0.001619	0.001802	28.0822	0.067403	0.001932	34.8843	107.103	-164.544	0.052091	0.821123	-0.310479	-0.311755	0.053976	34.8843	-0.311639	-7003.32	-7.707232E-6	NaN
511	1.000000	0.832426	7.37005e+06	-51539.1	1005.82	-29752	0.000000	0.000000	6.833087	0.017851	NaN	0.000000	0.001615	0.001770	28.0824	0.105353	0.001979	53.2364	82.5169	12.8362	0.093082	0.831025	-0.300453	-0.301854	0.017851	53.2364	-0.300704	-4820.78	-3.702911E-6	NaN
511	1.000000	0.842423	7.37005e+06	-51539.1	1005.82	-29752	0.000000	0.000000	6.843083	-0.005707	NaN	0.000000	0.001607	0.001773	28.0822	0.055321	0.002158	25.6402	88.308	-168.03	-0.048696	0.841094	-0.290456	-0.291785	-0.005707	25.6402	-0.290289	-3369.98	1.693436E-6	NaN
511	1.000000	0.852416	7.37005e+06	-51539.1	1005.82	-29752	0.000000	0.000000	6.853079	0.067845	NaN	0.000000	0.001672	0.001752	28.0821	0.106997	0.001994	53.6468	-11.2446	13.599	0.031311	0.851075	-0.280463	-0.281804	0.067845	53.6468	-0.281412	-2478.88	-2.736934E-5	NaN
511	1.000000	0.862413	7.37005e+06	-51539.1	1005.82	-29752	0.000000	0.000000	6.863071	-0.058088	NaN	0.000000	0.001580	0.001772	28.0823	0.084519	0.002086	40.5259	-121.531	-168.522	-0.143975	0.861127	-0.270465	-0.271752	-0.058088	40.5259	-0.269390	-1630.33	3.562988E-5	NaN
511	1.000000	0.872401	7.37005e+06	-51539.1	1005.82	-29752	0.000000	0.000000	6.873064	0.046856	NaN	0.000000	0.001629	0.001725	28.0821	0.065862	0.002027	32.4981	-91.6987	11.2146	0.088887	0.870997	-0.260477	-0.261881	0.046856	32.4981	-0.261559	-1238.19	-3.784208E-5	NaN
511	1.000000	0.882436	7.37005e+06	-51539.1	1005.82	-29752	0.000000	0.000000	6.883098	0.035968	NaN	0.000000	0.001570	0.001743	28.0821	0.103882	0.001972	52.6871	43.428	-164.965	0.037255	0.881136	-0.250443	-0.251743	0.035968	52.6871	-0.250955	-850.599	-4.228572E-5	NaN
511	1.000000	0.892456	7.37005e+06	-51539.1	1005.82	-29752	0.000000	0.000000	6.893118	0.055200	NaN	0.000000	0.001604	0.001776	28.0821	0.012643	0.002104	6.008278	40.0731	12.1406	0.083099	0.891100	-0.240423	-0.241778	0.055200	6.008278	-0.247313	-747.071	-7.388806E-5	NaN
511	1.000000	0.902461	7.37005e+06	-51539.1	1005.82	-29752	0.000000	0.000000	6.903120	-0.032648	NaN	0.000000	0.001578	0.001780	28.0825	0.059792	0.002117	28.2419	92.7388	-167.685	0.023351	0.901094	-0.230418	-0.231784	-0.032648	28.2419	-0.229551	-393.934	8.287576E-5	NaN
511	1.000000	0.912432	7.37005e+06	-51539.1	1005.82	-29752	0.000000	0.000000	6.913094	0.032015	NaN	0.000000	0.001572	0.001800	28.0821	0.014105	0.001967	7.171763	-16.5724	11.0546	0.049402	0.911068	-0.220446	-0.221810	0.032015	7.171763	-0.223794	-319.28	-0.000100	NaN
511	1.000000	0.922476	7.37005e+06	-51539.1	1005.82	-29752	0.000000	0.000000	6.923139	0.067030	NaN	0.000000	0.001594	0.001777	28.0822	0.069772	0.002057	33.9169	131.86	-168.161	0.082638	0.921153	-0.210403	-0.211726	0.067030	33.9169	-0.211885	-205.733	-0.000326	NaN
511	1.000000	0.932475	7.37005e+06	-51539.1	1005.82	-29752	0.000000	0.000000	6.933138	0.062203	NaN	0.000000	0.001593	0.001808	28.0823	0.091910	0.002079	44.2063	-22.6884	11.3994	0.023846	0.931032	-0.200403	-0.201847	0.062203	44.2063	-0.201459	-139.201	-0.000447	NaN
511	1.000000	0.942460	7.37005e+06	-51539.1	1005.82	-29752	0.000000	0.000000	6.943123	0.076505	NaN	0.000000	0.001579	0.001763	28.0821	0.058505	0.002013	29.0579	16.1617	-164.43	0.072185	0.941105	-0.190419	-0.191774	0.076505	29.0579	-0.192393	-98.6122	-0.000776	NaN
511	1.000000	0.952480	7.37005e+06	-51539.1	1005.82	-29752	0.000000	0.000000	6.953144	0.070112	NaN	0.000000	0.001578	0.001794	28.0808	0.078075	0.001936	40.3291	-68.3201	12.2551	-0.002254	0.951093	-0.180398	-0.181786	0.070112	40.3291	-0.181702	-65.2201	-0.001075	NaN
511	1.000000	0.962481	7.37005e+06	-51539.1	1005.82	-29752	0.000000	0.000000	6.963142	0.003098	NaN	0.000000	0.001587	0.001798	28.081	0.070152	0.002001	35.0564	25.4709	-168.206	0.002925	0.961189	-0.170397	-0.171689	0.003098	35.0564	-0.170464	-41.8467	-7.403376E-5	NaN
511	1.000000	0.972447	7.37005e+06	-51539.1	1005.82	-29752	0.000000	0.000000	6.973111	0.079189	NaN	0.000000	0.001572	0.001777	28.081	0.035796	0.001976	18.1159	-87.3824	14.0779	0.013374	0.971068	-0.160432	-0.161810	0.079189	18.1159	-0.163710	-31.8875	-0.002483	NaN
511	1.000000	0.982450	7.37005e+06	-51539.1	1005.82	-29752	0.000000	0.000000	6.983111	0.016405	NaN	0.000000	0.001564	0.001777	28.0809	0.111119	0.002095	53.0378	22.6118	-167.267	0.010970	0.981167	-0.150428	-0.151712	0.016405	53.0378	-0.150660	-18.6225	-0.000881	NaN
511	1.000000	0.992458	7.37005e+06	-51539.1	1005.82	-29752	0.000000	0.000000	6.993122	0.081243	NaN	0.000000	0.001587	0.001796	28.0809	0.051317	0.001966	26.0982	-54.62	17.1525	0.080480	0.991095	-0.140421	-0.141784	0.081243	26.0982	-0.142756	-13.3201	-0.006099	NaN
511	1.000000	1.002472	7.37005e+06	-51539.1	1005.82	-29752	0.000000	0.000000	7.003131	-0.026435	NaN	0.000000	0.001582	0.001793	28.0809	0.046984	0.002019	23.2697	-163.278	-164.836	-0.074805	1.001130	-0.130407	-0.131749	-0.026435	23.2697	-0.129555	-7.470593	0.003539	NaN
511	1.000000	1.012477	7.37005e+06	-51539.1	1005.82	-29752	0.000000	0.000000	7.013138	0.009395	NaN	0.000000	0.001537	0.001807	28.0811	0.042866	0.001940	22.0905	177.061	17.7641	0.051219	1.011104	-0.120401	-0.121775	0.009395	22.0905	-0.120720	-4.995758	-0.001881	NaN
511	1.000000	1.022470	7.37005e+06	-51539.1	1005.82	-29752	0.000000	0.000000	7.023131	0.021805	NaN	0.000000	0.001546	0.001815	28.0807	0.053955	0.001950	27.6702	160.902	-165.67	0.043301	1.021190	-0.110409	-0.111688	0.021805	27.6702	-0.111000	-3.154350	-0.006913	NaN
511	1.000000	1.032504	7.37005e+06	-51539.1	1005.82	-29752	0.000000	0.000000	7.033164	0.007572	NaN	0.000000	0.001541	0.001817	28.0807	0.055260	0.001955	28.27	60.0044	12.074	-0.025819	1.031111	-0.100375	-0.101768	0.007572	28.27	-0.100576	-1.881559	-0.004024	NaN
511	1.000000	1.042476	7.37005e+06	-51539.1	1005.82	-29752	0.000000	0.000000	7.043135	-0.040608	NaN	0.000000	0.001527	0.001818	28.0809	0.117613	0.001877	62.6727	152.33	-165.483	-0.068239	1.041171	-0.090403	-0.091707	-0.040608	62.6727	-0.089917	-1.076135	0.037735	NaN
511	1.000000	1.052493	7.37005e+06	-51539.1	1005.82	-29752	0.000000	0.000000	7.053151	-0.052357	NaN	0.000000	0.001548	0.001800	28.0809	0.055918	0.002074	26.9653	108.949	14.7659	-0.053717	1.051127	-0.080386	-0.081752	-0.052357	26.9653	-0.078930	-0.581876	0.089980	NaN
511	1.000000	1.062494	7.37005e+06	-51539.1	1005.82	-29752	0.000000	0.000000	7.063152	-0.068120	NaN	0.000000	0.001567	0.001780	28.0808	0.097002	0.001964	49.3869	157.478	-166.736	0.011667	1.061179	-0.070384	-0.071700	-0.068120	49.3869	-0.069350	-0.327670	0.207891	NaN
511	1.000000	1.072488	7.37005e+06	-51539.1	1005.82	-29752	0.000000	0.000000	7.073150	0.030861	NaN	0.000000	0.001567	0.001751	28.0807	0.120754	0.001993	60.575	159.012	11.0899	0.028188	1.071157	-0.060391	-0.061722	0.030861	60.575	-0.060773	-0.189499	-0.162853	NaN
511	1.000000	1.082516	7.37006e+06	-51539.1	1005.82	-29752	0.000000	0.000000	7.083177	0.016937	NaN	0.000000	0.001562	0.001756	28.0822	0.025372	0.001917	13.2338	-38.1071	-165.948	0.013409	1.081178	-0.050362	-0.051701	0.016937	13.2338	-0.051322	-0.100028	-0.169322	NaN
511	1.000000	1.092493	7.37006e+06	-51539.1	1005.82	-29752	0.000000	0.000000	7.093154	0.020661	NaN	0.000000	0.001535	0.001763	28.0819	0.055383	0.001962	28.2206	-12.4636	15.3459	-0.045196	1.091151	-0.040386	-0.041728	0.020661	28.2206	-0.040935	-0.048283	-0.427916	NaN
511	1.000000	1.102510	7.37006e+06	-51539.1	1005.82	-29752	0.000000	0.000000	7.103171	-0.000440	NaN	0.000000	0.001550	0.001777	28.0819	0.064845	0.002022	32.0709	-18.3149	-163.864	-0.070192	1.101240	-0.030368	-0.031638	-0.000440	32.0709	-0.030358	-0.023549	0.018686	NaN
511	1.000000	1.112523	7.37006e+06	-51539.1	1005.82	-29752	0.000000	0.000000	7.113184	0.024281	NaN	0.000000	0.001569	0.001757	28.082	0.061396	0.002011	30.5275	65.4443	11.0393	0.049193	1.111217	-0.020356	-0.021662	0.024281	30.5275	-0.020952	-0.013281	-1.828300	NaN
511	1.000000	1.122520	7.37006e+06	-51539.1	1005.82	-29752	0.000000	0.000000	7.123182	0.024186	NaN	0.000000	0.001579	0.001759	28.0821	0.051532	0.002004	25.7202	145.842	-166.965	0.011623	1.121216	-0.010359	-0.011663	0.024186	25.7202	-0.011064	-0.006994	-3.457947	NaN
511	1.000000	1.132480	7.37006e+06	-51539.1	1005.82	-29752	0.000000	0.000000	7.133272	3.197296	NaN	0.000000	0.001580	0.001769	28.082	3.844296	0.001840	2089.59	6.669774	11.1765	1.460108	1.131165	-0.000399	-0.001714	3.197296	2089.59	-0.001546	-0.001122	-2849.02	NaN
511	2.000000	1.139068	7.37006e+06	-51539.1	1005.82	-29752	0.000000	0.000000	7.140118	9.481859	NaN	0.000000	0.001587	0.001759	28.082	9.859543	0.001658	5947.97	9.176727	-176.218	9.512839	1.138778	0.006189	0.005899	9.481859	5947.97	0.004994	0.004128	2297.11	84583.7
511	2.000000	1.141524	7.37006e+06	-51539.1	1005.82	-29752	0.000000	0.000000	7.142708	12.7362	NaN	0.000000	0.001538	0.001745	28.0819	13.004	0.001763	7377.92	8.427605	1.418911	11.2529	1.141190	0.008645	0.008312	12.7362	7377.92	0.007351	0.006383	1995.37	84372
511	2.000000	1.144015	7.37006e+06	-51539.1	1005.82	-29752	0.000000	0.000000	7.145359	16.6199	NaN	0.000000	0.001554	0.001733	28.082	15.6413	0.001828	8555.49	6.612969	-175.434	15.6683	1.143720	0.011137	0.010841	16.6199	8555.49	0.009680	0.008828	1882.66	83193.5
511	2.000000	1.146558	7.37006e+06	-51539.1	1005.82	-29752	0.000000	0.000000	7.148106	21.5896	NaN	0.000000	0.001546	0.001741	28.082	18.4054	0.001830	10057	9.727485	1.474914	21.625	1.146094	0.013680	0.013216	21.5896	10057	0.012069	0.011573	1865.45	85410.7
511	2.000000	1.148980	7.37006e+06	-51539.1	1005.82	-29752	0.000000	0.000000	7.150669	24.9908	NaN	0.000000	0.001604	0.001806	28.0819	20.6865	0.001836	11269.6	6.899005	-178.506	23.7466	1.148692	0.016102	0.015813	24.9908	11269.6	0.014439	0.014544	1718.28	85376.9
511	2.000000	1.151458	7.37006e+06	-51539.1	1005.82	-29752	0.000000	0.000000	7.153396	31.052	NaN	0.000000	0.001618	0.001805	28.0819	23.238	0.001805	12874.2	5.588526	1.524175	29.3784	1.151155	0.018580	0.018277	31.052	12874.2	0.016771	0.017720	1752.41	88362.3
511	2.000000	1.154020	7.37006e+06	-51539.1	1005.82	-29752	0.000000	0.000000	7.156201	36.9662	NaN	0.000000	0.001625	0.001777	28.082	26.1297	0.001760	14848.6	6.654066	179.489	38.6014	1.153670	0.021141	0.020791	36.9662	14848.6	0.019274	0.021415	1726.22	92705.1
511	2.000000	1.156516	7.37006e+06	-51539.1	1005.82	-29752	0.000000	0.000000	7.159045	45.4296	NaN	0.000000	0.001583	0.001781	28.0819	28.3181	0.001696	16694	7.103628	-2.876915	44.3869	1.156083	0.023638	0.023204	45.4296	16694	0.021597	0.025114	1808.94	96244.6
511	2.000000	1.158989	7.37006e+06	-51539.1	1005.82	-29752	0.000000	0.000000	7.161662	48.9436	NaN	0.000000	0.001543	0.001797	28.0807	30.2454	0.001688	17921.9	5.664314	177.492	48.8369	1.158678	0.026110	0.025800	48.9436	17921.9	0.024062	0.029331	1668.66	95607.7
511	2.000000	1.161442	7.37006e+06	-51539.1	1005.82	-29752	0.000000	0.000000	7.164511	58.5823	NaN	0.000000	0.001548	0.001827	28.081	33.0493	0.001818	18175.6	5.183743	-0.773145	57.1368	1.161079	0.028563	0.028200	58.5823	18175.6	0.026146	0.033133	1768.11	91229.2
511	2.000000	1.163945	7.37006e+06	-51539.1	1005.82	-29752	0.000000	0.000000	7.167257	64.4812	NaN	0.000000	0.001514	0.001826	28.081	36.532	0.001937	18862	7.246177	175.906	63.2601	1.163735	0.031066	0.030856	64.4812	18862	0.028502	0.037697	1710.53	88758.6
511	2.000000	1.166466	7.37006e+06	-51539.1	1005.82	-29752	0.000000	0.000000	7.170210	74.9884	NaN	0.000000	0.001603	0.001846	28.0807	37.97	0.001793	21178.2	5.830152	-3.783739	70.7816	1.166102	0.033587	0.033223	74.9884	21178.2	0.030931	0.042696	1756.32	93641.2
511	2.000000	1.168957	7.37006e+06	-51539.1	1005.82	-29752	0.000000	0.000000	7.172974	81.6189	NaN	0.000000	0.001615	0.001813	28.0806	40.5	0.001885	21487.4	8.302327	174.529	82.9024	1.168628	0.036079	0.035749	81.6189	21487.4	0.033230	0.047704	1710.94	89883
511	2.000000	1.171403	7.37006e+06	-51539.1	1005.82	-29752	0.000000	0.000000	7.175891	93.0692	NaN	0.000000	0.001618	0.001808	28.0809	43.3499	0.001855	23364	5.266546	-4.541092	88.6615	1.171061	0.038525	0.038183	93.0692	23364	0.035537	0.053004	1755.89	92718.6
511	2.000000	1.173950	7.37006e+06	-51539.1	1005.82	-29752	0.000000	0.000000	7.178887	103.987	NaN	0.000000	0.001627	0.001815	28.0808	45.8234	0.001871	24493.1	3.284037	178.075	103.271	1.173601	0.041071	0.040722	103.987	24493.1	0.037887	0.058681	1772.07	92377.6
511	2.000000	1.176449	7.37006e+06	-51539.1	1005.82	-29752	0.000000	0.000000	7.181761	113.104	NaN	0.000000	0.001628	0.001851	28.0809	47.9772	0.001840	26079.5	5.774493	-5.008520	110.649	1.176108	0.043571	0.043229	113.104	26079.5	0.040318	0.064853	1744.01	93563.9
511	2.000000	1.178961	7.37006e+06	-51539.1	1005.82	-29752	0.000000	0.000000	7.184582	120.615	NaN	0.000000	0.001645	0.001866	28.0804	50.2798	0.001759	28577.6	5.814702	173.827	122.214	1.178687	0.046082	0.045809	120.615	28577.6	0.042917	0.071784	1680.26	97450.9
511	2.000000	1.181395	7.37006e+06	-51539.1	1005.82	-29752	0.000000	0.000000	7.187529	133.112	NaN	0.000000	0.001664	0.001853	28.0808	53.4242	0.001902	28083.7	5.640169	-5.335418	129.025	1.181003	0.048516	0.048124	133.112	28083.7	0.044961	0.077477	1718.08	92181
511	2.000000	1.183894	7.37006e+06	-51539.1	1005.82	-29752	0.000000	0.000000	7.190388	141.846	NaN	0.000000	0.001631	0.001821	28.081	55.6686	0.001764	31566.9	5.600092	172.678	139.273	1.183723	0.051016	0.050844	141.846	31566.9	0.047646	0.085275	1663.39	98763.1
511	2.000000	1.186368	7.37006e+06	-51539.1	1005.82	-29752	0.000000	0.000000	7.193407	155.115	NaN	0.000000	0.001649	0.001828	28.0809	56.7546	0.001764	32180.1	6.752516	-7.260301	149.354	1.186016	0.053489	0.053138	155.115	32180.1	0.049874	0.092024	1685.58	96919.1
511	2.000000	1.188924	7.37006e+06	-51539.1	1005.82	-29752	0.000000	0.000000	7.196394	165.593	NaN	0.000000	0.001619	0.001867	28.0806	58.9354	0.001913	30802.4	4.852914	175.517	164.702	1.188521	0.056045	0.055642	165.593	30802.4	0.052013	0.098736	1677.12	89561
511	2.000000	1.191389	7.37006e+06	-51539.1	1005.82	-29752	0.000000	0.000000	7.199412	179.03	NaN	0.000000	0.001643	0.001820	28.081	61.475	0.001749	35147.8	3.335289	-5.007401	176.081	1.191077	0.058511	0.058198	179.03	35147.8	0.054690	0.107461	1666	97959.4
511	2.000000	1.193929	7.37006e+06	-51539.1	1005.82	-29752	0.000000	0.000000	7.202452	191.199	NaN	0.000000	0.001630	0.001836	28.0822	65.0479	0.001843	35295.7	3.894242	174.815	189.087	1.193560	0.061050	0.060681	191.199	35295.7	0.056987	0.115227	1659.32	94998.5
511	2.000000	1.196459	7.37006e+06	-51539.1	1005.82	-29752	0.000000	0.000000	7.205644	207.278	NaN	0.000000	0.001637	0.001828	28.0821	66.6481	0.001841	36201.9	3.687452	-5.233579	207.638	1.196052	0.063581	0.063174	207.278	36201.9	0.059286	0.123262	1681.61	94208.4
511	2.000000	1.198835	7.37006e+06	-51539.1	1005.82	-29752	0.000000	0.000000	7.208812	226.541	NaN	0.000000	0.001587	0.001823	28.0817	68.1618	0.001854	36771.4	2.423784	175.956	221.213	1.198523	0.065956	0.065645	226.541	36771.4	0.061336	0.130641	1734.07	92948.7
511	2.000000	1.201335	7.37006e+06	-51539.1	1005.82	-29752	0.000000	0.000000	7.211786	238.073	NaN	0.000000	0.001565	0.001786	28.0822	71.1447	0.001952	36453.4	4.873979	-6.340642	233.325	1.201018	0.068456	0.068139	238.073	36453.4	0.063558	0.138876	1714.29	89371.2
511	2.000000	1.203918	7.37006e+06	-51539.1	1005.82	-29752	0.000000	0.000000	7.214926	251.633	NaN	0.000000	0.001586	0.001850	28.0819	73.6132	0.001800	40890.5	7.249567	169.403	251.338	1.203666	0.071039	0.070787	251.633	40890.5	0.066424	0.149845	1679.29	96510.4
511	2.000000	1.206515	7.37006e+06	-51539.1	1005.82	-29752	0.000000	0.000000	7.218154	266.957	NaN	0.000000	0.001558	0.001813	28.0822	75.2832	0.001831	41123.9	6.224448	-9.227205	268.195	1.206125	0.073637	0.073247	266.957	41123.9	0.068768	0.159112	1677.79	94192.3
511	2.000000	1.208860	7.37006e+06	-51539.1	1005.82	-29752	0.000000	0.000000	7.221166	283.177	NaN	0.000000	0.001573	0.001821	28.082	76.4586	0.001830	41777.1	2.176918	174.394	277.874	1.208511	0.075982	0.075633	283.177	41777.1	0.070898	0.167760	1687.99	93189.7
511	2.000000	1.211368	7.37006e+06	-51539.1	1005.82	-29752	0.000000	0.000000	7.224476	302.688	NaN	0.000000	0.001579	0.001796	28.0823	79.8698	0.001837	43475.4	5.215208	-9.060130	299.474	1.211103	0.078489	0.078224	302.688	43475.4	0.073267	0.177632	1704.02	94244.6
511	2.000000	1.213898	7.37006e+06	-51539.1	1005.82	-29752	0.000000	0.000000	7.227747	320.685	NaN	0.000000	0.001599	0.001798	28.0818	82.6906	0.001851	44667.4	6.542156	169.579	319.214	1.213590	0.081020	0.080712	320.685	44667.4	0.075635	0.187764	1707.92	94179.8
511	2.000000	1.216361	7.37006e+06	-51539.1	1005.82	-29752	0.000000	0.000000	7.231147	343.463	NaN	0.000000	0.001570	0.001814	28.0821	84.6028	0.001743	48529.1	7.699751	-11.946	338.93	1.215992	0.083483	0.083114	343.463	48529.1	0.078175	0.198922	1726.62	99410.9
511	2.000000	1.218826	7.37006e+06	-51539.1	1005.82	-29752	0.000000	0.000000	7.234260	359.231	NaN	0.000000	0.001593	0.001786	28.0817	86.6954	0.001812	47846.8	2.766002	173.331	354.596	1.218532	0.085948	0.085654	359.231	47846.8	0.080317	0.208568	1722.37	95719.8
511	2.000000	1.221372	7.37006e+06	-51539.1	1005.82	-29752	0.000000	0.000000	7.237330	371.989	NaN	0.000000	0.001562	0.001758	28.082	89.8547	0.001771	50729.8	3.989690	-8.754916	369.061	1.221117	0.088493	0.088239	371.989	50729.8	0.082994	0.220925	1683.78	98608.5
511	2.000000	1.223872	7.37006e+06	-51539.1	1005.82	-29752	0.000000	0.000000	7.240710	393.373	NaN	0.000000	0.001574	0.001792	28.0819	93.4487	0.001795	52049.6	6.026885	168.746	392.894	1.223615	0.090993	0.090736	393.373	52049.6	0.085325	0.231955	1695.9	98739
511	2.000000	1.226492	7.37006e+06	-51539.1	1005.82	-29752	0.000000	0.000000	7.244086	411.764	NaN	0.000000	0.001560	0.001760	28.0807	94.9962	0.001751	54237.7	5.050246	-10.2008	412.979	1.226108	0.093613	0.093229	411.764	54237.7	0.087919	0.244525	1683.94	100211
511	2.000000	1.228839	7.37006e+06	-51539.1	1005.82	-29752	0.000000	0.000000	7.247068	427.194	NaN	0.000000	0.001577	0.001751	28.0808	96.4655	0.001694	56942.6	0.722371	173.686	423.997	1.228585	0.095960	0.095706	427.194	56942.6	0.090334	0.256501	1665.47	102723
511	2.000000	1.231289	7.37006e+06	-51539.1	1005.82	-29752	0.000000	0.000000	7.250684	455.57	NaN	0.000000	0.001563	0.001743	28.0807	99.2799	0.001783	55673.5	3.696229	-8.806268	449.798	1.231025	0.098410	0.098146	455.57	55673.5	0.092273	0.266314	1710.65	98565.6
511	2.000000	1.233894	7.37006e+06	-51539.1	1005.82	-29752	0.000000	0.000000	7.254132	476.043	NaN	0.000000	0.001567	0.001761	28.0809	101.335	0.001679	60344.6	1.531722	172.754	475.405	1.233657	0.101016	0.100778	476.043	60344.6	0.095099	0.280922	1694.58	104020
511	2.000000	1.236322	7.37006e+06	-51539.1	1005.82	-29752	0.000000	0.000000	7.257466	498.073	NaN	0.000000	0.001548	0.001768	28.0809	103.639	0.001789	57939.4	4.553684	-9.860595	492.76	1.236010	0.103444	0.103131	498.073	57939.4	0.096996	0.290934	1711.98	98140.9