File: remote_trans/data/nanoindenter/0828-1/data/Data_2025-08-06,11h17m57s/2025-07-22_16-23-58_1_58.txt
2025-07-22, 16:23:58, 1
Index	Phase	Displacement	Time	Pos X	Pos Y	Pos Z	Rot A	Rot B	Piezo Z	Force A	Force B	Gripper	Voltage A	Voltage B	Temperature	Amplitude force	Amplitude pos	Stiffness	Phase shift	Phase excitation	Force A raw	Displacement raw	HMax	HMax raw	Real Force	Real Stiffness	Contact Depth	Area	Hardness	Reduced Mod.
[#]	[#]	[um]	[s]	[um]	[um]	[um]	[m°]	[m°]	[um]	[uN]	[uN]	[V]	[V]	[V]	[°C]	[uN]	[um]	[N/m]	[°]	[°]	[uN]	[um]	[um]	[um]	[uN]	[N/m]	[um]	[um^2]	[MPa]	[MPa]
58	1.000000	0.002554	7.36561e+06	-41539.1	955.82	-29786.5	0.000000	0.000000	6.002814	0.038616	NaN	0.000000	0.001673	0.001601	28.0903	0.075385	0.001033	73.0001	83.839	-163.045	0.015621	0.001277	-1.026123	-1.027400	0.038616	73.0001	-1.026520	-5.160254E+13	-7.483371E-16	NaN
58	1.000000	0.010505	7.36561e+06	-41539.1	955.819	-29786.5	0.000000	0.000000	6.010766	0.034928	NaN	0.000000	0.001574	0.001650	28.0904	0.046561	0.000907	51.327	90.8855	-166.029	-0.030974	0.009159	-1.018172	-1.019518	0.034928	51.327	-1.018682	-4.047792E+13	-8.628879E-16	NaN
58	1.000000	0.018495	7.36561e+06	-41539.1	955.818	-29786.5	0.000000	0.000000	6.018754	0.008418	NaN	0.000000	0.001597	0.001669	28.09	0.093803	0.001845	50.8484	-60.8457	-165.048	0.032084	0.017202	-1.010182	-1.011475	0.008418	50.8484	-1.010306	-3.122494E+13	-2.695789E-16	NaN
58	1.000000	0.026516	7.36561e+06	-41539.1	955.819	-29786.5	0.000000	0.000000	6.026773	-0.035704	NaN	0.000000	0.001613	0.001636	28.0909	0.076798	0.001857	41.3559	76.1142	-166.181	-0.008643	0.025179	-1.002161	-1.003498	-0.035704	41.3559	-1.001513	-2.377630E+13	1.501662E-15	NaN
58	1.000000	0.034508	7.36561e+06	-41539.1	955.818	-29786.5	0.000000	0.000000	6.034768	0.019029	NaN	0.000000	0.001618	0.001642	28.0862	0.023914	0.001888	12.6646	119.704	-163.641	-0.033009	0.033181	-0.994169	-0.995496	0.019029	12.6646	-0.995296	-1.960790E+13	-9.704640E-16	NaN
58	1.000000	0.042509	7.36561e+06	-41539.1	955.818	-29786.5	0.000000	0.000000	6.042769	0.023908	NaN	0.000000	0.001627	0.001625	28.0867	0.093188	0.001863	50.008	47.0836	-163.08	0.044624	0.041151	-0.986167	-0.987526	0.023908	50.008	-0.986526	-1.493903E+13	-1.600350E-15	NaN
58	1.000000	0.050513	7.36561e+06	-41539.1	955.817	-29786.5	0.000000	0.000000	6.050769	-0.076908	NaN	0.000000	0.001617	0.001637	28.0883	0.063976	0.001810	35.337	-90.1866	-167.516	-0.131155	0.049204	-0.978164	-0.979473	-0.076908	35.337	-0.976532	-1.095676E+13	7.019196E-15	NaN
58	1.000000	0.058529	7.36561e+06	-41539.1	955.819	-29786.5	0.000000	0.000000	6.058786	-0.048119	NaN	0.000000	0.001633	0.001655	28.0879	0.012992	0.002070	6.277179	-57.2239	-168.112	0.038181	0.057158	-0.970148	-0.971519	-0.048119	6.277179	-0.964398	-7.518999E+12	6.399715E-15	NaN
58	1.000000	0.066480	7.36561e+06	-41539.1	955.818	-29786.5	0.000000	0.000000	6.066736	-0.052371	NaN	0.000000	0.001633	0.001658	28.088	0.026911	0.002008	13.4024	114.701	-167.788	-0.062049	0.065198	-0.962197	-0.963479	-0.052371	13.4024	-0.959267	-6.411810E+12	8.167910E-15	NaN
58	1.000000	0.074515	7.36561e+06	-41539.1	955.82	-29786.5	0.000000	0.000000	6.074776	0.065242	NaN	0.000000	0.001625	0.001659	28.0887	0.121653	0.001983	61.3381	-0.038551	-165.39	0.007406	0.073214	-0.954162	-0.955463	0.065242	61.3381	-0.954960	-5.609401E+12	-1.163091E-14	NaN
58	1.000000	0.082514	7.36561e+06	-41539.1	955.818	-29786.5	0.000000	0.000000	6.082775	0.054972	NaN	0.000000	0.001622	0.001675	28.0887	0.055510	0.002018	27.514	-10.2285	-164.184	-0.041280	0.081206	-0.946163	-0.947471	0.054972	27.514	-0.947661	-4.471836E+12	-1.229288E-14	NaN
58	1.000000	0.090508	7.36561e+06	-41539.1	955.818	-29786.5	0.000000	0.000000	6.090769	0.040291	NaN	0.000000	0.001603	0.001644	28.0882	0.062083	0.001991	31.1872	34.1533	-165.932	0.044679	0.089196	-0.938169	-0.939480	0.040291	31.1872	-0.939138	-3.431641E+12	-1.174101E-14	NaN
58	1.000000	0.098533	7.36561e+06	-41539.1	955.818	-29786.5	0.000000	0.000000	6.098789	-0.075494	NaN	0.000000	0.001609	0.001653	28.0882	0.058038	0.002122	27.3567	156.501	-163.261	-0.054173	0.097195	-0.930144	-0.931482	-0.075494	27.3567	-0.928075	-2.433374E+12	3.102461E-14	NaN
58	1.000000	0.106478	7.36561e+06	-41539.1	955.819	-29786.5	0.000000	0.000000	6.106738	0.007477	NaN	0.000000	0.001590	0.001642	28.0888	0.080091	0.001960	40.8698	-107.068	-168.582	0.043328	0.105252	-0.922199	-0.923425	0.007477	40.8698	-0.922336	-2.035830E+12	-3.672943E-15	NaN
58	1.000000	0.114507	7.36561e+06	-41539.1	955.819	-29786.5	0.000000	0.000000	6.114768	0.041605	NaN	0.000000	0.001569	0.001689	28.0869	0.139115	0.002004	69.4356	100.59	-167.956	-0.064319	0.113215	-0.914170	-0.915462	0.041605	69.4356	-0.914619	-1.601571E+12	-2.597759E-14	NaN
58	1.000000	0.122523	7.36561e+06	-41539.1	955.818	-29786.5	0.000000	0.000000	6.122783	0.028522	NaN	0.000000	0.001603	0.001639	28.088	0.056003	0.001848	30.3074	41.1356	-160.892	0.009257	0.121195	-0.906154	-0.907482	0.028522	30.3074	-0.906859	-1.258172E+12	-2.266971E-14	NaN
58	1.000000	0.130534	7.36561e+06	-41539.1	955.818	-29786.5	0.000000	0.000000	6.130792	-0.030754	NaN	0.000000	0.001608	0.001619	28.0873	0.042225	0.001942	21.7395	124.946	-167.308	0.029365	0.129194	-0.898143	-0.899483	-0.030754	21.7395	-0.897082	-9.281763E+11	3.313412E-14	NaN
58	1.000000	0.138534	7.36561e+06	-41539.1	955.818	-29786.5	0.000000	0.000000	6.138792	-0.020753	NaN	0.000000	0.001637	0.001645	28.0888	0.074257	0.002043	36.3403	-161.679	-161.941	0.052113	0.137169	-0.890143	-0.891508	-0.020753	36.3403	-0.889715	-7.380067E+11	2.812029E-14	NaN
58	1.000000	0.146531	7.36561e+06	-41539.1	955.818	-29786.5	0.000000	0.000000	6.146789	-0.024600	NaN	0.000000	0.001611	0.001702	28.087	0.060598	0.001883	32.1868	-80.0138	-164.921	0.024460	0.145223	-0.882146	-0.883454	-0.024600	32.1868	-0.881573	-5.727690E+11	4.294961E-14	NaN
58	1.000000	0.154526	7.36561e+06	-41539.1	955.819	-29786.6	0.000000	0.000000	6.154786	0.021532	NaN	0.000000	0.001666	0.001626	28.0876	0.056857	0.001986	28.6253	-24.3387	-164.767	-0.022323	0.153262	-0.874151	-0.875415	0.021532	28.6253	-0.874715	-4.626243E+11	-4.654236E-14	NaN
58	1.000000	0.162543	7.36561e+06	-41539.1	955.819	-29786.6	0.000000	0.000000	6.162803	0.034853	NaN	0.000000	0.001622	0.001656	28.0893	0.061310	0.002038	30.0853	-102.759	-166.574	0.089807	0.161207	-0.866134	-0.867470	0.034853	30.0853	-0.867003	-3.638245E+11	-9.579514E-14	NaN
58	1.000000	0.170526	7.36561e+06	-41539.1	955.818	-29786.6	0.000000	0.000000	6.170785	-0.018602	NaN	0.000000	0.001636	0.001641	28.0893	0.089344	0.002058	43.4196	-55.7691	-166.315	-0.024218	0.169252	-0.858151	-0.859425	-0.018602	43.4196	-0.857829	-2.733616E+11	6.804952E-14	NaN
58	1.000000	0.178537	7.36561e+06	-41539.1	955.818	-29786.6	0.000000	0.000000	6.178795	-0.028444	NaN	0.000000	0.001615	0.001620	28.0898	0.176829	0.002132	82.9572	-170.243	-164.953	-0.050637	0.177227	-0.850140	-0.851449	-0.028444	82.9572	-0.849883	-2.133787E+11	1.333038E-13	NaN
58	1.000000	0.186523	7.36561e+06	-41539.1	955.817	-29786.6	0.000000	0.000000	6.186783	0.023722	NaN	0.000000	0.001614	0.001622	28.0896	0.073886	0.001888	39.1382	-55.2194	-165.416	0.107486	0.185268	-0.842154	-0.843409	0.023722	39.1382	-0.842609	-1.700721E+11	-1.394812E-13	NaN
58	1.000000	0.194537	7.36561e+06	-41539.1	955.819	-29786.6	0.000000	0.000000	6.194796	0.010416	NaN	0.000000	0.001642	0.001605	28.0885	0.050774	0.001906	26.6395	4.592050	-164.023	0.074509	0.193300	-0.834140	-0.835377	0.010416	26.6395	-0.834433	-1.317846E+11	-7.903612E-14	NaN
58	1.000000	0.202568	7.36561e+06	-41539.1	955.819	-29786.6	0.000000	0.000000	6.202829	0.056370	NaN	0.000000	0.001606	0.001627	28.0889	0.074386	0.001996	37.2693	83.8637	-164.034	0.058715	0.201238	-0.826109	-0.827439	0.056370	37.2693	-0.827243	-1.052968E+11	-5.353407E-13	NaN
58	1.000000	0.210575	7.36561e+06	-41539.1	955.819	-29786.6	0.000000	0.000000	6.210833	-0.010906	NaN	0.000000	0.001624	0.001642	28.0883	0.092136	0.002050	44.9415	-31.6778	-165.296	0.030593	0.209237	-0.818102	-0.819440	-0.010906	44.9415	-0.817920	-7.870570E+10	1.385699E-13	NaN
58	1.000000	0.218528	7.36561e+06	-41539.1	955.818	-29786.6	0.000000	0.000000	6.218788	0.018833	NaN	0.000000	0.001588	0.001655	28.0883	0.052416	0.002025	25.887	-121.927	-164.004	0.106919	0.217223	-0.810149	-0.811454	0.018833	25.887	-0.810695	-6.280546E+10	-2.998663E-13	NaN
58	1.000000	0.226580	7.36561e+06	-41539.1	955.819	-29786.6	0.000000	0.000000	6.226836	-0.068056	NaN	0.000000	0.001637	0.001604	28.087	0.060469	0.001964	30.7816	-85.5504	-161.599	-0.088274	0.225256	-0.802097	-0.803420	-0.068056	30.7816	-0.800439	-4.558516E+10	1.492950E-12	NaN
58	1.000000	0.234582	7.36561e+06	-41539.1	955.818	-29786.6	0.000000	0.000000	6.234838	-0.079325	NaN	0.000000	0.001606	0.001673	28.0876	0.100462	0.001957	51.3332	-28.0865	-166.798	-0.055178	0.233295	-0.794095	-0.795382	-0.079325	51.3332	-0.792936	-3.605426E+10	2.200163E-12	NaN
58	1.000000	0.242584	7.36561e+06	-41539.1	955.818	-29786.6	0.000000	0.000000	6.242843	0.001344	NaN	0.000000	0.001613	0.001650	28.0891	0.065193	0.001905	34.2273	104.578	-162.45	-0.102145	0.241297	-0.786093	-0.787380	0.001344	34.2273	-0.786123	-2.913507E+10	-4.612425E-14	NaN
58	1.000000	0.250579	7.36561e+06	-41539.1	955.818	-29786.6	0.000000	0.000000	6.250837	-0.026563	NaN	0.000000	0.001635	0.001624	28.0894	0.081330	0.002007	40.5245	35.4534	-166.401	-0.028182	0.249292	-0.778098	-0.779385	-0.026563	40.5245	-0.777607	-2.232054E+10	1.190079E-12	NaN
58	1.000000	0.258584	7.36561e+06	-41539.1	955.817	-29786.6	0.000000	0.000000	6.258841	-0.032399	NaN	0.000000	0.001639	0.001655	28.0899	0.039434	0.002164	18.224	-61.4071	-165.978	0.011315	0.257281	-0.770093	-0.771396	-0.032399	18.224	-0.768760	-1.692174E+10	1.914626E-12	NaN
58	1.000000	0.266566	7.36561e+06	-41539.1	955.819	-29786.6	0.000000	0.000000	6.266823	-0.050013	NaN	0.000000	0.001616	0.001685	28.0896	0.076617	0.002059	37.2193	-140.373	-162.723	-0.067440	0.265256	-0.762111	-0.763421	-0.050013	37.2193	-0.761103	-1.331404E+10	3.756380E-12	NaN
58	1.000000	0.274571	7.36561e+06	-41539.1	955.818	-29786.6	0.000000	0.000000	6.274830	0.006076	NaN	0.000000	0.001619	0.001683	28.0886	0.129015	0.001877	68.7279	-179.037	-167.365	-0.038249	0.273275	-0.754106	-0.755402	0.006076	68.7279	-0.754172	-1.071544E+10	-5.670644E-13	NaN
58	1.000000	0.282602	7.36561e+06	-41539.1	955.819	-29786.6	0.000000	0.000000	6.282860	-0.025014	NaN	0.000000	0.001639	0.001668	28.0887	0.039259	0.001960	20.0268	-151.151	-161.293	-0.047393	0.281282	-0.746075	-0.747395	-0.025014	20.0268	-0.745138	-8.072810E+9	3.098570E-12	NaN
58	1.000000	0.290604	7.36561e+06	-41539.1	955.818	-29786.6	0.000000	0.000000	6.290859	-0.110552	NaN	0.000000	0.001612	0.001682	28.0877	0.109307	0.002117	51.6365	123.783	-166.701	0.004353	0.289249	-0.738072	-0.739428	-0.110552	51.6365	-0.736467	-6.150718E+9	1.797376E-11	NaN
58	1.000000	0.298603	7.36561e+06	-41539.1	955.818	-29786.6	0.000000	0.000000	6.298864	0.036796	NaN	0.000000	0.001639	0.001627	28.0895	0.092530	0.002008	46.0712	-19.2121	-168.441	0.001302	0.297296	-0.730073	-0.731381	0.036796	46.0712	-0.730672	-5.128297E+9	-7.175005E-12	NaN
58	1.000000	0.306597	7.36561e+06	-41539.1	955.819	-29786.6	0.000000	0.000000	6.306852	-0.078037	NaN	0.000000	0.001601	0.001636	28.0867	0.075522	0.002160	34.9568	-49.929	-164.132	-0.056613	0.305306	-0.722080	-0.723371	-0.078037	34.9568	-0.720406	-3.715433E+9	2.100355E-11	NaN
58	1.000000	0.314596	7.36561e+06	-41539.1	955.818	-29786.6	0.000000	0.000000	6.314856	0.044317	NaN	0.000000	0.001584	0.001624	28.0884	0.051286	0.002038	25.1597	120.582	-163.794	-0.005514	0.313261	-0.714081	-0.715416	0.044317	25.1597	-0.715402	-3.175141E+9	-1.395764E-11	NaN
58	1.000000	0.322596	7.36561e+06	-41539.1	955.818	-29786.6	0.000000	0.000000	6.322852	-0.052702	NaN	0.000000	0.001624	0.001673	28.0881	0.034208	0.002034	16.822	45.6224	-166.637	0.062899	0.321326	-0.706081	-0.707351	-0.052702	16.822	-0.703732	-2.200319E+9	2.395219E-11	NaN
58	1.000000	0.330592	7.36561e+06	-41539.1	955.819	-29786.6	0.000000	0.000000	6.330852	0.036407	NaN	0.000000	0.001608	0.001668	28.0866	0.124198	0.001983	62.6208	-102.359	-166.791	0.000353	0.329309	-0.698085	-0.699368	0.036407	62.6208	-0.698521	-1.867804E+9	-1.949186E-11	NaN
58	1.000000	0.338614	7.36561e+06	-41539.1	955.819	-29786.6	0.000000	0.000000	6.338870	-0.092527	NaN	0.000000	0.001608	0.001662	28.0889	0.069460	0.001984	35.0135	106.187	-163.305	-0.008818	0.337323	-0.690063	-0.691354	-0.092527	35.0135	-0.688081	-1.344884E+9	6.879910E-11	NaN
58	1.000000	0.346634	7.36561e+06	-41539.1	955.819	-29786.6	0.000000	0.000000	6.346890	-0.073036	NaN	0.000000	0.001587	0.001650	28.0882	0.006615	0.002074	3.189577	83.9545	-167.032	-0.018997	0.345324	-0.682043	-0.683353	-0.073036	3.189577	-0.664869	-6.473718E+8	1.128185E-10	NaN
58	1.000000	0.354606	7.36561e+06	-41539.1	955.819	-29786.6	0.000000	0.000000	6.354865	0.015010	NaN	0.000000	0.001555	0.001693	28.086	0.043753	0.001895	23.0884	56.3006	-159.951	-0.080618	0.353295	-0.674071	-0.675382	0.015010	23.0884	-0.674559	-8.785702E+8	-1.708487E-11	NaN
58	1.000000	0.362644	7.36561e+06	-41539.1	955.818	-29786.6	0.000000	0.000000	6.362901	-0.059931	NaN	0.000000	0.001602	0.001662	28.0878	0.181823	0.001906	95.4197	155.704	-162.414	-0.115417	0.361344	-0.666033	-0.667333	-0.059931	95.4197	-0.665561	-6.616535E+8	9.057786E-11	NaN
58	1.000000	0.370646	7.36561e+06	-41539.1	955.818	-29786.6	0.000000	0.000000	6.370906	0.024087	NaN	0.000000	0.001600	0.001643	28.0869	0.056834	0.001992	28.5376	140.09	-165.869	-0.015478	0.369302	-0.658031	-0.659375	0.024087	28.5376	-0.658664	-5.323144E+8	-4.524903E-11	NaN
58	1.000000	0.378603	7.36561e+06	-41539.1	955.819	-29786.6	0.000000	0.000000	6.378863	0.014112	NaN	0.000000	0.001588	0.001695	28.0872	0.097064	0.002007	48.3638	-89.866	-163.227	-0.049278	0.377321	-0.650074	-0.651356	0.014112	48.3638	-0.650293	-4.087399E+8	-3.452504E-11	NaN
58	1.000000	0.386636	7.36561e+06	-41539.1	955.819	-29786.6	0.000000	0.000000	6.386894	-0.018697	NaN	0.000000	0.001583	0.001711	28.0869	0.093681	0.002017	46.4467	-11.0386	-165.146	-0.036858	0.385290	-0.642041	-0.643387	-0.018697	46.4467	-0.641739	-3.119976E+8	5.992664E-11	NaN
58	1.000000	0.394659	7.36561e+06	-41539.1	955.819	-29786.6	0.000000	0.000000	6.394918	0.015116	NaN	0.000000	0.001582	0.001703	28.0868	0.014978	0.002073	7.225073	154.946	-164.616	0.052676	0.393283	-0.634018	-0.635394	0.015116	7.225073	-0.635587	-2.568833E+8	-5.884490E-11	NaN
58	1.000000	0.402626	7.36561e+06	-41539.1	955.818	-29786.6	0.000000	0.000000	6.402883	-0.045907	NaN	0.000000	0.001567	0.001695	28.0873	0.037210	0.002029	18.3402	-18.4838	-164.11	-0.058993	0.401392	-0.626051	-0.627285	-0.045907	18.3402	-0.624174	-1.790565E+8	2.563839E-10	NaN
58	1.000000	0.410682	7.36561e+06	-41539.1	955.819	-29786.6	0.000000	0.000000	6.410941	-0.006153	NaN	0.000000	0.001579	0.001722	28.0873	0.137208	0.002133	64.3325	167.619	-166.39	0.018093	0.409339	-0.617995	-0.619338	-0.006153	64.3325	-0.617923	-1.469214E+8	4.187760E-11	NaN
58	1.000000	0.418632	7.36561e+06	-41539.1	955.818	-29786.6	0.000000	0.000000	6.418893	0.045632	NaN	0.000000	0.001560	0.001683	28.0882	0.084729	0.001961	43.2023	71.5266	-169.572	0.044734	0.417347	-0.610045	-0.611330	0.045632	43.2023	-0.610837	-1.173909E+8	-3.887183E-10	NaN
58	1.000000	0.426635	7.36561e+06	-41539.1	955.819	-29786.6	0.000000	0.000000	6.426895	0.032160	NaN	0.000000	0.001636	0.001645	28.0872	0.187641	0.001949	96.279	-134.017	-162.782	0.014526	0.425353	-0.602042	-0.603324	0.032160	96.279	-0.602293	-8.954337E+7	-3.591513E-10	NaN
58	1.000000	0.434642	7.36561e+06	-41539.1	955.819	-29786.6	0.000000	0.000000	6.434901	0.008727	NaN	0.000000	0.001640	0.001664	28.0862	0.071730	0.001865	38.4711	-34.0538	-165.842	-0.064657	0.433359	-0.594035	-0.595318	0.008727	38.4711	-0.594205	-6.928378E+7	-1.259576E-10	NaN
58	1.000000	0.442672	7.36561e+06	-41539.1	955.818	-29786.6	0.000000	0.000000	6.442929	-0.037587	NaN	0.000000	0.001649	0.001670	28.0873	0.045452	0.001974	23.0267	103.507	-164.809	-0.040561	0.441334	-0.586005	-0.587343	-0.037587	23.0267	-0.584781	-5.136779E+7	7.317304E-10	NaN
58	1.000000	0.450643	7.36561e+06	-41539.1	955.819	-29786.6	0.000000	0.000000	6.450900	-0.039954	NaN	0.000000	0.001659	0.001646	28.0882	0.032156	0.001918	16.7684	-173.288	-163.134	0.078402	0.449339	-0.578034	-0.579338	-0.039954	16.7684	-0.576247	-3.916645E+7	1.020098E-9	NaN
58	1.000000	0.458667	7.36561e+06	-41539.1	955.818	-29786.6	0.000000	0.000000	6.458929	0.081412	NaN	0.000000	0.001634	0.001646	28.0871	0.127183	0.002092	60.784	-79.6084	-165.586	0.089761	0.457350	-0.570010	-0.571327	0.081412	60.784	-0.571015	-3.316274E+7	-2.454936E-9	NaN
58	1.000000	0.466645	7.36561e+06	-41539.1	955.819	-29786.6	0.000000	0.000000	6.466904	0.009699	NaN	0.000000	0.001657	0.001639	28.087	0.027632	0.001948	14.1881	58.206	-164.274	0.027351	0.465333	-0.562032	-0.563344	0.009699	14.1881	-0.562545	-2.532666E+7	-3.829421E-10	NaN
58	1.000000	0.474647	7.36561e+06	-41539.1	955.819	-29786.6	0.000000	0.000000	6.474906	0.000212	NaN	0.000000	0.001644	0.001627	28.0895	0.040554	0.001847	21.9571	-96.0331	-162.45	-0.020586	0.473349	-0.554030	-0.555328	0.000212	21.9571	-0.554037	-1.931330E+7	-1.097038E-11	NaN
58	1.000000	0.482685	7.36561e+06	-41539.1	955.818	-29786.6	0.000000	0.000000	6.482945	0.027771	NaN	0.000000	0.001614	0.001612	28.0877	0.119085	0.001933	61.5934	-145.845	-160.841	0.052046	0.481371	-0.545992	-0.547306	0.027771	61.5934	-0.546330	-1.510490E+7	-1.838526E-9	NaN
58	1.000000	0.490653	7.36561e+06	-41539.1	955.818	-29786.6	0.000000	0.000000	6.490911	-0.013268	NaN	0.000000	0.001644	0.001659	28.0887	0.099995	0.002032	49.213	-28.1166	-166.897	-0.003474	0.489356	-0.538024	-0.539320	-0.013268	49.213	-0.537822	-1.151198E+7	1.152542E-9	NaN
58	1.000000	0.498673	7.36561e+06	-41539.1	955.819	-29786.6	0.000000	0.000000	6.498932	-0.004761	NaN	0.000000	0.001667	0.001626	28.0892	0.088461	0.002063	42.8695	110.582	-164.118	-0.018289	0.497383	-0.530004	-0.531294	-0.004761	42.8695	-0.529920	-8.94267e+06	5.324389E-10	NaN
58	1.000000	0.506698	7.36561e+06	-41539.1	955.818	-29786.6	0.000000	0.000000	6.506955	-0.060099	NaN	0.000000	0.001670	0.001624	28.0891	0.083322	0.002035	40.95	51.5606	-163.855	-0.037629	0.505368	-0.521979	-0.523309	-0.060099	40.95	-0.520878	-6.69589e+06	8.975516E-9	NaN
58	1.000000	0.514696	7.36561e+06	-41539.1	955.819	-29786.6	0.000000	0.000000	6.514958	0.074901	NaN	0.000000	0.001679	0.001655	28.0867	0.055060	0.002057	26.7634	143.342	-167.037	0.019683	0.513406	-0.513981	-0.515271	0.074901	26.7634	-0.516080	-5.74196e+06	-1.304442E-8	NaN
58	1.000000	0.522693	7.36561e+06	-41539.1	955.819	-29786.6	0.000000	0.000000	6.522955	0.058078	NaN	0.000000	0.001678	0.001597	28.0868	0.027074	0.001963	13.7928	79.2419	-165.567	0.066411	0.521386	-0.505984	-0.507291	0.058078	13.7928	-0.509142	-4.59686e+06	-1.263421E-8	NaN
58	1.000000	0.530694	7.36561e+06	-41539.1	955.817	-29786.6	0.000000	0.000000	6.530957	0.088222	NaN	0.000000	0.001600	0.001654	28.0877	0.035666	0.001935	18.4287	-120.084	-166.966	0.091512	0.529409	-0.497983	-0.499268	0.088222	18.4287	-0.501573	-3.60549e+06	-2.446867E-8	NaN
58	1.000000	0.538703	7.36561e+06	-41539.1	955.818	-29786.6	0.000000	0.000000	6.538961	-0.038563	NaN	0.000000	0.001588	0.001681	28.0876	0.068084	0.001869	36.4186	-10.1459	-164.041	0.005669	0.537341	-0.489974	-0.491336	-0.038563	36.4186	-0.489179	-2.42061e+06	1.593099E-8	NaN
58	1.000000	0.546719	7.36561e+06	-41539.1	955.819	-29786.6	0.000000	0.000000	6.546979	0.033795	NaN	0.000000	0.001634	0.001658	28.0877	0.117802	0.001839	64.0606	-136.755	-164.836	0.071927	0.545391	-0.481958	-0.483286	0.033795	64.0606	-0.482354	-1.94299e+06	-1.739352E-8	NaN
58	1.000000	0.554712	7.36561e+06	-41539.1	955.819	-29786.6	0.000000	0.000000	6.554974	0.075558	NaN	0.000000	0.001584	0.001660	28.0885	0.050729	0.002014	25.1935	150.956	-163.972	0.027714	0.553379	-0.473965	-0.475298	0.075558	25.1935	-0.476215	-1.5941e+06	-4.739813E-8	NaN
58	1.000000	0.562687	7.36561e+06	-41539.1	955.818	-29786.6	0.000000	0.000000	6.562949	0.071957	NaN	0.000000	0.001620	0.001626	28.0893	0.033520	0.002086	16.0703	-139.448	-165.304	0.007345	0.561405	-0.465990	-0.467272	0.071957	16.0703	-0.469348	-1.27722e+06	-5.633827E-8	NaN
58	1.000000	0.570746	7.36561e+06	-41539.1	955.819	-29786.6	0.000000	0.000000	6.571003	-0.035003	NaN	0.000000	0.001609	0.001651	28.0887	0.052998	0.001982	26.7362	31.8552	-166.87	-0.023506	0.569441	-0.457931	-0.459236	-0.035003	26.7362	-0.456949	-855334	4.092376E-8	NaN
58	1.000000	0.578711	7.36561e+06	-41539.1	955.818	-29786.6	0.000000	0.000000	6.578967	-0.061321	NaN	0.000000	0.001594	0.001643	28.0868	0.060322	0.001953	30.886	148.777	-163.115	-0.017955	0.577419	-0.449966	-0.451258	-0.061321	30.886	-0.448477	-649970	9.434440E-8	NaN
58	1.000000	0.586734	7.36561e+06	-41539.1	955.818	-29786.6	0.000000	0.000000	6.586992	-0.017288	NaN	0.000000	0.001605	0.001686	28.086	0.103620	0.001918	54.0324	-61.7449	-167.506	-0.074135	0.585404	-0.441943	-0.443273	-0.017288	54.0324	-0.441703	-521670	3.313914E-8	NaN
58	1.000000	0.594722	7.36561e+06	-41539.1	955.819	-29786.6	0.000000	0.000000	6.594982	0.018936	NaN	0.000000	0.001575	0.001665	28.0866	0.055973	0.001964	28.4925	-158.748	-161.361	0.054768	0.593399	-0.433955	-0.435278	0.018936	28.4925	-0.434453	-412126	-4.594728E-8	NaN
58	1.000000	0.602719	7.36561e+06	-41539.1	955.819	-29786.6	0.000000	0.000000	6.602978	0.005380	NaN	0.000000	0.001588	0.001637	28.0866	0.074362	0.001881	39.5388	-113.42	-162.882	0.027609	0.601420	-0.425958	-0.427257	0.005380	39.5388	-0.426060	-313546	-1.715857E-8	NaN
58	1.000000	0.610707	7.36561e+06	-41539.1	955.819	-29786.6	0.000000	0.000000	6.610968	0.033524	NaN	0.000000	0.001572	0.001656	28.0859	0.066013	0.001997	33.0595	92.2113	-164.352	0.108933	0.609418	-0.417970	-0.419258	0.033524	33.0595	-0.418730	-246832	-1.358165E-7	NaN
58	1.000000	0.618745	7.36561e+06	-41539.1	955.818	-29786.6	0.000000	0.000000	6.619006	0.049188	NaN	0.000000	0.001575	0.001661	28.0865	0.081222	0.002166	37.5036	161.638	-163.88	0.059881	0.617445	-0.409932	-0.411231	0.049188	37.5036	-0.410916	-191170	-2.572974E-7	NaN
58	1.000000	0.626711	7.36561e+06	-41539.1	955.818	-29786.6	0.000000	0.000000	6.626974	0.114577	NaN	0.000000	0.001586	0.001658	28.0854	0.068106	0.001976	34.4708	44.8863	-164.911	0.021633	0.625446	-0.401966	-0.403231	0.114577	34.4708	-0.404459	-154720	-7.405409E-7	NaN
58	1.000000	0.634736	7.36561e+06	-41539.1	955.818	-29786.6	0.000000	0.000000	6.634995	-0.019965	NaN	0.000000	0.001596	0.001689	28.0869	0.056073	0.002017	27.8034	120.469	-164.304	0.035932	0.633452	-0.393941	-0.395225	-0.019965	27.8034	-0.393402	-107598	1.855505E-7	NaN
58	1.000000	0.642753	7.36561e+06	-41539.1	955.818	-29786.6	0.000000	0.000000	6.643011	-0.034185	NaN	0.000000	0.001606	0.001691	28.086	0.035113	0.001906	18.4216	54.1302	-162.913	0.024741	0.641414	-0.385924	-0.387263	-0.034185	18.4216	-0.384532	-80330.8	4.255579E-7	NaN
58	1.000000	0.650745	7.36561e+06	-41539.1	955.818	-29786.6	0.000000	0.000000	6.651006	0.044708	NaN	0.000000	0.001574	0.001685	28.0868	0.098312	0.001933	50.8502	-66.1361	-165.11	-0.030004	0.649381	-0.377932	-0.379296	0.044708	50.8502	-0.378591	-66018	-6.772124E-7	NaN
58	1.000000	0.658738	7.36561e+06	-41539.1	955.818	-29786.6	0.000000	0.000000	6.658997	-0.005284	NaN	0.000000	0.001601	0.001654	28.0869	0.063278	0.002045	30.9416	56.8361	-168.922	-0.079521	0.657480	-0.369939	-0.371197	-0.005284	30.9416	-0.369811	-49363.5	1.070389E-7	NaN
58	1.000000	0.666749	7.36561e+06	-41539.1	955.818	-29786.6	0.000000	0.000000	6.667009	0.032135	NaN	0.000000	0.001595	0.001677	28.0869	0.178540	0.002056	86.8563	58.7399	-166.747	0.038220	0.665442	-0.361928	-0.363235	0.032135	86.8563	-0.362205	-38345	-8.380375E-7	NaN
58	1.000000	0.674754	7.36561e+06	-41539.1	955.819	-29786.6	0.000000	0.000000	6.675016	0.064235	NaN	0.000000	0.001577	0.001652	28.0863	0.068529	0.001816	37.7382	118.486	-164.855	-0.016682	0.673410	-0.353923	-0.355267	0.064235	37.7382	-0.355199	-30365.7	-2.115379E-6	NaN
58	1.000000	0.682766	7.36561e+06	-41539.1	955.819	-29786.6	0.000000	0.000000	6.683029	0.078653	NaN	0.000000	0.001558	0.001656	28.0855	0.038192	0.002168	17.6193	167.332	-163.354	0.045289	0.681421	-0.345910	-0.347256	0.078653	17.6193	-0.349258	-24902.2	-3.158490E-6	NaN
58	1.000000	0.690757	7.36561e+06	-41539.1	955.819	-29786.6	0.000000	0.000000	6.691015	-0.029596	NaN	0.000000	0.001557	0.001669	28.0852	0.088628	0.002006	44.1744	35.7264	-165.575	0.003341	0.689472	-0.337920	-0.339205	-0.029596	44.1744	-0.337417	-16745	1.767434E-6	NaN
58	1.000000	0.698782	7.36561e+06	-41539.1	955.818	-29786.6	0.000000	0.000000	6.699040	-0.026264	NaN	0.000000	0.001596	0.001667	28.0853	0.055547	0.002027	27.3991	90.4212	-162.726	-0.005287	0.697447	-0.329895	-0.331230	-0.026264	27.3991	-0.329176	-12687.6	2.070067E-6	NaN
58	1.000000	0.706750	7.36561e+06	-41539.1	955.819	-29786.6	0.000000	0.000000	6.707007	-0.041060	NaN	0.000000	0.001608	0.001693	28.0854	0.076860	0.002006	38.3203	-96.0059	-165.464	-0.057786	0.705512	-0.321927	-0.323165	-0.041060	38.3203	-0.321124	-9664.35	4.248594E-6	NaN
58	1.000000	0.714806	7.36561e+06	-41539.1	955.818	-29786.6	0.000000	0.000000	6.715064	-0.023671	NaN	0.000000	0.001614	0.001687	28.0883	0.050995	0.001943	26.2402	-104.13	-163.363	-0.002341	0.713418	-0.313871	-0.315259	-0.023671	26.2402	-0.313194	-7383.92	3.205763E-6	NaN
58	1.000000	0.722770	7.36561e+06	-41539.1	955.819	-29786.6	0.000000	0.000000	6.723028	-0.003445	NaN	0.000000	0.001616	0.001710	28.0886	0.018684	0.001899	9.838817	13.4682	-163.47	-0.032678	0.721488	-0.305907	-0.307189	-0.003445	9.838817	-0.305645	-5708.51	6.034047E-7	NaN
58	1.000000	0.730792	7.36561e+06	-41539.1	955.818	-29786.6	0.000000	0.000000	6.731049	-0.051393	NaN	0.000000	0.001594	0.001704	28.088	0.077990	0.002012	38.7633	4.323331	-163.784	0.014059	0.729497	-0.297885	-0.299180	-0.051393	38.7633	-0.296891	-4229.66	1.215064E-5	NaN
58	1.000000	0.738790	7.36561e+06	-41539.1	955.819	-29786.6	0.000000	0.000000	6.739049	-0.009520	NaN	0.000000	0.001606	0.001676	28.0884	0.166183	0.001985	83.7203	76.2314	-164.802	-0.018320	0.737474	-0.289887	-0.291203	-0.009520	83.7203	-0.289801	-3313.79	2.872933E-6	NaN
58	1.000000	0.746809	7.36561e+06	-41539.1	955.819	-29786.6	0.000000	0.000000	6.747069	0.015625	NaN	0.000000	0.001657	0.001678	28.0871	0.051367	0.002019	25.4364	69.0044	-165.457	0.059804	0.745502	-0.281868	-0.283175	0.015625	25.4364	-0.282328	-2558.98	-6.105956E-6	NaN
58	1.000000	0.754802	7.36561e+06	-41539.1	955.819	-29786.6	0.000000	0.000000	6.755059	-0.043212	NaN	0.000000	0.001610	0.001702	28.0865	0.101381	0.001882	53.8558	-17.0102	-165.719	-0.121823	0.753479	-0.273875	-0.275198	-0.043212	53.8558	-0.273274	-1867.41	2.313991E-5	NaN
58	1.000000	0.762807	7.36561e+06	-41539.1	955.818	-29786.6	0.000000	0.000000	6.763064	-0.036968	NaN	0.000000	0.001596	0.001665	28.0868	0.053440	0.002046	26.1142	31.4801	-164.302	0.020229	0.761490	-0.265870	-0.267187	-0.036968	26.1142	-0.264808	-1388.23	2.662922E-5	NaN
58	1.000000	0.770783	7.36561e+06	-41539.1	955.819	-29786.6	0.000000	0.000000	6.771041	-0.012958	NaN	0.000000	0.001642	0.001694	28.0855	0.058829	0.002253	26.1114	-34.8427	-164.627	-0.030495	0.769441	-0.257894	-0.259236	-0.012958	26.1114	-0.257522	-1073.73	1.206860E-5	NaN
58	1.000000	0.778780	7.36561e+06	-41539.1	955.818	-29786.6	0.000000	0.000000	6.779043	0.084329	NaN	0.000000	0.001619	0.001658	28.0864	0.122815	0.002028	60.5729	-95.8264	-162.819	0.002343	0.777479	-0.249896	-0.251198	0.084329	60.5729	-0.250941	-850.172	-9.919008E-5	NaN
58	1.000000	0.786806	7.36561e+06	-41539.1	955.818	-29786.6	0.000000	0.000000	6.787067	0.053865	NaN	0.000000	0.001625	0.001671	28.0877	0.120057	0.002001	59.9944	60.773	-163.071	-0.010443	0.785510	-0.241871	-0.243167	0.053865	59.9944	-0.242544	-629.849	-8.551988E-5	NaN
58	1.000000	0.794826	7.36561e+06	-41539.1	955.819	-29786.6	0.000000	0.000000	6.795084	-0.004356	NaN	0.000000	0.001609	0.001718	28.0877	0.049994	0.002008	24.8965	-76.1534	-165.685	-0.072183	0.793551	-0.233851	-0.235126	-0.004356	24.8965	-0.233720	-458.286	9.504021E-6	NaN
58	1.000000	0.802848	7.36561e+06	-41539.1	955.818	-29786.6	0.000000	0.000000	6.803107	0.019187	NaN	0.000000	0.001610	0.001674	28.0883	0.041215	0.001956	21.0696	97.5625	-164.286	0.043545	0.801484	-0.225829	-0.227193	0.019187	21.0696	-0.226512	-352.642	-5.440828E-5	NaN
58	1.000000	0.810803	7.36561e+06	-41539.1	955.819	-29786.6	0.000000	0.000000	6.811062	0.016658	NaN	0.000000	0.001627	0.001651	28.0881	0.048394	0.001951	24.8063	38.3451	-163.148	-0.071474	0.809521	-0.217874	-0.219156	0.016658	24.8063	-0.218378	-261.655	-6.366424E-5	NaN
58	1.000000	0.818806	7.36561e+06	-41539.1	955.818	-29786.6	0.000000	0.000000	6.819064	-0.030716	NaN	0.000000	0.001586	0.001654	28.0879	0.008761	0.001977	4.431188	-125.805	-160.319	-0.031690	0.817574	-0.209871	-0.211103	-0.030716	4.431188	-0.204672	-157.113	0.000196	NaN
58	1.000000	0.826795	7.36561e+06	-41539.1	955.819	-29786.6	0.000000	0.000000	6.827052	-0.046494	NaN	0.000000	0.001618	0.001685	28.0873	0.032715	0.002019	16.2004	137.49	-164.828	-0.020918	0.825482	-0.201882	-0.203195	-0.046494	16.2004	-0.199730	-130.394	0.000357	NaN
58	1.000000	0.834827	7.36561e+06	-41539.1	955.819	-29786.6	0.000000	0.000000	6.835084	-0.047244	NaN	0.000000	0.001535	0.001668	28.0867	0.079607	0.001821	43.7183	28.6877	-163.842	-0.005231	0.833485	-0.193850	-0.195192	-0.047244	43.7183	-0.193039	-101.08	0.000467	NaN
58	1.000000	0.842835	7.36561e+06	-41539.1	955.818	-29786.6	0.000000	0.000000	6.843095	0.007384	NaN	0.000000	0.001572	0.001680	28.0869	0.073838	0.002075	35.5787	11.0065	-163.226	0.082750	0.841550	-0.185842	-0.187127	0.007384	35.5787	-0.185997	-77.077	-9.579969E-5	NaN
58	1.000000	0.850822	7.36561e+06	-41539.1	955.818	-29786.6	0.000000	0.000000	6.851081	-0.009472	NaN	0.000000	0.001601	0.001651	28.0873	0.050612	0.002091	24.2072	-124.257	-165.295	-0.059076	0.849515	-0.177854	-0.179162	-0.009472	24.2072	-0.177561	-55.4463	0.000171	NaN
58	1.000000	0.858836	7.36561e+06	-41539.1	955.819	-29786.6	0.000000	0.000000	6.859094	-0.032600	NaN	0.000000	0.001637	0.001640	28.0855	0.067641	0.001933	34.9975	-155.415	-162.434	-0.038608	0.857542	-0.169841	-0.171135	-0.032600	34.9975	-0.169142	-39.6922	0.000821	NaN
58	1.000000	0.866846	7.36561e+06	-41539.1	955.818	-29786.6	0.000000	0.000000	6.867102	-0.074405	NaN	0.000000	0.001638	0.001672	28.086	0.049649	0.002106	23.5712	-125.003	-165.149	-0.091194	0.865539	-0.161831	-0.163138	-0.074405	23.5712	-0.159463	-26.8191	0.002774	NaN
58	1.000000	0.874857	7.36561e+06	-41539.1	955.82	-29786.6	0.000000	0.000000	6.875115	-0.018271	NaN	0.000000	0.001610	0.001664	28.0872	0.122730	0.002044	60.0457	-137.565	-165.55	-0.010990	0.873542	-0.153820	-0.155135	-0.018271	60.0457	-0.153592	-21.0475	0.000868	NaN
58	1.000000	0.882844	7.36561e+06	-41539.1	955.819	-29786.6	0.000000	0.000000	6.883098	-0.108288	NaN	0.000000	0.001612	0.001677	28.0869	0.073183	0.002165	33.805	-106.725	-164.047	-0.077162	0.881524	-0.145833	-0.147153	-0.108288	33.805	-0.143431	-13.7109	0.007898	NaN
58	1.000000	0.890843	7.36561e+06	-41539.1	955.819	-29786.6	0.000000	0.000000	6.891101	-0.037714	NaN	0.000000	0.001597	0.001696	28.0871	0.095238	0.001990	47.8601	-76.1426	-165.666	-0.031612	0.889528	-0.137834	-0.139149	-0.037714	47.8601	-0.137243	-10.4941	0.003594	NaN
58	1.000000	0.898830	7.36561e+06	-41539.1	955.818	-29786.6	0.000000	0.000000	6.899091	0.033934	NaN	0.000000	0.001611	0.001688	28.0863	0.031392	0.001959	16.0274	-10.0915	-166.813	-0.023347	0.897546	-0.129846	-0.131131	0.033934	16.0274	-0.131434	-8.124630	-0.004177	NaN
58	1.000000	0.906868	7.36561e+06	-41539.1	955.819	-29786.6	0.000000	0.000000	6.907129	0.045265	NaN	0.000000	0.001617	0.001684	28.0854	0.137293	0.001859	73.8654	-153.905	-169.325	0.014908	0.905526	-0.121809	-0.123151	0.045265	73.8654	-0.122268	-5.366028	-0.008436	NaN
58	1.000000	0.914825	7.36561e+06	-41539.1	955.818	-29786.6	0.000000	0.000000	6.915086	0.033663	NaN	0.000000	0.001589	0.001646	28.0849	0.064674	0.002019	32.0348	71.3404	-165.661	-0.053959	0.913539	-0.113852	-0.115138	0.033663	32.0348	-0.114640	-3.755540	-0.008964	NaN
58	1.000000	0.922843	7.36561e+06	-41539.1	955.819	-29786.6	0.000000	0.000000	6.923100	-0.041187	NaN	0.000000	0.001599	0.001657	28.0848	0.040022	0.001988	20.1318	-1.730723	-164.931	-0.033990	0.921586	-0.105834	-0.107091	-0.041187	20.1318	-0.104299	-2.269923	0.018145	NaN
58	1.000000	0.930861	7.36561e+06	-41539.1	955.818	-29786.6	0.000000	0.000000	6.931121	0.021240	NaN	0.000000	0.001569	0.001686	28.0841	0.043143	0.001910	22.5894	59.7857	-161.83	0.058232	0.929562	-0.097816	-0.099115	0.021240	22.5894	-0.098521	-1.693820	-0.012540	NaN
58	1.000000	0.938874	7.36561e+06	-41539.1	955.817	-29786.6	0.000000	0.000000	6.939136	0.056712	NaN	0.000000	0.001570	0.001654	28.0844	0.025410	0.001945	13.0617	81.2998	-162.09	0.127042	0.937564	-0.089802	-0.091113	0.056712	13.0617	-0.093059	-1.273322	-0.044539	NaN
58	1.000000	0.946874	7.36561e+06	-41539.1	955.818	-29786.6	0.000000	0.000000	6.947132	-0.008469	NaN	0.000000	0.001588	0.001651	28.085	0.091195	0.002155	42.3163	79.6514	-160.661	-0.020657	0.945581	-0.081803	-0.083096	-0.008469	42.3163	-0.081653	-0.680457	0.012446	NaN
58	1.000000	0.954872	7.36561e+06	-41539.1	955.818	-29786.6	0.000000	0.000000	6.955130	-0.016772	NaN	0.000000	0.001603	0.001674	28.0865	0.073879	0.002106	35.0843	47.6998	-164.438	0.028255	0.953521	-0.073805	-0.075156	-0.016772	35.0843	-0.073446	-0.420832	0.039855	NaN
58	1.000000	0.962882	7.36561e+06	-41539.1	955.819	-29786.6	0.000000	0.000000	6.963141	-0.000457	NaN	0.000000	0.001588	0.001690	28.087	0.061798	0.002015	30.6635	26.8663	-162.73	0.071229	0.961570	-0.065795	-0.067107	-0.000457	30.6635	-0.065784	-0.261973	0.001743	NaN
58	1.000000	0.970859	7.36561e+06	-41539.1	955.819	-29786.6	0.000000	0.000000	6.971120	0.051078	NaN	0.000000	0.001575	0.001716	28.0864	0.149330	0.002033	73.4673	139.781	-165.189	-0.003333	0.969527	-0.057818	-0.059150	0.051078	73.4673	-0.058339	-0.161290	-0.316686	NaN
58	1.000000	0.978898	7.36561e+06	-41539.1	955.82	-29786.6	0.000000	0.000000	6.979156	-0.017851	NaN	0.000000	0.001604	0.001713	28.0852	0.061758	0.001985	31.108	-52.9879	-163.107	0.004306	0.977546	-0.049779	-0.051131	-0.017851	31.108	-0.049348	-0.087199	0.204720	NaN
58	1.000000	0.986884	7.36561e+06	-41539.1	955.819	-29786.6	0.000000	0.000000	6.987145	0.044548	NaN	0.000000	0.001622	0.001711	28.0863	0.164763	0.002012	81.9042	-36.4687	-163.197	0.017348	0.985562	-0.041793	-0.043115	0.044548	81.9042	-0.042201	-0.052772	-0.844164	NaN
58	1.000000	0.994862	7.36561e+06	-41539.1	955.818	-29786.6	0.000000	0.000000	6.995121	0.008027	NaN	0.000000	0.001609	0.001694	28.0869	0.157843	0.002047	77.104	158.644	-168.649	-0.067741	0.993572	-0.033815	-0.035105	0.008027	77.104	-0.033893	-0.029720	-0.270090	NaN
58	1.000000	1.002877	7.36562e+06	-41539.1	955.819	-29786.6	0.000000	0.000000	7.003139	0.061867	NaN	0.000000	0.001617	0.001735	28.0858	0.036105	0.002039	17.7099	83.4361	-165.621	0.023595	1.001554	-0.025799	-0.027123	0.061867	17.7099	-0.028419	-0.020815	-2.972178	NaN
58	1.000000	1.010926	7.36562e+06	-41539.1	955.82	-29786.6	0.000000	0.000000	7.011185	-0.019736	NaN	0.000000	0.001594	0.001744	28.087	0.081888	0.001949	42.0085	-31.2927	-166.487	-0.048856	1.009622	-0.017750	-0.019055	-0.019736	42.0085	-0.017398	-0.010767	1.832982	NaN
58	1.000000	1.018900	7.36562e+06	-41539.1	955.82	-29786.6	0.000000	0.000000	7.019160	0.018003	NaN	0.000000	0.001591	0.001724	28.0878	0.056000	0.001934	28.9613	162.455	-159.913	0.012557	1.017604	-0.009777	-0.011073	0.018003	28.9613	-0.010243	-0.006526	-2.758534	NaN
58	1.000000	1.026901	7.36562e+06	-41539.1	955.819	-29786.6	0.000000	0.000000	7.027159	-0.018039	NaN	0.000000	0.001581	0.001721	28.0865	0.035165	0.002052	17.1387	82.9871	-163.291	-0.040172	1.025585	-0.001776	-0.003092	-0.018039	17.1387	-0.000987	-0.000724	24.9232	NaN
58	1.000000	1.034884	7.36562e+06	-41539.1	955.82	-29786.6	0.000000	0.000000	7.035330	4.547477	NaN	0.000000	0.001622	0.001707	28.0867	5.484459	0.001941	2825.38	14.5937	-171.812	3.222740	1.033541	0.006207	0.004864	4.547477	2825.38	0.005000	0.004134	1100.11	40149.8
58	2.000000	1.039497	7.36562e+06	-41539.1	955.82	-29786.6	0.000000	0.000000	7.040152	9.643337	NaN	0.000000	0.001600	0.001720	28.0874	9.748693	0.001740	5604.11	4.793887	-169.355	9.031407	1.039177	0.010820	0.010500	9.643337	5604.11	0.009529	0.008663	1113.19	55011.2
58	2.000000	1.041466	7.36562e+06	-41539.1	955.819	-29786.6	0.000000	0.000000	7.042245	12.6621	NaN	0.000000	0.001625	0.001714	28.0886	11.0911	0.001576	7038.44	4.437123	-169.071	12.5261	1.041153	0.012789	0.012476	12.6621	7038.44	0.011440	0.010826	1169.61	61804
58	2.000000	1.043460	7.36562e+06	-41539.1	955.82	-29786.6	0.000000	0.000000	7.044407	16.734	NaN	0.000000	0.001593	0.001712	28.0863	13.8212	0.001575	8772.95	6.991306	-175.249	16.8183	1.043147	0.014783	0.014470	16.734	8772.95	0.013353	0.013151	1272.44	69893.6
58	2.000000	1.045490	7.36562e+06	-41539.1	955.819	-29786.6	0.000000	0.000000	7.046566	19.8928	NaN	0.000000	0.001571	0.001745	28.0866	16.5993	0.001805	9195.3	12.5705	-178.773	21.059	1.045070	0.016813	0.016393	19.8928	9195.3	0.015190	0.015540	1280.1	67392.6
58	2.000000	1.047445	7.36562e+06	-41539.1	955.82	-29786.6	0.000000	0.000000	7.048667	23.4466	NaN	0.000000	0.001645	0.001721	28.0864	17.8808	0.001699	10521.9	3.702970	-173.094	23.988	1.047121	0.018768	0.018444	23.4466	10521.9	0.017097	0.018184	1289.42	71289.7
58	2.000000	1.049433	7.36562e+06	-41539.1	955.819	-29786.6	0.000000	0.000000	7.050864	28.5283	NaN	0.000000	0.001621	0.001738	28.086	21.2651	0.001815	11715.9	6.886964	-176.72	28.0717	1.049076	0.020756	0.020399	28.5283	11715.9	0.018930	0.020888	1365.77	74062.6
58	2.000000	1.051381	7.36562e+06	-41539.1	955.819	-29786.6	0.000000	0.000000	7.052933	31.4505	NaN	0.000000	0.001611	0.001706	28.0864	22.2011	0.001725	12868.9	3.606873	-174.521	30.2842	1.051133	0.022704	0.022456	31.4505	12868.9	0.020871	0.023930	1314.27	76005.4
58	2.000000	1.053426	7.36562e+06	-41539.1	955.819	-29786.6	0.000000	0.000000	7.055218	37.3119	NaN	0.000000	0.001635	0.001721	28.086	25.494	0.001802	14145.9	7.763030	179.581	37.3579	1.053119	0.024749	0.024442	37.3119	14145.9	0.022771	0.027085	1377.59	78531
58	2.000000	1.055414	7.36562e+06	-41539.1	955.82	-29786.6	0.000000	0.000000	7.057536	45.3179	NaN	0.000000	0.001599	0.001718	28.0871	27.5509	0.001769	15577	8.008126	179.001	44.5373	1.055076	0.026737	0.026399	45.3179	15577	0.024555	0.030212	1500.01	81878.5
58	2.000000	1.057378	7.36562e+06	-41539.1	955.819	-29786.6	0.000000	0.000000	7.059753	51.4871	NaN	0.000000	0.001608	0.001728	28.0869	29.1108	0.001683	17301.4	3.086949	-177.803	49.9957	1.057059	0.028701	0.028382	51.4871	17301.4	0.026469	0.033743	1525.87	86052.7
58	2.000000	1.059407	7.36562e+06	-41539.1	955.82	-29786.6	0.000000	0.000000	7.062139	60.1816	NaN	0.000000	0.001603	0.001731	28.0869	31.7165	0.001834	17290.1	4.687648	-177.958	60.2119	1.059040	0.030730	0.030363	60.1816	17290.1	0.028119	0.036936	1629.34	82194.9
58	2.000000	1.061343	7.36562e+06	-41539.1	955.82	-29786.6	0.000000	0.000000	7.064350	66.8664	NaN	0.000000	0.001625	0.001695	28.086	32.7688	0.001713	19133.4	3.392038	-177.402	66.1336	1.061031	0.032666	0.032354	66.8664	19133.4	0.030045	0.040837	1637.41	86504.9
58	2.000000	1.063374	7.36562e+06	-41539.1	955.82	-29786.6	0.000000	0.000000	7.066565	71.3392	NaN	0.000000	0.001620	0.001713	28.0862	35.2262	0.001761	20000.8	2.989723	-178.265	70.2215	1.063067	0.034697	0.034390	71.3392	20000.8	0.032022	0.045039	1583.93	86104.3
58	2.000000	1.065419	7.36562e+06	-41539.1	955.819	-29786.6	0.000000	0.000000	7.069004	80.9371	NaN	0.000000	0.001631	0.001751	28.0865	37.4707	0.001777	21081	3.162996	-178.249	79.8682	1.065099	0.036742	0.036422	80.9371	21081	0.033863	0.049131	1647.37	86893.5
58	2.000000	1.067415	7.36562e+06	-41539.1	955.819	-29786.6	0.000000	0.000000	7.071293	88.0664	NaN	0.000000	0.001600	0.001802	28.085	39.5682	0.001713	23101.6	6.853637	175.433	87.8017	1.067097	0.038738	0.038420	88.0664	23101.6	0.035879	0.053812	1636.55	90985.8
58	2.000000	1.069318	7.36562e+06	-41539.1	955.819	-29786.6	0.000000	0.000000	7.073561	96.9218	NaN	0.000000	0.001602	0.001718	28.0838	41.7933	0.001769	23625.4	3.600646	179.612	94.2661	1.069026	0.040641	0.040350	96.9218	23625.4	0.037565	0.057886	1674.36	89715.2
58	2.000000	1.071392	7.36562e+06	-41539.1	955.82	-29786.6	0.000000	0.000000	7.075870	102.659	NaN	0.000000	0.001644	0.001733	28.0855	42.5963	0.001757	24249	3.841683	179.76	104.449	1.071014	0.042715	0.042337	102.659	24249	0.039540	0.062844	1633.55	88376.4
58	2.000000	1.073397	7.36562e+06	-41539.1	955.82	-29786.6	0.000000	0.000000	7.078246	111.677	NaN	0.000000	0.001631	0.001701	28.0842	45.9196	0.001766	25995.3	5.759593	176.373	113.456	1.072993	0.044720	0.044316	111.677	25995.3	0.041498	0.067958	1643.32	91106
58	2.000000	1.075385	7.36562e+06	-41539.1	955.819	-29786.6	0.000000	0.000000	7.080568	119.826	NaN	0.000000	0.001625	0.001721	28.083	47.4521	0.001827	25967.3	6.914190	176.592	120.777	1.075014	0.046708	0.046337	119.826	25967.3	0.043247	0.072688	1648.5	87997.2
58	2.000000	1.077322	7.36562e+06	-41539.1	955.819	-29786.6	0.000000	0.000000	7.082912	129.708	NaN	0.000000	0.001607	0.001722	28.0855	49.1404	0.001835	26774.7	4.141638	178.034	128.09	1.077049	0.048645	0.048373	129.708	26774.7	0.045012	0.077621	1671.04	87802.8
58	2.000000	1.079317	7.36562e+06	-41539.1	955.82	-29786.6	0.000000	0.000000	7.085351	140.53	NaN	0.000000	0.001632	0.001717	28.0845	51.6907	0.001809	28571.7	9.080821	172.272	137.458	1.079032	0.050640	0.050355	140.53	28571.7	0.046951	0.083222	1688.62	90488.1
58	2.000000	1.081340	7.36562e+06	-41539.1	955.819	-29786.6	0.000000	0.000000	7.087705	148.581	NaN	0.000000	0.001621	0.001691	28.0853	52.5516	0.001743	30152.8	5.637747	175.722	150.28	1.081130	0.052663	0.052453	148.581	30152.8	0.048968	0.089249	1664.8	92214.7
58	2.000000	1.083361	7.36562e+06	-41539.1	955.819	-29786.6	0.000000	0.000000	7.090314	162.888	NaN	0.000000	0.001651	0.001681	28.0858	54.5004	0.001813	30068.8	5.056060	177.093	162.166	1.082997	0.054684	0.054320	162.888	30068.8	0.050621	0.094343	1726.56	89440.6
58	2.000000	1.085380	7.36562e+06	-41539.1	955.819	-29786.6	0.000000	0.000000	7.092674	171.18	NaN	0.000000	0.001634	0.001755	28.0837	57.0848	0.001880	30366.1	4.403315	176.549	169.745	1.085106	0.056703	0.056429	171.18	30366.1	0.052475	0.100218	1708.08	87637.5
58	2.000000	1.087298	7.36562e+06	-41539.1	955.82	-29786.6	0.000000	0.000000	7.094932	179.45	NaN	0.000000	0.001645	0.001759	28.0839	58.324	0.001858	31396.8	5.797817	174.65	177.577	1.087100	0.058621	0.058423	179.45	31396.8	0.054335	0.106281	1688.45	87989.5
58	2.000000	1.089346	7.36562e+06	-41539.1	955.82	-29786.6	0.000000	0.000000	7.097453	190.974	NaN	0.000000	0.001629	0.001709	28.0828	60.8237	0.001844	32982	4.282378	176.389	190.834	1.089045	0.060669	0.060368	190.974	32982	0.056326	0.112964	1690.57	89656.2
58	2.000000	1.091330	7.36562e+06	-41539.1	955.819	-29786.6	0.000000	0.000000	7.099841	200.787	NaN	0.000000	0.001603	0.001723	28.085	62.8895	0.001809	34769.9	9.984343	169.742	201.297	1.091082	0.062653	0.062405	200.787	34769.9	0.058322	0.119860	1675.17	91757
58	2.000000	1.093300	7.36562e+06	-41539.1	955.819	-29786.6	0.000000	0.000000	7.102624	220.591	NaN	0.000000	0.001634	0.001707	28.0849	62.8361	0.001741	36097.2	2.303226	178.119	217.604	1.092984	0.064623	0.064307	220.591	36097.2	0.060039	0.125949	1751.43	92928.4
58	2.000000	1.095369	7.36562e+06	-41539.1	955.818	-29786.6	0.000000	0.000000	7.105190	232.649	NaN	0.000000	0.001615	0.001665	28.0859	65.4996	0.001724	37996.4	5.498264	174.471	232.536	1.094974	0.066692	0.066297	232.649	37996.4	0.062100	0.133447	1743.38	95030
58	2.000000	1.097292	7.36562e+06	-41539.1	955.819	-29786.6	0.000000	0.000000	7.107699	246.923	NaN	0.000000	0.001627	0.001693	28.0868	67.138	0.001747	38428.7	2.749918	176.558	244.032	1.097015	0.068615	0.068338	246.923	38428.7	0.063796	0.139773	1766.61	93911.4
58	2.000000	1.099319	7.36562e+06	-41539.1	955.819	-29786.6	0.000000	0.000000	7.110135	256.862	NaN	0.000000	0.001622	0.001726	28.0865	69.6921	0.001685	41366.4	3.027612	175.575	255.975	1.099030	0.070642	0.070353	256.862	41366.4	0.065985	0.148141	1733.9	98193.5
58	2.000000	1.101283	7.36562e+06	-41539.1	955.819	-29786.6	0.000000	0.000000	7.112457	265.584	NaN	0.000000	0.001621	0.001720	28.0864	70.929	0.001787	39688	6.120640	172.441	260.809	1.101017	0.072606	0.072340	265.584	39688	0.067588	0.154413	1719.96	92276.4
58	2.000000	1.103336	7.36562e+06	-41539.1	955.82	-29786.6	0.000000	0.000000	7.115144	281.016	NaN	0.000000	0.001576	0.001718	28.0863	73.1705	0.001879	38947.3	6.938543	173.206	281.302	1.102893	0.074659	0.074216	281.016	38947.3	0.069248	0.161042	1744.99	88671
58	2.000000	1.105338	7.36562e+06	-41539.1	955.818	-29786.6	0.000000	0.000000	7.117768	296.163	NaN	0.000000	0.001584	0.001665	28.0852	74.4955	0.001671	44572.5	3.562325	174.712	295.612	1.105013	0.076661	0.076336	296.163	44572.5	0.071678	0.170979	1732.16	98484.8
58	2.000000	1.107227	7.36562e+06	-41539.1	955.818	-29786.6	0.000000	0.000000	7.120353	313.077	NaN	0.000000	0.001559	0.001691	28.085	76.3337	0.001762	43323.5	6.014376	172.291	308.322	1.106876	0.078550	0.078199	313.077	43323.5	0.073131	0.177056	1768.24	94068.1
58	2.000000	1.109301	7.36562e+06	-41539.1	955.818	-29786.6	0.000000	0.000000	7.123019	327.479	NaN	0.000000	0.001586	0.001667	28.0864	79.205	0.001731	45764.8	2.964049	174.986	325.586	1.108993	0.080624	0.080316	327.479	45764.8	0.075257	0.186130	1759.41	96916.3
58	2.000000	1.111225	7.36562e+06	-41539.1	955.82	-29786.6	0.000000	0.000000	7.125437	339.507	NaN	0.000000	0.001620	0.001732	28.0849	79.8799	0.001660	48130.3	2.953201	174.223	334.245	1.110941	0.082548	0.082264	339.507	48130.3	0.077258	0.194857	1742.34	99616.9
58	2.000000	1.113249	7.36562e+06	-41539.1	955.819	-29786.6	0.000000	0.000000	7.128095	354.942	NaN	0.000000	0.001578	0.001734	28.0853	83.8949	0.001815	46226.5	4.761566	173.303	349.469	1.112784	0.084572	0.084107	354.942	46226.5	0.078813	0.201775	1759.09	94022.2
58	2.000000	1.115295	7.36562e+06	-41539.1	955.819	-29786.6	0.000000	0.000000	7.130641	367.107	NaN	0.000000	0.001554	0.001755	28.0864	85.882	0.001790	47978.5	3.225876	174.485	363.662	1.115071	0.086618	0.086394	367.107	47978.5	0.080879	0.211136	1738.72	95398
58	2.000000	1.117336	7.36562e+06	-41539.1	955.818	-29786.6	0.000000	0.000000	7.133399	384.528	NaN	0.000000	0.001588	0.001702	28.0861	87.7954	0.001808	48571.9	8.145978	169.275	383.731	1.116931	0.088659	0.088254	384.528	48571.9	0.082722	0.219655	1750.6	94686.5
58	2.000000	1.119244	7.36562e+06	-41539.1	955.819	-29786.6	0.000000	0.000000	7.135912	399.255	NaN	0.000000	0.001602	0.001758	28.0866	89.7933	0.001865	48141.1	5.489240	172.372	397.324	1.118996	0.090568	0.090319	399.255	48141.1	0.084347	0.227299	1756.52	92255.1
58	2.000000	1.121218	7.36562e+06	-41539.1	955.819	-29786.6	0.000000	0.000000	7.138668	418.307	NaN	0.000000	0.001580	0.001786	28.0875	90.0817	0.001859	48453.1	4.416622	173.453	412.609	1.120930	0.092541	0.092253	418.307	48453.1	0.086066	0.235512	1776.16	91219.7
58	2.000000	1.123266	7.36562e+06	-41539.1	955.818	-29786.6	0.000000	0.000000	7.141093	427.458	NaN	0.000000	0.001594	0.001775	28.0859	94.485	0.001754	53871.1	7.227621	169.794	425.682	1.122898	0.094590	0.094221	427.458	53871.1	0.088638	0.248063	1723.18	98820.6
58	2.000000	1.125334	7.36562e+06	-41539.1	955.818	-29786.6	0.000000	0.000000	7.144103	450.387	NaN	0.000000	0.001601	0.001779	28.0853	94.6145	0.001766	53577.7	1.545321	175.933	448.565	1.124983	0.096657	0.096307	450.387	53577.7	0.090353	0.256596	1755.24	96634.6
58	2.000000	1.127213	7.36562e+06	-41539.1	955.818	-29786.6	0.000000	0.000000	7.146631	466.178	NaN	0.000000	0.001596	0.001775	28.085	96.9566	0.001789	54203.2	2.851989	174.004	460.627	1.126965	0.098536	0.098288	466.178	54203.2	0.092086	0.265360	1756.78	96134.8
58	2.000000	1.129362	7.36562e+06	-41539.1	955.819	-29786.6	0.000000	0.000000	7.149428	481.943	NaN	0.000000	0.001603	0.001754	28.0839	99.9998	0.001852	53982.6	5.505578	171.07	483.689	1.129004	0.100685	0.100327	481.943	53982.6	0.093990	0.275144	1751.6	94025.9
58	2.000000	1.131424	7.36562e+06	-41539.1	955.819	-29786.6	0.000000	0.000000	7.152019	494.829	NaN	0.000000	0.001600	0.001738	28.0846	100.906	0.001743	57902.6	7.939202	168.418	502.99	1.131043	0.102747	0.102366	494.829	57902.6	0.096338	0.287440	1721.51	98672.9
58	2.000000	1.133179	7.36562e+06	-41539.1	955.819	-29786.6	0.000000	0.000000	7.154937	523.13	NaN	0.000000	0.001608	0.001745	28.0842	102.401	0.001708	59954.8	6.342237	169.898	516.682	1.132910	0.104502	0.104233	523.13	59954.8	0.097958	0.296069	1766.92	100670
58	2.000000	1.135256	7.36562e+06	-41539.1	955.818	-29786.6	0.000000	0.000000	7.157688	539.516	NaN	0.000000	0.001603	0.001747	28.0837	104.754	0.001793	58426.1	5.732706	171.354	535.993	1.134860	0.106579	0.106183	539.516	58426.1	0.099654	0.305233	1767.56	96619.4
58	2.000000	1.136827	7.36562e+06	-41539.1	955.819	-29786.6	0.000000	0.000000	7.159403	543.024	NaN	0.000000	0.001561	0.001746	28.0839	105.734	0.001784	59272.8	3.474630	-7.724000	543.215	1.136552	0.108150	0.107875	543.024	59272.8	0.101279	0.314137	1728.62	96620.5