File: remote_trans/data/nanoindenter/0828-1/data/Data_2025-08-06,11h17m57s/2025-07-22_16-23-58_1_746.txt
2025-07-22, 16:23:58, 1
Index	Phase	Displacement	Time	Pos X	Pos Y	Pos Z	Rot A	Rot B	Piezo Z	Force A	Force B	Gripper	Voltage A	Voltage B	Temperature	Amplitude force	Amplitude pos	Stiffness	Phase shift	Phase excitation	Force A raw	Displacement raw	HMax	HMax raw	Real Force	Real Stiffness	Contact Depth	Area	Hardness	Reduced Mod.
[#]	[#]	[um]	[s]	[um]	[um]	[um]	[m°]	[m°]	[um]	[uN]	[uN]	[V]	[V]	[V]	[°C]	[uN]	[um]	[N/m]	[°]	[°]	[uN]	[um]	[um]	[um]	[uN]	[N/m]	[um]	[um^2]	[MPa]	[MPa]
746	1.000000	0.002357	7.37235e+06	-39789.1	1005.82	-29792.5	0.000000	0.000000	6.002817	0.009548	NaN	0.000000	0.001610	0.001751	28.0843	0.058945	0.001042	56.5554	99.1187	-160.251	0.000897	0.001049	-1.092011	-1.093319	0.009548	56.5554	-1.092137	-3.931059E+14	-2.428877E-17	NaN
746	1.000000	0.012398	7.37235e+06	-39789.1	1005.82	-29792.5	0.000000	0.000000	6.012856	-0.036826	NaN	0.000000	0.001597	0.001729	28.0842	0.051630	0.001277	40.4432	-34.9952	18.7373	-0.027463	0.010953	-1.081970	-1.083415	-0.036826	40.4432	-1.081287	-2.810675E+14	1.310201E-16	NaN
746	1.000000	0.022319	7.37235e+06	-39789.1	1005.82	-29792.5	0.000000	0.000000	6.022778	-0.025690	NaN	0.000000	0.001598	0.001744	28.0842	0.022843	0.001624	14.0649	132.802	-164.71	0.062045	0.020963	-1.072049	-1.073405	-0.025690	14.0649	-1.070679	-2.024459E+14	1.268965E-16	NaN
746	1.000000	0.032293	7.37235e+06	-39789.1	1005.82	-29792.5	0.000000	0.000000	6.032753	0.008364	NaN	0.000000	0.001568	0.001750	28.0855	0.052495	0.001905	27.563	-14.9372	17.9097	0.024912	0.030911	-1.062074	-1.063457	0.008364	27.563	-1.062302	-1.562273E+14	-5.353525E-17	NaN
746	1.000000	0.042302	7.37235e+06	-39789.1	1005.82	-29792.5	0.000000	0.000000	6.042761	-0.022189	NaN	0.000000	0.001585	0.001731	28.0844	0.093663	0.001880	49.8308	84.6143	-166.694	0.018415	0.040964	-1.052065	-1.053403	-0.022189	49.8308	-1.051731	-1.126390E+14	1.969905E-16	NaN
746	1.000000	0.052276	7.37235e+06	-39789.1	1005.82	-29792.5	0.000000	0.000000	6.052735	-0.015447	NaN	0.000000	0.001577	0.001756	28.0842	0.104928	0.001969	53.2954	174.062	18.7022	-0.023614	0.050940	-1.042092	-1.043428	-0.015447	53.2954	-1.041874	-8.301781E+13	1.860637E-16	NaN
746	1.000000	0.062269	7.37235e+06	-39789.1	1005.82	-29792.5	0.000000	0.000000	6.062724	-0.110114	NaN	0.000000	0.001588	0.001733	28.0844	0.076235	0.002049	37.2128	-146.756	-163.972	-0.008333	0.060989	-1.032099	-1.033379	-0.110114	37.2128	-1.029880	-5.726209E+13	1.922981E-15	NaN
746	1.000000	0.072309	7.37235e+06	-39789.1	1005.82	-29792.5	0.000000	0.000000	6.072768	-0.007684	NaN	0.000000	0.001599	0.001711	28.0829	0.028485	0.001910	14.9163	-23.7876	13.7351	0.040912	0.070920	-1.022059	-1.023448	-0.007684	14.9163	-1.021673	-4.440797E+13	1.730244E-16	NaN
746	1.000000	0.082291	7.37235e+06	-39789.1	1005.82	-29792.5	0.000000	0.000000	6.082750	-0.010099	NaN	0.000000	0.001612	0.001752	28.0833	0.052525	0.002106	24.943	63.9382	-165.697	0.052060	0.080949	-1.012077	-1.013419	-0.010099	24.943	-1.011773	-3.267714E+13	3.090674E-16	NaN
746	1.000000	0.092296	7.37235e+06	-39789.1	1005.82	-29792.5	0.000000	0.000000	6.092757	0.022142	NaN	0.000000	0.001615	0.001745	28.083	0.048825	0.001987	24.5683	9.554550	12.5028	-0.035116	0.090931	-1.002072	-1.003437	0.022142	24.5683	-1.002748	-2.470365E+13	-8.962970E-16	NaN
746	1.000000	0.102283	7.37235e+06	-39789.1	1005.82	-29792.5	0.000000	0.000000	6.102741	-0.040055	NaN	0.000000	0.001617	0.001755	28.083	0.008663	0.001860	4.656941	146.217	-163.239	-0.043069	0.100988	-0.992085	-0.993380	-0.040055	4.656941	-0.985634	-1.453123E+13	2.756477E-15	NaN
746	1.000000	0.112314	7.37235e+06	-39789.1	1005.82	-29792.5	0.000000	0.000000	6.112772	-0.050930	NaN	0.000000	0.001560	0.001747	28.0831	0.111357	0.001958	56.8606	-23.9906	14.8516	-0.044272	0.110939	-0.982054	-0.983429	-0.050930	56.8606	-0.981382	-1.273583E+13	3.998920E-15	NaN
746	1.000000	0.122312	7.37235e+06	-39789.1	1005.82	-29792.5	0.000000	0.000000	6.122768	-0.084983	NaN	0.000000	0.001585	0.001733	28.0829	0.071499	0.001930	37.0549	124.841	-163.611	-0.131742	0.120995	-0.972056	-0.973373	-0.084983	37.0549	-0.970336	-9.040464E+12	9.400252E-15	NaN
746	1.000000	0.132321	7.37235e+06	-39789.1	1005.82	-29792.5	0.000000	0.000000	6.132776	-0.100033	NaN	0.000000	0.001608	0.001740	28.0827	0.002334	0.001887	1.236707	112.69	18.5205	-0.015291	0.130985	-0.962047	-0.963383	-0.100033	1.236707	-0.901383	-1.061077E+12	9.427461E-14	NaN
746	1.000000	0.142318	7.37235e+06	-39789.1	1005.82	-29792.5	0.000000	0.000000	6.142778	0.005769	NaN	0.000000	0.001572	0.001743	28.0829	0.067738	0.001849	36.6323	-166.386	-163.655	-0.009558	0.140974	-0.952050	-0.953394	0.005769	36.6323	-0.952168	-5.143539E+12	-1.121666E-15	NaN
746	1.000000	0.152330	7.37235e+06	-39789.1	1005.82	-29792.5	0.000000	0.000000	6.152789	-0.015630	NaN	0.000000	0.001591	0.001740	28.083	0.110391	0.002107	52.3821	168.81	16.2973	-0.047213	0.151031	-0.942038	-0.943337	-0.015630	52.3821	-0.941814	-3.729200E+12	4.191378E-15	NaN
746	1.000000	0.162332	7.37235e+06	-39789.1	1005.82	-29792.5	0.000000	0.000000	6.162791	-0.013760	NaN	0.000000	0.001592	0.001724	28.0831	0.061256	0.001944	31.5147	-82.5842	-160.42	0.112694	0.161049	-0.932036	-0.933319	-0.013760	31.5147	-0.931709	-2.724314E+12	5.050948E-15	NaN
746	1.000000	0.172343	7.37235e+06	-39789.1	1005.82	-29792.5	0.000000	0.000000	6.172805	0.046015	NaN	0.000000	0.001580	0.001729	28.0827	0.108604	0.001876	57.8894	12.7908	14.3383	0.102829	0.171049	-0.922025	-0.923318	0.046015	57.8894	-0.922621	-2.053942E+12	-2.240320E-14	NaN
746	1.000000	0.182348	7.37235e+06	-39789.1	1005.82	-29792.5	0.000000	0.000000	6.182805	-0.075668	NaN	0.000000	0.001559	0.001718	28.083	0.070434	0.001966	35.827	-37.1864	-164.331	-0.014726	0.181087	-0.912020	-0.913281	-0.075668	35.827	-0.910436	-1.406196E+12	5.381034E-14	NaN
746	1.000000	0.192366	7.37235e+06	-39789.1	1005.82	-29792.5	0.000000	0.000000	6.192825	-0.025784	NaN	0.000000	0.001560	0.001748	28.083	0.128636	0.002090	61.5478	-155.55	16.5815	-0.017405	0.190964	-0.902002	-0.903404	-0.025784	61.5478	-0.901688	-1.071193E+12	2.407034E-14	NaN
746	1.000000	0.202367	7.37235e+06	-39789.1	1005.82	-29792.5	0.000000	0.000000	6.202825	-0.035495	NaN	0.000000	0.001600	0.001754	28.0835	0.034070	0.001964	17.3513	-70.6326	-163.475	-0.030781	0.201043	-0.892001	-0.893325	-0.035495	17.3513	-0.890467	-7.554831E+11	4.698383E-14	NaN
746	1.000000	0.212363	7.37235e+06	-39789.1	1005.82	-29792.5	0.000000	0.000000	6.212821	-0.036973	NaN	0.000000	0.001559	0.001710	28.0841	0.015341	0.001945	7.887602	-25.8376	16.0479	0.061106	0.211027	-0.882005	-0.883340	-0.036973	7.887602	-0.878490	-5.203322E+11	7.105668E-14	NaN
746	1.000000	0.222372	7.37235e+06	-39789.1	1005.82	-29792.5	0.000000	0.000000	6.222831	-0.033032	NaN	0.000000	0.001605	0.001733	28.0842	0.105714	0.001980	53.3988	-13.799	-164.203	-0.010042	0.221053	-0.871995	-0.873314	-0.033032	53.3988	-0.871532	-4.189514E+11	7.884501E-14	NaN
746	1.000000	0.232392	7.37235e+06	-39789.1	1005.82	-29792.5	0.000000	0.000000	6.232849	-0.043282	NaN	0.000000	0.001616	0.001738	28.084	0.103040	0.001961	52.5531	76.2195	16.7622	-0.030513	0.230989	-0.861976	-0.863379	-0.043282	52.5531	-0.861359	-3.051474E+11	1.418401E-13	NaN
746	1.000000	0.242388	7.37235e+06	-39789.1	1005.82	-29792.5	0.000000	0.000000	6.242845	-0.058384	NaN	0.000000	0.001634	0.001751	28.084	0.082545	0.002014	40.984	17.3891	-161.567	-0.012281	0.241058	-0.851980	-0.853310	-0.058384	40.984	-0.850912	-2.203352E+11	2.649784E-13	NaN
746	1.000000	0.252377	7.37235e+06	-39789.1	1005.82	-29792.5	0.000000	0.000000	6.252834	-0.060074	NaN	0.000000	0.001593	0.001737	28.0835	0.104463	0.001958	53.3477	132.77	11.8396	-0.089303	0.251009	-0.841991	-0.843359	-0.060074	53.3477	-0.841146	-1.624876E+11	3.697115E-13	NaN
746	1.000000	0.262359	7.37235e+06	-39789.1	1005.82	-29792.5	0.000000	0.000000	6.262821	0.055169	NaN	0.000000	0.001545	0.001736	28.0838	0.135021	0.002149	62.8212	-112.257	-165.428	0.066407	0.261045	-0.832009	-0.833323	0.055169	62.8212	-0.832668	-1.247211E+11	-4.423415E-13	NaN
746	1.000000	0.272417	7.37235e+06	-39789.1	1005.82	-29792.5	0.000000	0.000000	6.272877	-0.005546	NaN	0.000000	0.001562	0.001697	28.0836	0.061160	0.002023	30.2398	-55.3939	18.5719	0.054752	0.271034	-0.821950	-0.823334	-0.005546	30.2398	-0.821813	-8.887792E+10	6.240485E-14	NaN
746	1.000000	0.282387	7.37235e+06	-39789.1	1005.82	-29792.5	0.000000	0.000000	6.282847	0.016996	NaN	0.000000	0.001567	0.001724	28.0837	0.023941	0.001920	12.4697	163.566	-164.329	-0.020604	0.281097	-0.811981	-0.813271	0.016996	12.4697	-0.813003	-6.750165E+10	-2.517830E-13	NaN
746	1.000000	0.292393	7.37235e+06	-39789.1	1005.82	-29792.5	0.000000	0.000000	6.292852	-0.010284	NaN	0.000000	0.001602	0.001738	28.0838	0.063103	0.001907	33.0979	-2.298402	16.6912	-0.046528	0.291009	-0.801975	-0.803359	-0.010284	33.0979	-0.801742	-4.747918E+10	2.165982E-13	NaN
746	1.000000	0.302418	7.37235e+06	-39789.1	1005.82	-29792.5	0.000000	0.000000	6.302876	-0.036314	NaN	0.000000	0.001604	0.001719	28.0839	0.057483	0.002062	27.8734	-2.931189	-163.702	-0.046514	0.301096	-0.791950	-0.793272	-0.036314	27.8734	-0.790973	-3.390774E+10	1.070969E-12	NaN
746	1.000000	0.312407	7.37235e+06	-39789.1	1005.82	-29792.5	0.000000	0.000000	6.312868	0.032885	NaN	0.000000	0.001573	0.001751	28.084	0.057703	0.001906	30.2779	-21.404	15.3447	0.117653	0.311098	-0.781960	-0.783270	0.032885	30.2779	-0.782775	-2.623843E+10	-1.253324E-12	NaN
746	1.000000	0.322384	7.37235e+06	-39789.1	1005.82	-29792.5	0.000000	0.000000	6.322841	-0.052724	NaN	0.000000	0.001580	0.001732	28.084	0.048963	0.002067	23.6826	-161.509	-163.927	-0.106268	0.321117	-0.771984	-0.773251	-0.052724	23.6826	-0.770314	-1.776554E+10	2.967790E-12	NaN
746	1.000000	0.332417	7.37235e+06	-39789.1	1005.82	-29792.5	0.000000	0.000000	6.332875	-0.037782	NaN	0.000000	0.001600	0.001757	28.0844	0.032082	0.001998	16.0545	107.742	15.0259	-0.059912	0.331059	-0.761951	-0.763308	-0.037782	16.0545	-0.760186	-1.293710E+10	2.920406E-12	NaN
746	1.000000	0.342437	7.37235e+06	-39789.1	1005.82	-29792.5	0.000000	0.000000	6.342896	-0.020086	NaN	0.000000	0.001594	0.001743	28.083	0.050560	0.001954	25.8777	93.162	-164.998	-0.033850	0.341135	-0.751930	-0.753233	-0.020086	25.8777	-0.751348	-9.807839E+9	2.047968E-12	NaN
746	1.000000	0.352395	7.37235e+06	-39789.1	1005.82	-29792.5	0.000000	0.000000	6.352856	0.038100	NaN	0.000000	0.001606	0.001723	28.0829	0.099622	0.002002	49.7681	147.624	15.3053	-0.049412	0.351029	-0.741973	-0.743339	0.038100	49.7681	-0.742547	-7.442917E+9	-5.118997E-12	NaN
746	1.000000	0.362423	7.37235e+06	-39789.1	1005.82	-29792.5	0.000000	0.000000	6.362882	-0.011994	NaN	0.000000	0.001623	0.001714	28.0831	0.076515	0.001863	41.0684	6.808180	-167.018	-0.143143	0.361095	-0.731945	-0.733272	-0.011994	41.0684	-0.731726	-5.300597E+9	2.262852E-12	NaN
746	1.000000	0.372399	7.37235e+06	-39789.1	1005.82	-29792.5	0.000000	0.000000	6.372861	0.045802	NaN	0.000000	0.001653	0.001755	28.0828	0.063232	0.001810	34.9267	177.295	17.3015	-0.054703	0.371064	-0.721969	-0.723303	0.045802	34.9267	-0.722952	-4.024683E+9	-1.138033E-11	NaN
746	1.000000	0.382417	7.37235e+06	-39789.1	1005.82	-29792.5	0.000000	0.000000	6.382878	0.022606	NaN	0.000000	0.001656	0.001757	28.0831	0.089280	0.002026	44.0607	70.3999	-167.967	0.031746	0.381151	-0.711950	-0.713216	0.022606	44.0607	-0.712335	-2.883468E+9	-7.839867E-12	NaN
746	1.000000	0.392414	7.37235e+06	-39789.1	1005.82	-29792.5	0.000000	0.000000	6.392877	0.070422	NaN	0.000000	0.001629	0.001794	28.0828	0.111254	0.002024	54.9581	151.715	14.2293	0.041883	0.391101	-0.701953	-0.703266	0.070422	54.9581	-0.702914	-2.144514E+9	-3.283808E-11	NaN
746	1.000000	0.402406	7.37235e+06	-39789.1	1005.82	-29792.5	0.000000	0.000000	6.402864	-0.052649	NaN	0.000000	0.001619	0.001726	28.0828	0.058198	0.002108	27.6097	-91.0181	-162.204	-0.057430	0.401204	-0.691962	-0.693164	-0.052649	27.6097	-0.690532	-1.452724E+9	3.624129E-11	NaN
746	1.000000	0.412452	7.37235e+06	-39789.1	1005.82	-29792.5	0.000000	0.000000	6.412908	-0.104530	NaN	0.000000	0.001654	0.001774	28.0829	0.072865	0.001964	37.0998	-27.1072	14.8605	-0.091122	0.411072	-0.681916	-0.683296	-0.104530	37.0998	-0.679802	-1.036344E+9	1.008642E-10	NaN
746	1.000000	0.422456	7.37235e+06	-39789.1	1005.82	-29792.5	0.000000	0.000000	6.422915	-0.023307	NaN	0.000000	0.001670	0.001742	28.0829	0.022021	0.001874	11.7476	-147.241	-164.988	0.067839	0.421101	-0.671911	-0.673267	-0.023307	11.7476	-0.670423	-7.712320E+8	3.022092E-11	NaN
746	1.000000	0.432445	7.37235e+06	-39789.1	1005.82	-29792.5	0.000000	0.000000	6.432904	-0.030348	NaN	0.000000	0.001625	0.001699	28.083	0.035454	0.001843	19.2354	172.399	13.1864	0.047498	0.431028	-0.661923	-0.663340	-0.030348	19.2354	-0.660739	-5.683257E+8	5.339821E-11	NaN
746	1.000000	0.442450	7.37235e+06	-39789.1	1005.82	-29792.5	0.000000	0.000000	6.442911	0.028351	NaN	0.000000	0.001584	0.001745	28.083	0.043845	0.002127	20.6153	143.419	-165.026	0.118187	0.441137	-0.651918	-0.653231	0.028351	20.6153	-0.652950	-4.444957E+8	-6.378346E-11	NaN
746	1.000000	0.452437	7.37235e+06	-39789.1	1005.82	-29792.5	0.000000	0.000000	6.452897	-0.001851	NaN	0.000000	0.001612	0.001777	28.0832	0.103396	0.002056	50.2783	36.6655	13.3768	0.048672	0.451077	-0.641931	-0.643290	-0.001851	50.2783	-0.641903	-3.136151E+8	5.902928E-12	NaN
746	1.000000	0.462479	7.37235e+06	-39789.1	1005.82	-29792.5	0.000000	0.000000	6.462941	0.073239	NaN	0.000000	0.001606	0.001751	28.0828	0.064133	0.002049	31.3054	-12.5783	-163.5	0.020313	0.461157	-0.631889	-0.633211	0.073239	31.3054	-0.633644	-2.415759E+8	-3.031730E-10	NaN
746	1.000000	0.472473	7.37235e+06	-39789.1	1005.82	-29792.5	0.000000	0.000000	6.472935	0.047860	NaN	0.000000	0.001629	0.001742	28.0831	0.099623	0.001911	52.1332	-64.4174	16.4465	0.049426	0.471137	-0.621895	-0.623231	0.047860	52.1332	-0.622583	-1.702701E+8	-2.810844E-10	NaN
746	1.000000	0.482446	7.37235e+06	-39789.1	1005.82	-29792.5	0.000000	0.000000	6.482905	-0.018119	NaN	0.000000	0.001618	0.001710	28.0844	0.153900	0.002003	76.8324	94.9781	-163.101	-0.071912	0.481176	-0.611921	-0.613192	-0.018119	76.8324	-0.611745	-1.208132E+8	1.499714E-10	NaN
746	1.000000	0.492491	7.37235e+06	-39789.1	1005.82	-29792.5	0.000000	0.000000	6.492952	0.039253	NaN	0.000000	0.001629	0.001739	28.0847	0.042935	0.002062	20.8197	-109.272	13.453	0.041636	0.491140	-0.601877	-0.603228	0.039253	20.8197	-0.603291	-9.242290E+7	-4.247057E-10	NaN
746	1.000000	0.502479	7.37235e+06	-39789.1	1005.82	-29792.6	0.000000	0.000000	6.502942	0.082042	NaN	0.000000	0.001591	0.001724	28.0843	0.104050	0.002140	48.6147	49.1081	-165.496	0.069964	0.501235	-0.591889	-0.593133	0.082042	48.6147	-0.593155	-6.701254E+7	-1.224281E-9	NaN
746	1.000000	0.512494	7.37235e+06	-39789.1	1005.82	-29792.6	0.000000	0.000000	6.512953	-0.010136	NaN	0.000000	0.001581	0.001752	28.0842	0.064159	0.002067	31.0404	-106.148	16.9358	0.043878	0.511166	-0.581874	-0.583202	-0.010136	31.0404	-0.581629	-4.647400E+7	2.180972E-10	NaN
746	1.000000	0.522485	7.37235e+06	-39789.1	1005.82	-29792.6	0.000000	0.000000	6.522945	0.010351	NaN	0.000000	0.001582	0.001754	28.0845	0.081214	0.001850	43.9013	58.7137	-165.186	0.018040	0.521181	-0.571883	-0.573186	0.010351	43.9013	-0.572060	-3.428398E+7	-3.019316E-10	NaN
746	1.000000	0.532508	7.37235e+06	-39789.1	1005.82	-29792.6	0.000000	0.000000	6.532971	0.096568	NaN	0.000000	0.001597	0.001762	28.0843	0.062432	0.002059	30.3167	-19.1581	14.5988	0.156297	0.531133	-0.561860	-0.563235	0.096568	30.3167	-0.564249	-2.673880E+7	-3.611521E-9	NaN
746	1.000000	0.542488	7.37235e+06	-39789.1	1005.82	-29792.6	0.000000	0.000000	6.542951	0.088908	NaN	0.000000	0.001607	0.001757	28.0843	0.118549	0.001911	62.0447	87.7046	-164.81	0.130732	0.541115	-0.551880	-0.553253	0.088908	62.0447	-0.552955	-1.865838E+7	-4.765069E-9	NaN
746	1.000000	0.552496	7.37235e+06	-39789.1	1005.82	-29792.6	0.000000	0.000000	6.552956	0.012205	NaN	0.000000	0.001537	0.001776	28.0842	0.013990	0.002016	6.938907	47.5677	15.4795	0.058215	0.551165	-0.541872	-0.543203	0.012205	6.938907	-0.543191	-1.366483E+7	-8.931823E-10	NaN
746	1.000000	0.562516	7.37235e+06	-39789.1	1005.82	-29792.6	0.000000	0.000000	6.562974	-0.056211	NaN	0.000000	0.001595	0.001785	28.0844	0.044240	0.001781	24.8363	33.3459	-166.084	0.061570	0.561245	-0.531852	-0.533123	-0.056211	24.8363	-0.530154	-9.00984e+06	6.238809E-9	NaN
746	1.000000	0.572540	7.37235e+06	-39789.1	1005.82	-29792.6	0.000000	0.000000	6.573002	0.050950	NaN	0.000000	0.001595	0.001769	28.0841	0.069326	0.002051	33.8012	-59.5927	15.0797	0.051220	0.571193	-0.521828	-0.523175	0.050950	33.8012	-0.522959	-7.15707e+06	-7.118842E-9	NaN
746	1.000000	0.582534	7.37235e+06	-39789.1	1005.82	-29792.6	0.000000	0.000000	6.582992	-0.048559	NaN	0.000000	0.001581	0.001735	28.0841	0.069112	0.001992	34.6936	162.775	-165.701	-0.028112	0.581179	-0.511834	-0.513189	-0.048559	34.6936	-0.510784	-4.84546e+06	1.002152E-8	NaN
746	1.000000	0.592524	7.37235e+06	-39789.1	1005.82	-29792.6	0.000000	0.000000	6.592984	-0.004664	NaN	0.000000	0.001622	0.001769	28.0842	0.101985	0.002005	50.8596	-156.984	13.8465	0.093262	0.591159	-0.501843	-0.503209	-0.004664	50.8596	-0.501775	-3.62888e+06	1.285159E-9	NaN
746	1.000000	0.602508	7.37235e+06	-39789.1	1005.82	-29792.6	0.000000	0.000000	6.602966	-0.049448	NaN	0.000000	0.001580	0.001716	28.084	0.076645	0.001975	38.8102	-62.0757	-166.679	-0.020862	0.601205	-0.491859	-0.493162	-0.049448	38.8102	-0.490904	-2.55872e+06	1.932528E-8	NaN
746	1.000000	0.612564	7.37235e+06	-39789.1	1005.82	-29792.6	0.000000	0.000000	6.613023	-0.011171	NaN	0.000000	0.001608	0.001760	28.0834	0.061041	0.002041	29.9057	-165.063	14.118	0.018252	0.611145	-0.481804	-0.483223	-0.011171	29.9057	-0.481524	-1.89172e+06	5.905432E-9	NaN
746	1.000000	0.622542	7.37235e+06	-39789.1	1005.82	-29792.6	0.000000	0.000000	6.623001	-0.005430	NaN	0.000000	0.001607	0.001752	28.0826	0.043893	0.002100	20.9052	66.074	-165.813	0.013182	0.621210	-0.471826	-0.473158	-0.005430	20.9052	-0.471631	-1.37493e+06	3.949117E-9	NaN
746	1.000000	0.632558	7.37235e+06	-39789.1	1005.82	-29792.6	0.000000	0.000000	6.633012	-0.151630	NaN	0.000000	0.001603	0.001737	28.0831	0.027424	0.001930	14.2063	134.635	15.6902	-0.160059	0.631230	-0.461809	-0.463138	-0.151630	14.2063	-0.453804	-772496	1.962854E-7	NaN
746	1.000000	0.642517	7.37235e+06	-39789.1	1005.82	-29792.6	0.000000	0.000000	6.642974	-0.083678	NaN	0.000000	0.001598	0.001741	28.0826	0.020090	0.001801	11.152	153.531	-164.485	-0.049013	0.641295	-0.451850	-0.453072	-0.083678	11.152	-0.446223	-604129	1.385098E-7	NaN
746	1.000000	0.652563	7.37235e+06	-39789.1	1005.82	-29792.6	0.000000	0.000000	6.653020	-0.070386	NaN	0.000000	0.001647	0.001774	28.0828	0.027430	0.002069	13.2563	109.493	16.1581	-0.152658	0.651199	-0.441805	-0.443169	-0.070386	13.2563	-0.437823	-459859	1.530591E-7	NaN
746	1.000000	0.662536	7.37235e+06	-39789.1	1005.82	-29792.6	0.000000	0.000000	6.662992	-0.108042	NaN	0.000000	0.001638	0.001743	28.083	0.046232	0.002104	21.9778	-33.4562	-164.548	-0.111923	0.661259	-0.431831	-0.433108	-0.108042	21.9778	-0.428144	-335586	3.219492E-7	NaN
746	1.000000	0.672575	7.37235e+06	-39789.1	1005.82	-29792.6	0.000000	0.000000	6.673033	-0.042581	NaN	0.000000	0.001668	0.001732	28.083	0.057516	0.002030	28.3267	128.722	16.2507	-0.142964	0.671203	-0.421793	-0.423165	-0.042581	28.3267	-0.420666	-262938	1.619446E-7	NaN
746	1.000000	0.682555	7.37235e+06	-39789.1	1005.82	-29792.6	0.000000	0.000000	6.683009	-0.124491	NaN	0.000000	0.001627	0.001770	28.083	0.014873	0.002019	7.368359	79.7819	-163.845	-0.176232	0.681237	-0.411813	-0.413130	-0.124491	7.368359	-0.399142	-129942	9.580534E-7	NaN
746	1.000000	0.692554	7.37235e+06	-39789.1	1005.82	-29792.6	0.000000	0.000000	6.693010	-0.079155	NaN	0.000000	0.001622	0.001734	28.0832	0.068638	0.002060	33.3195	-11.5477	11.5546	-0.059184	0.691167	-0.401814	-0.403201	-0.079155	33.3195	-0.400032	-133799	5.915990E-7	NaN
746	1.000000	0.702576	7.37235e+06	-39789.1	1005.82	-29792.6	0.000000	0.000000	6.703034	-0.043555	NaN	0.000000	0.001621	0.001712	28.0831	0.060165	0.001977	30.4388	-176.305	-163.821	-0.096625	0.701267	-0.391792	-0.393101	-0.043555	30.4388	-0.390719	-98502.7	4.421669E-7	NaN
746	1.000000	0.712604	7.37235e+06	-39789.1	1005.82	-29792.6	0.000000	0.000000	6.713058	-0.137057	NaN	0.000000	0.001617	0.001705	28.0831	0.123623	0.002024	61.0921	-36.5312	13.9899	-0.025609	0.711195	-0.381764	-0.383173	-0.137057	61.0921	-0.380081	-69351.9	1.976257E-6	NaN
746	1.000000	0.722577	7.37235e+06	-39789.1	1005.82	-29792.6	0.000000	0.000000	6.723032	-0.121012	NaN	0.000000	0.001638	0.001720	28.0831	0.115954	0.001892	61.2961	53.6435	-163.851	-0.101807	0.721233	-0.371791	-0.373135	-0.121012	61.2961	-0.370310	-50187.7	2.411198E-6	NaN
746	1.000000	0.732582	7.37235e+06	-39789.1	1005.82	-29792.6	0.000000	0.000000	6.733038	-0.079053	NaN	0.000000	0.001611	0.001736	28.083	0.182265	0.001886	96.6283	-6.864630	14.802	-0.087554	0.731282	-0.361786	-0.363086	-0.079053	96.6283	-0.361172	-37050.1	2.133672E-6	NaN
746	1.000000	0.742605	7.37235e+06	-39789.1	1005.82	-29792.6	0.000000	0.000000	6.743062	-0.079246	NaN	0.000000	0.001605	0.001709	28.0831	0.068160	0.001891	36.0432	114.04	-165.813	-0.094723	0.741252	-0.351763	-0.353116	-0.079246	36.0432	-0.350114	-25624.4	3.092592E-6	NaN
746	1.000000	0.752575	7.37235e+06	-39789.1	1005.82	-29792.6	0.000000	0.000000	6.753030	-0.120244	NaN	0.000000	0.001578	0.001740	28.0841	0.053888	0.001855	29.0505	129.411	13.7554	-0.058693	0.751217	-0.341793	-0.343151	-0.120244	29.0505	-0.338688	-17475.5	6.880704E-6	NaN
746	1.000000	0.762601	7.37235e+06	-39789.1	1005.82	-29792.6	0.000000	0.000000	6.763058	-0.080348	NaN	0.000000	0.001626	0.001716	28.0844	0.036023	0.002081	17.3065	102.609	-163.623	-0.167906	0.761311	-0.331766	-0.333057	-0.080348	17.3065	-0.328284	-12311.7	6.526192E-6	NaN
746	1.000000	0.772602	7.37235e+06	-39789.1	1005.82	-29792.6	0.000000	0.000000	6.773058	-0.078427	NaN	0.000000	0.001704	0.001694	28.0844	0.063248	0.002082	30.3817	-148.504	9.022188	-0.110710	0.771260	-0.321766	-0.323108	-0.078427	30.3817	-0.319830	-9249.84	8.478690E-6	NaN
746	1.000000	0.782606	7.37235e+06	-39789.1	1005.82	-29792.6	0.000000	0.000000	6.783063	-0.075698	NaN	0.000000	0.001665	0.001752	28.0844	0.159893	0.002028	78.8411	103.552	-166.653	-0.056778	0.781292	-0.311762	-0.313076	-0.075698	78.8411	-0.311041	-6862.2	1.103122E-5	NaN
746	1.000000	0.792585	7.37235e+06	-39789.1	1005.82	-29792.6	0.000000	0.000000	6.793041	-0.071467	NaN	0.000000	0.001633	0.001742	28.0841	0.051648	0.001956	26.4078	-135.018	14.6996	-0.075343	0.791229	-0.301783	-0.303139	-0.071467	26.4078	-0.299754	-4666.24	1.531568E-5	NaN
746	1.000000	0.802626	7.37235e+06	-39789.1	1005.82	-29792.6	0.000000	0.000000	6.803080	-0.119823	NaN	0.000000	0.001611	0.001772	28.084	0.074550	0.002137	34.8934	141.531	-164.007	-0.084882	0.801312	-0.291742	-0.293056	-0.119823	34.8934	-0.289167	-3242.02	3.695945E-5	NaN
746	1.000000	0.812577	7.37235e+06	-39789.1	1005.82	-29792.6	0.000000	0.000000	6.813031	-0.139011	NaN	0.000000	0.001630	0.001728	28.0842	0.080882	0.002083	38.8311	115.784	14.9764	-0.231479	0.811283	-0.281791	-0.283085	-0.139011	38.8311	-0.279106	-2288.11	6.075370E-5	NaN
746	1.000000	0.822605	7.37235e+06	-39789.1	1005.82	-29792.6	0.000000	0.000000	6.823060	-0.119736	NaN	0.000000	0.001621	0.001751	28.084	0.083999	0.002037	41.2417	159.114	-164.532	-0.162238	0.821301	-0.271763	-0.273066	-0.119736	41.2417	-0.269585	-1641.49	7.294370E-5	NaN
746	1.000000	0.832630	7.37235e+06	-39789.1	1005.82	-29792.6	0.000000	0.000000	6.833087	-0.082186	NaN	0.000000	0.001588	0.001732	28.0839	0.010114	0.001924	5.257872	134.831	6.411440	-0.043790	0.831234	-0.261738	-0.263134	-0.082186	5.257872	-0.250014	-822.6	9.990980E-5	NaN
746	1.000000	0.842641	7.37235e+06	-39789.1	1005.82	-29792.6	0.000000	0.000000	6.843095	-0.114493	NaN	0.000000	0.001637	0.001753	28.0837	0.044988	0.001903	23.642	158.074	-161.907	-0.004228	0.841307	-0.251727	-0.253061	-0.114493	23.642	-0.248095	-768.213	0.000149	NaN
746	1.000000	0.852640	7.37235e+06	-39789.1	1005.82	-29792.6	0.000000	0.000000	6.853099	-0.023765	NaN	0.000000	0.001637	0.001725	28.0837	0.009200	0.001959	4.696163	178.986	13.5099	-0.007202	0.851288	-0.241727	-0.243080	-0.023765	4.696163	-0.237932	-533.6	4.453807E-5	NaN
746	1.000000	0.862624	7.37235e+06	-39789.1	1005.82	-29792.6	0.000000	0.000000	6.863080	-0.075602	NaN	0.000000	0.001617	0.001733	28.0836	0.150127	0.002062	72.8043	-118.592	-165.211	-0.086148	0.861383	-0.231744	-0.232985	-0.075602	72.8043	-0.230965	-414.719	0.000182	NaN
746	1.000000	0.872628	7.37235e+06	-39789.1	1005.82	-29792.6	0.000000	0.000000	6.873082	-0.127285	NaN	0.000000	0.001611	0.001755	28.0834	0.017918	0.001845	9.710313	41.7486	13.4435	-0.130633	0.871288	-0.221740	-0.223080	-0.127285	9.710313	-0.211909	-205.916	0.000618	NaN
746	1.000000	0.882622	7.37235e+06	-39789.1	1005.82	-29792.6	0.000000	0.000000	6.883076	-0.129706	NaN	0.000000	0.001610	0.001729	28.0835	0.081768	0.002112	38.7131	-143.661	-165.092	-0.110190	0.881291	-0.211746	-0.213077	-0.129706	38.7131	-0.209233	-186.377	0.000696	NaN
746	1.000000	0.892633	7.37235e+06	-39789.1	1005.82	-29792.6	0.000000	0.000000	6.893088	-0.112395	NaN	0.000000	0.001630	0.001739	28.0824	0.089190	0.002066	43.1802	-126.138	14.2782	-0.100974	0.891321	-0.201735	-0.203046	-0.112395	43.1802	-0.199783	-130.655	0.000860	NaN
746	1.000000	0.902662	7.37235e+06	-39789.1	1005.82	-29792.6	0.000000	0.000000	6.903119	-0.061907	NaN	0.000000	0.001629	0.001737	28.0825	0.040763	0.002092	19.4827	-17.7249	-163.358	-0.020171	0.901345	-0.191706	-0.193023	-0.061907	19.4827	-0.189323	-87.6407	0.000706	NaN
746	1.000000	0.912642	7.37236e+06	-39789.1	1005.82	-29792.6	0.000000	0.000000	6.913098	-0.090257	NaN	0.000000	0.001596	0.001760	28.0824	0.060663	0.001826	33.2275	171.31	16.6886	-0.096406	0.911253	-0.181725	-0.183115	-0.090257	33.2275	-0.179688	-60.2783	0.001497	NaN
746	1.000000	0.922653	7.37236e+06	-39789.1	1005.82	-29792.6	0.000000	0.000000	6.923107	-0.140883	NaN	0.000000	0.001636	0.001716	28.0826	0.070324	0.002135	32.9314	-118.744	-167.544	-0.059684	0.921409	-0.171715	-0.172959	-0.140883	32.9314	-0.168507	-38.6936	0.003641	NaN
746	1.000000	0.932674	7.37236e+06	-39789.1	1005.82	-29792.6	0.000000	0.000000	6.933132	-0.039704	NaN	0.000000	0.001612	0.001705	28.0827	0.035876	0.002090	17.1646	92.7807	14.9676	-0.065108	0.931249	-0.161694	-0.163119	-0.039704	17.1646	-0.159959	-27.3688	0.001451	NaN
746	1.000000	0.942672	7.37236e+06	-39789.1	1005.82	-29792.6	0.000000	0.000000	6.943126	-0.136859	NaN	0.000000	0.001621	0.001712	28.0826	0.065858	0.002031	32.4238	176.236	-166.121	-0.156201	0.941368	-0.151696	-0.153000	-0.136859	32.4238	-0.148531	-17.0275	0.008038	NaN
746	1.000000	0.952683	7.37236e+06	-39789.1	1005.82	-29792.6	0.000000	0.000000	6.953139	-0.105867	NaN	0.000000	0.001620	0.001720	28.0825	0.081473	0.001894	43.0072	-88.6409	15.3497	-0.137316	0.951312	-0.141685	-0.143056	-0.105867	43.0072	-0.139838	-11.7471	0.009012	NaN
746	1.000000	0.962684	7.37236e+06	-39789.1	1005.82	-29792.6	0.000000	0.000000	6.963141	-0.059464	NaN	0.000000	0.001605	0.001719	28.0826	0.065426	0.001967	33.2536	57.0398	-163.317	-0.048686	0.961353	-0.131684	-0.133015	-0.059464	33.2536	-0.130343	-7.738609	0.007684	NaN
746	1.000000	0.972688	7.37236e+06	-39789.1	1005.82	-29792.6	0.000000	0.000000	6.973141	-0.181605	NaN	0.000000	0.001621	0.001730	28.0824	0.062746	0.002015	31.1387	21.8198	13.4484	-0.163894	0.971358	-0.121680	-0.123010	-0.181605	31.1387	-0.117305	-4.259840	0.042632	NaN
746	1.000000	0.982702	7.37236e+06	-39789.1	1005.82	-29792.6	0.000000	0.000000	6.983160	-0.036556	NaN	0.000000	0.001582	0.001749	28.0825	0.086734	0.001973	43.9715	-60.3387	-161.732	-0.055246	0.981387	-0.111666	-0.112981	-0.036556	43.9715	-0.111043	-3.160855	0.011565	NaN
746	1.000000	0.992708	7.37236e+06	-39789.1	1005.82	-29792.6	0.000000	0.000000	6.993164	-0.090918	NaN	0.000000	0.001603	0.001725	28.0823	0.084839	0.002079	40.8077	-133.32	16.1492	-0.099070	0.991329	-0.101660	-0.103039	-0.090918	40.8077	-0.099989	-1.826128	0.049787	NaN
746	1.000000	1.002691	7.37236e+06	-39789.1	1005.82	-29792.6	0.000000	0.000000	7.003146	-0.124629	NaN	0.000000	0.001625	0.001705	28.0827	0.074893	0.001970	38.0128	-150.031	-164.309	-0.094806	1.001366	-0.091677	-0.093001	-0.124629	38.0128	-0.089218	-1.036138	0.120282	NaN
746	1.000000	1.012709	7.37236e+06	-39789.1	1005.82	-29792.6	0.000000	0.000000	7.013163	-0.128303	NaN	0.000000	0.001623	0.001681	28.0821	0.118700	0.002038	58.2393	-117.408	15.4507	-0.106426	1.011350	-0.081659	-0.083018	-0.128303	58.2393	-0.080007	-0.619241	0.207194	NaN
746	1.000000	1.022719	7.37236e+06	-39789.1	1005.82	-29792.6	0.000000	0.000000	7.023175	-0.095541	NaN	0.000000	0.001737	0.001755	28.0833	0.089018	0.002016	44.1648	161.755	-163.647	-0.098859	1.021408	-0.071648	-0.072960	-0.095541	44.1648	-0.070026	-0.341653	0.279643	NaN
746	1.000000	1.032716	7.37236e+06	-39789.1	1005.82	-29792.6	0.000000	0.000000	7.033169	-0.154279	NaN	0.000000	0.001673	0.001739	28.0832	0.093452	0.002000	46.7159	-152.333	14.5018	-0.135411	1.031332	-0.061652	-0.063036	-0.154279	46.7159	-0.059175	-0.170519	0.904759	NaN
746	1.000000	1.042717	7.37236e+06	-39789.1	1005.82	-29792.6	0.000000	0.000000	7.043172	-0.103210	NaN	0.000000	0.001668	0.001739	28.084	0.038515	0.001928	19.9793	93.6505	-163.619	-0.120866	1.041376	-0.051651	-0.052991	-0.103210	19.9793	-0.047777	-0.078118	1.321208	NaN
746	1.000000	1.052698	7.37236e+06	-39789.1	1005.82	-29792.6	0.000000	0.000000	7.053154	-0.092872	NaN	0.000000	0.001636	0.001734	28.0833	0.131794	0.001923	68.5267	169.07	12.8889	-0.053009	1.051381	-0.041669	-0.042987	-0.092872	68.5267	-0.040653	-0.047337	1.961912	NaN
746	1.000000	1.062706	7.37236e+06	-39789.1	1005.82	-29792.6	0.000000	0.000000	7.063162	-0.072388	NaN	0.000000	0.001666	0.001737	28.0838	0.091871	0.001979	46.4325	-30.2904	-161.081	-0.061167	1.061366	-0.031662	-0.033002	-0.072388	46.4325	-0.030493	-0.023755	3.047351	NaN
746	1.000000	1.072741	7.37236e+06	-39789.1	1005.82	-29792.6	0.000000	0.000000	7.073199	-0.063409	NaN	0.000000	0.001665	0.001711	28.0834	0.077385	0.001976	39.1706	138.858	12.486	-0.127818	1.071346	-0.021626	-0.023022	-0.063409	39.1706	-0.020412	-0.012868	4.927768	NaN
746	1.000000	1.082746	7.37236e+06	-39789.1	1005.82	-29792.6	0.000000	0.000000	7.083203	-0.069619	NaN	0.000000	0.001633	0.001692	28.0836	0.022689	0.001929	11.7594	108.451	-166.588	-0.083146	1.081401	-0.011622	-0.012967	-0.069619	11.7594	-0.007181	-0.004748	14.6612	NaN
746	1.000000	1.092718	7.37236e+06	-39789.1	1005.82	-29792.6	0.000000	0.000000	7.093210	0.793123	NaN	0.000000	0.001626	0.001729	28.0832	1.464344	0.002058	711.551	11.0209	13.7505	0.113340	1.091320	-0.001650	-0.003048	0.793123	711.551	-0.002486	-0.001773	-447.245	NaN
746	2.000000	1.100393	7.37236e+06	-39789.1	1005.82	-29792.6	0.000000	0.000000	7.101228	9.120247	NaN	0.000000	0.001580	0.001713	28.0833	8.894788	0.001534	5799.47	5.819243	-172.083	8.584008	1.100124	0.006026	0.005757	9.120247	5799.47	0.004846	0.003993	2283.81	83847.2
746	2.000000	1.102899	7.37236e+06	-39789.1	1005.82	-29792.6	0.000000	0.000000	7.103875	12.5661	NaN	0.000000	0.001643	0.001725	28.0834	11.9405	0.001818	6567.78	8.278727	6.881119	12.1999	1.102547	0.008531	0.008179	12.5661	6567.78	0.007096	0.006129	2050.25	76646.9
746	2.000000	1.105393	7.37236e+06	-39789.1	1005.82	-29792.6	0.000000	0.000000	7.106612	18.4736	NaN	0.000000	0.001633	0.001768	28.0833	14.6434	0.001678	8728.82	7.658039	-176.165	19.3385	1.105064	0.011025	0.010696	18.4736	8728.82	0.009438	0.008563	2157.25	86179.4
746	2.000000	1.107865	7.37236e+06	-39789.1	1005.82	-29792.6	0.000000	0.000000	7.109302	23.7823	NaN	0.000000	0.001663	0.001744	28.0831	16.538	0.001703	9709.19	6.554841	4.822139	21.8639	1.107496	0.013497	0.013128	23.7823	9709.19	0.011660	0.011085	2145.44	84253.3
746	2.000000	1.110323	7.37236e+06	-39789.1	1005.82	-29792.6	0.000000	0.000000	7.112020	30.1229	NaN	0.000000	0.001706	0.001758	28.0834	19.2453	0.001694	11359.1	1.179595	-172.136	28.1637	1.110031	0.015955	0.015663	30.1229	11359.1	0.013966	0.013931	2162.31	87928.2
746	2.000000	1.112834	7.37236e+06	-39789.1	1005.82	-29792.6	0.000000	0.000000	7.114659	33.2218	NaN	0.000000	0.001661	0.001736	28.0833	23.3011	0.001809	12881.6	8.729550	-0.366177	33.0134	1.112502	0.018466	0.018134	33.2218	12881.6	0.016532	0.017383	1911.2	89265.6
746	2.000000	1.115344	7.37236e+06	-39789.1	1005.82	-29792.6	0.000000	0.000000	7.117630	44.4281	NaN	0.000000	0.001664	0.001725	28.0822	25.8096	0.001809	14269.4	4.595361	-176.89	44.2955	1.115024	0.020976	0.020656	44.4281	14269.4	0.018641	0.020452	2172.32	91161.6
746	2.000000	1.117871	7.37236e+06	-39789.1	1005.82	-29792.6	0.000000	0.000000	7.120478	52.2624	NaN	0.000000	0.001700	0.001767	28.082	27.9682	0.001899	14730.2	5.782829	2.177198	51.4068	1.117503	0.023503	0.023135	52.2624	14730.2	0.020842	0.023882	2188.32	87084.9
746	2.000000	1.120296	7.37236e+06	-39789.1	1005.82	-29792.6	0.000000	0.000000	7.123271	61.1932	NaN	0.000000	0.001684	0.001752	28.082	29.7069	0.001669	17803.5	1.282678	-176.649	59.537	1.119993	0.025929	0.025625	61.1932	17803.5	0.023351	0.028083	2178.98	97063.2
746	2.000000	1.122806	7.37236e+06	-39789.1	1005.82	-29792.6	0.000000	0.000000	7.126167	70.5962	NaN	0.000000	0.001671	0.001779	28.0823	32.8888	0.001906	17253.6	4.609757	2.145819	68.1843	1.122366	0.028438	0.027999	70.5962	17253.6	0.025369	0.031691	2227.63	88549.2
746	2.000000	1.125301	7.37236e+06	-39789.1	1005.82	-29792.6	0.000000	0.000000	7.128953	77.6897	NaN	0.000000	0.001657	0.001770	28.0822	35.7012	0.001861	19180.3	4.330308	-179.265	76.5454	1.125043	0.030933	0.030675	77.6897	19180.3	0.027895	0.036494	2128.82	91731.3
746	2.000000	1.127813	7.37236e+06	-39789.1	1005.82	-29792.6	0.000000	0.000000	7.132003	90.7822	NaN	0.000000	0.001643	0.001754	28.0821	37.9072	0.001797	21098.3	5.850687	-0.671242	89.0168	1.127456	0.033445	0.033088	90.7822	21098.3	0.030218	0.041196	2203.64	94970.8
746	2.000000	1.130282	7.37236e+06	-39789.1	1005.82	-29792.6	0.000000	0.000000	7.134947	102.326	NaN	0.000000	0.001691	0.001768	28.0825	39.7846	0.001824	21813.5	4.380703	-179.16	101.593	1.129987	0.035914	0.035619	102.326	21813.5	0.032396	0.045856	2231.46	93067.9
746	2.000000	1.132752	7.37236e+06	-39789.1	1005.82	-29792.6	0.000000	0.000000	7.137939	115.032	NaN	0.000000	0.001698	0.001710	28.0825	42.727	0.001832	23317.2	3.902249	-0.286961	111.601	1.132451	0.038384	0.038083	115.032	23317.2	0.034684	0.051013	2254.97	94321.4
746	2.000000	1.135212	7.37236e+06	-39789.1	1005.82	-29792.6	0.000000	0.000000	7.141003	129.727	NaN	0.000000	0.001667	0.001755	28.0825	45.155	0.001799	25105.8	7.398054	176.101	127.283	1.134964	0.040844	0.040596	129.727	25105.8	0.036969	0.056430	2298.89	96558.7
746	2.000000	1.137800	7.37236e+06	-39789.1	1005.82	-29792.6	0.000000	0.000000	7.144061	141.179	NaN	0.000000	0.001683	0.001768	28.0824	47.3794	0.001661	28527.4	6.409743	-4.757878	138.473	1.137484	0.043432	0.043116	141.179	28527.4	0.039721	0.063308	2230.03	103587
746	2.000000	1.140207	7.37236e+06	-39789.1	1005.82	-29792.6	0.000000	0.000000	7.147223	159.534	NaN	0.000000	0.001673	0.001769	28.0829	49.4314	0.001806	27373	6.068263	175.918	156.195	1.139936	0.045839	0.045568	159.534	27373	0.041468	0.067878	2350.31	95991.4
746	2.000000	1.142730	7.37236e+06	-39789.1	1005.82	-29792.6	0.000000	0.000000	7.150328	173.72	NaN	0.000000	0.001720	0.001770	28.0828	52.0146	0.001775	29311.9	5.250049	-3.407714	170.528	1.142443	0.048362	0.048075	173.72	29311.9	0.043917	0.074542	2330.5	98088.2
746	2.000000	1.145231	7.37236e+06	-39789.1	1005.82	-29792.6	0.000000	0.000000	7.153194	182.585	NaN	0.000000	0.001680	0.001809	28.0826	54.8392	0.001820	30134.1	3.607144	177.159	179.167	1.145035	0.050863	0.050668	182.585	30134.1	0.046319	0.081375	2243.75	96513.2
746	2.000000	1.147798	7.37236e+06	-39789.1	1005.82	-29792.6	0.000000	0.000000	7.156428	198.823	NaN	0.000000	0.001657	0.001787	28.0823	57.2315	0.001765	32428.1	5.918975	-5.158275	197.418	1.147412	0.053430	0.053044	198.823	32428.1	0.048832	0.088837	2238.05	99402.5
746	2.000000	1.150306	7.37236e+06	-39789.1	1005.82	-29792.6	0.000000	0.000000	7.159543	213.59	NaN	0.000000	0.001665	0.001774	28.084	59.6341	0.001887	31608.7	7.112411	174.156	214.646	1.149915	0.055938	0.055547	213.59	31608.7	0.050870	0.095122	2245.43	93635.1
746	2.000000	1.152716	7.37236e+06	-39789.1	1005.82	-29792.6	0.000000	0.000000	7.162472	226.224	NaN	0.000000	0.001620	0.001758	28.084	61.7214	0.001743	35418	3.525272	-3.928888	223.606	1.152530	0.058348	0.058162	226.224	35418	0.053558	0.103726	2180.98	100474
746	2.000000	1.155207	7.37236e+06	-39789.1	1005.82	-29792.6	0.000000	0.000000	7.165824	247.179	NaN	0.000000	0.001625	0.001722	28.0837	64.6518	0.001748	36991.6	0.116689	179.661	243.644	1.154910	0.060839	0.060542	247.179	36991.6	0.055827	0.111272	2221.39	101317
746	2.000000	1.157709	7.37236e+06	-39789.1	1005.82	-29792.6	0.000000	0.000000	7.169074	265.372	NaN	0.000000	0.001624	0.001754	28.0839	66.5824	0.001749	38075.8	2.716181	-2.864098	260.016	1.157310	0.063342	0.062942	265.372	38075.8	0.058114	0.119134	2227.52	100787
746	2.000000	1.160214	7.37236e+06	-39789.1	1005.82	-29792.6	0.000000	0.000000	7.172449	286.56	NaN	0.000000	0.001583	0.001762	28.0842	68.0164	0.001739	39115.7	1.660679	178.104	281.444	1.159755	0.065846	0.065387	286.56	39115.7	0.060351	0.127071	2255.12	100254
746	2.000000	1.162742	7.37236e+06	-39789.1	1005.82	-29792.6	0.000000	0.000000	7.175512	299.578	NaN	0.000000	0.001595	0.001784	28.0837	71.9684	0.001715	41969.5	5.480109	-6.345235	296.678	1.162333	0.068374	0.067966	299.578	41969.5	0.063020	0.136861	2188.93	103650
746	2.000000	1.165199	7.37236e+06	-39789.1	1005.82	-29792.6	0.000000	0.000000	7.178805	319.907	NaN	0.000000	0.001611	0.001780	28.0839	75.168	0.001784	42125.5	6.878145	172.036	314.941	1.164868	0.070831	0.070500	319.907	42125.5	0.065135	0.144865	2208.31	101120
746	2.000000	1.167752	7.37236e+06	-39789.1	1005.82	-29792.6	0.000000	0.000000	7.182146	339.083	NaN	0.000000	0.001604	0.001775	28.084	76.5134	0.001782	42937.9	3.267391	-3.930740	336.179	1.167306	0.073384	0.072938	339.083	42937.9	0.067462	0.153916	2203.04	99993.6
746	2.000000	1.170288	7.37236e+06	-39789.1	1005.82	-29792.6	0.000000	0.000000	7.185499	358.961	NaN	0.000000	0.001624	0.001773	28.0842	78.9387	0.001743	45288.6	3.759915	174.472	358.055	1.169909	0.075920	0.075542	358.961	45288.6	0.069976	0.163989	2188.93	102177
746	2.000000	1.172742	7.37236e+06	-39789.1	1005.82	-29792.6	0.000000	0.000000	7.188794	379.416	NaN	0.000000	0.001644	0.001743	28.084	82.1478	0.001881	43666.2	5.488656	-6.838573	378.219	1.172377	0.078374	0.078009	379.416	43666.2	0.071858	0.171727	2209.41	96272
746	2.000000	1.175226	7.37236e+06	-39789.1	1005.82	-29792.6	0.000000	0.000000	7.191933	395.37	NaN	0.000000	0.001652	0.001810	28.0837	84.1148	0.001790	46990.5	2.987924	174.81	393.928	1.174935	0.080858	0.080567	395.37	46990.5	0.074548	0.183078	2159.56	100338
746	2.000000	1.177748	7.37236e+06	-39789.1	1005.82	-29792.6	0.000000	0.000000	7.195639	424.169	NaN	0.000000	0.001664	0.001798	28.084	86.4015	0.001818	47538.5	6.210242	-8.187451	419.928	1.177308	0.083380	0.082940	424.169	47538.5	0.076688	0.192355	2205.14	99030.1
746	2.000000	1.180129	7.37236e+06	-39789.1	1005.82	-29792.6	0.000000	0.000000	7.198821	443.663	NaN	0.000000	0.001565	0.001782	28.0839	86.3436	0.001817	47518	-1.188073	179.195	436.695	1.179965	0.085762	0.085597	443.663	47518	0.078759	0.201532	2201.45	96707.2
746	2.000000	1.182634	7.37236e+06	-39789.1	1005.82	-29792.6	0.000000	0.000000	7.202194	464.791	NaN	0.000000	0.001630	0.001741	28.0829	90.0138	0.001753	51346.1	6.219398	-9.287218	457.606	1.182398	0.088266	0.088030	464.791	51346.1	0.081477	0.213883	2173.11	101436
746	2.000000	1.185153	7.37236e+06	-39789.1	1005.82	-29792.6	0.000000	0.000000	7.205611	486.636	NaN	0.000000	0.001564	0.001791	28.0826	93.5285	0.001899	49249.8	7.041747	170.828	481.065	1.184843	0.090785	0.090475	486.636	49249.8	0.083374	0.222708	2185.08	95347.5
746	2.000000	1.187699	7.37236e+06	-39789.1	1005.82	-29792.6	0.000000	0.000000	7.209026	507.799	NaN	0.000000	0.001632	0.001783	28.083	94.1659	0.001700	55381.5	5.844673	-8.836438	502.63	1.187309	0.093331	0.092941	507.799	55381.5	0.086454	0.237386	2139.13	103851
746	2.000000	1.190183	7.37236e+06	-39789.1	1005.82	-29792.6	0.000000	0.000000	7.212659	535.774	NaN	0.000000	0.001600	0.001796	28.0826	96.1074	0.001740	55221.6	6.431017	170.852	532.592	1.189827	0.095815	0.095459	535.774	55221.6	0.088538	0.247568	2164.15	101399
746	2.000000	1.192676	7.37236e+06	-39789.1	1005.82	-29792.6	0.000000	0.000000	7.216129	559.538	NaN	0.000000	0.001611	0.001774	28.0828	99.2873	0.001833	54152.6	4.629435	-6.872367	554.904	1.192339	0.098308	0.097971	559.538	54152.6	0.090559	0.257630	2171.87	97475.3
746	2.000000	1.195120	7.37236e+06	-39789.1	1005.82	-29792.6	0.000000	0.000000	7.219213	575.106	NaN	0.000000	0.001628	0.001793	28.0828	100.881	0.001707	59084.1	1.473793	174.85	570.735	1.195033	0.100752	0.100665	575.106	59084.1	0.093452	0.272362	2111.55	103436
746	2.000000	1.197654	7.37236e+06	-39789.1	1005.82	-29792.6	0.000000	0.000000	7.222508	593.616	NaN	0.000000	0.001593	0.001737	28.0831	104.224	0.001816	57395.8	4.371839	-7.688382	586.731	1.197458	0.103286	0.103090	593.616	57395.8	0.095529	0.283177	2096.27	98542.7
746	2.000000	1.198169	7.37236e+06	-39789.1	1005.82	-29792.6	0.000000	0.000000	7.223471	604.53	NaN	0.000000	0.001630	0.001736	28.0832	106.556	0.001772	60141.8	5.972253	170.648	599.514	1.197773	0.103801	0.103405	604.53	60141.8	0.096262	0.287041	2106.07	102560