File: remote_trans/data/nanoindenter/0828-1/data/Data_2025-08-06,11h17m57s/2025-07-22_16-23-58_1_462.txt
2025-07-22, 16:23:58, 1
Index	Phase	Displacement	Time	Pos X	Pos Y	Pos Z	Rot A	Rot B	Piezo Z	Force A	Force B	Gripper	Voltage A	Voltage B	Temperature	Amplitude force	Amplitude pos	Stiffness	Phase shift	Phase excitation	Force A raw	Displacement raw	HMax	HMax raw	Real Force	Real Stiffness	Contact Depth	Area	Hardness	Reduced Mod.
[#]	[#]	[um]	[s]	[um]	[um]	[um]	[m°]	[m°]	[um]	[uN]	[uN]	[V]	[V]	[V]	[°C]	[uN]	[um]	[N/m]	[°]	[°]	[uN]	[um]	[um]	[um]	[uN]	[N/m]	[um]	[um^2]	[MPa]	[MPa]
462	1.000000	0.002496	7.36958e+06	-53989.1	1005.82	-29744.8	0.000000	0.000000	6.002765	-0.029956	NaN	0.000000	0.001515	0.001760	28.0815	0.072835	0.001046	69.6042	62.5769	-162.003	0.039899	0.001238	-1.067465	-1.068722	-0.029956	69.6042	-1.067142	-1.814634E+14	1.650796E-16	NaN
462	1.000000	0.010498	7.36958e+06	-53989.1	1005.82	-29744.8	0.000000	0.000000	6.010769	0.026541	NaN	0.000000	0.001550	0.001737	28.0814	0.064621	0.001021	63.2965	-64.7953	-167.455	-0.031789	0.009149	-1.059462	-1.060812	0.026541	63.2965	-1.059777	-1.444839E+14	-1.836918E-16	NaN
462	1.000000	0.018513	7.36958e+06	-53989.1	1005.82	-29744.8	0.000000	0.000000	6.018782	-0.023150	NaN	0.000000	0.001530	0.001773	28.0813	0.110909	0.001675	66.2291	137.487	-167.014	-0.017997	0.017163	-1.051447	-1.052797	-0.023150	66.2291	-1.051185	-1.107500E+14	2.090291E-16	NaN
462	1.000000	0.026510	7.36958e+06	-53989.1	1005.82	-29744.8	0.000000	0.000000	6.026781	0.010870	NaN	0.000000	0.001523	0.001773	28.0814	0.062415	0.001844	33.8427	170.869	-167.299	-0.047633	0.025163	-1.043450	-1.044797	0.010870	33.8427	-1.043691	-8.782013E+13	-1.237752E-16	NaN
462	1.000000	0.034488	7.36958e+06	-53989.1	1005.82	-29744.8	0.000000	0.000000	6.034759	0.018048	NaN	0.000000	0.001507	0.001788	28.0819	0.086937	0.001851	46.9623	-138.315	-168.141	0.014182	0.033141	-1.035472	-1.036819	0.018048	46.9623	-1.035761	-6.870017E+13	-2.626996E-16	NaN
462	1.000000	0.042463	7.36958e+06	-53989.1	1005.82	-29744.8	0.000000	0.000000	6.042736	0.069740	NaN	0.000000	0.001489	0.001753	28.0814	0.036077	0.002172	16.6136	162.147	-170.801	0.078488	0.041141	-1.027498	-1.028819	0.069740	16.6136	-1.030646	-5.863678E+13	-1.189355E-15	NaN
462	1.000000	0.050507	7.36958e+06	-53989.1	1005.82	-29744.8	0.000000	0.000000	6.050778	0.022300	NaN	0.000000	0.001533	0.001726	28.0812	0.062751	0.002121	29.5815	112.826	-166.101	0.024385	0.049219	-1.019453	-1.020741	0.022300	29.5815	-1.020018	-4.218905E+13	-5.285689E-16	NaN
462	1.000000	0.058471	7.36958e+06	-53989.1	1005.82	-29744.8	0.000000	0.000000	6.058742	0.011037	NaN	0.000000	0.001505	0.001787	28.0814	0.119898	0.001958	61.2282	3.338548	-165.863	0.035593	0.057207	-1.011489	-1.012754	0.011037	61.2282	-1.011624	-3.252709E+13	-3.393082E-16	NaN
462	1.000000	0.066508	7.36958e+06	-53989.1	1005.82	-29744.8	0.000000	0.000000	6.066780	0.061078	NaN	0.000000	0.001527	0.001796	28.0815	0.090692	0.002016	44.9968	74.8848	-167.413	0.045858	0.065164	-1.003453	-1.004796	0.061078	44.9968	-1.004471	-2.605893E+13	-2.343838E-15	NaN
462	1.000000	0.074480	7.36958e+06	-53989.1	1005.82	-29744.8	0.000000	0.000000	6.074752	0.066186	NaN	0.000000	0.001584	0.001764	28.0813	0.121103	0.001938	62.4803	-79.3561	-164.916	0.075799	0.073210	-0.995481	-0.996751	0.066186	62.4803	-0.996275	-2.021233E+13	-3.274518E-15	NaN
462	1.000000	0.082518	7.36958e+06	-53989.1	1005.82	-29744.8	0.000000	0.000000	6.082787	-0.026180	NaN	0.000000	0.001551	0.001773	28.08	0.086173	0.001952	44.1566	74.0442	-164.771	0.021704	0.081201	-0.987443	-0.988759	-0.026180	44.1566	-0.986998	-1.515929E+13	1.727005E-15	NaN
462	1.000000	0.090491	7.36958e+06	-53989.1	1005.82	-29744.8	0.000000	0.000000	6.090762	0.024173	NaN	0.000000	0.001565	0.001699	28.08	0.088168	0.002017	43.7024	-150.364	-168.819	0.014739	0.089132	-0.979469	-0.980829	0.024173	43.7024	-0.979884	-1.215750E+13	-1.988328E-15	NaN
462	1.000000	0.098480	7.36958e+06	-53989.1	1005.82	-29744.8	0.000000	0.000000	6.098754	0.096041	NaN	0.000000	0.001570	0.001734	28.0798	0.044113	0.001974	22.3466	110.826	-165.636	-0.022917	0.097247	-0.971480	-0.972713	0.096041	22.3466	-0.974704	-1.035264E+13	-9.276972E-15	NaN
462	1.000000	0.106493	7.36958e+06	-53989.1	1005.82	-29744.8	0.000000	0.000000	6.106763	-0.021970	NaN	0.000000	0.001530	0.001769	28.08	0.081415	0.002050	39.7108	46.7884	-165.783	0.018438	0.105156	-0.963467	-0.964804	-0.021970	39.7108	-0.963052	-7.211291E+12	3.046611E-15	NaN
462	1.000000	0.114495	7.36958e+06	-53989.1	1005.82	-29744.8	0.000000	0.000000	6.114766	0.024808	NaN	0.000000	0.001508	0.001726	28.0802	0.008017	0.002109	3.801937	159.057	-166.002	0.034600	0.113174	-0.955466	-0.956786	0.024808	3.801937	-0.960359	-6.633064E+12	-3.740031E-15	NaN
462	1.000000	0.122509	7.36958e+06	-53989.1	1005.82	-29744.8	0.000000	0.000000	6.122782	0.070965	NaN	0.000000	0.001650	0.001757	28.0802	0.038543	0.002049	18.8147	109.45	-168.425	0.055306	0.121201	-0.947451	-0.948759	0.070965	18.8147	-0.950280	-4.850741E+12	-1.462973E-14	NaN
462	1.000000	0.130501	7.36958e+06	-53989.1	1005.82	-29744.8	0.000000	0.000000	6.130772	0.023290	NaN	0.000000	0.001625	0.001733	28.0802	0.054925	0.001999	27.4721	170.392	-164.579	-0.050700	0.129203	-0.939459	-0.940757	0.023290	27.4721	-0.940095	-3.535230E+12	-6.588011E-15	NaN
462	1.000000	0.138513	7.36958e+06	-53989.1	1005.82	-29744.8	0.000000	0.000000	6.138782	-0.009637	NaN	0.000000	0.001635	0.001722	28.0799	0.052912	0.002055	25.7488	147.408	-165.329	-0.052291	0.137199	-0.931448	-0.932762	-0.009637	25.7488	-0.931167	-2.678835E+12	3.597530E-15	NaN
462	1.000000	0.146517	7.36958e+06	-53989.1	1005.82	-29744.8	0.000000	0.000000	6.146787	-0.005029	NaN	0.000000	0.001587	0.001746	28.0801	0.098688	0.001941	50.8389	-33.4337	-163.152	-0.034944	0.145161	-0.923443	-0.924799	-0.005029	50.8389	-0.923369	-2.102278E+12	2.392393E-15	NaN
462	1.000000	0.154503	7.36958e+06	-53989.1	1005.82	-29744.8	0.000000	0.000000	6.154771	-0.047147	NaN	0.000000	0.001557	0.001734	28.0798	0.096978	0.002079	46.64	-94.8668	-165.523	-0.072107	0.153151	-0.915457	-0.916809	-0.047147	46.64	-0.914699	-1.605576E+12	2.936425E-14	NaN
462	1.000000	0.162487	7.36958e+06	-53989.1	1005.82	-29744.8	0.000000	0.000000	6.162758	0.035290	NaN	0.000000	0.001571	0.001731	28.08	0.049697	0.001922	25.8637	91.8535	-167.321	-0.080166	0.161238	-0.907474	-0.908723	0.035290	25.8637	-0.908497	-1.323921E+12	-2.665567E-14	NaN
462	1.000000	0.170520	7.36958e+06	-53989.1	1005.82	-29744.8	0.000000	0.000000	6.170791	0.024752	NaN	0.000000	0.001569	0.001730	28.0803	0.085856	0.001881	45.6511	-89.8797	-166.363	-0.080679	0.169221	-0.899441	-0.900739	0.024752	45.6511	-0.899847	-1.011586E+12	-2.446808E-14	NaN
462	1.000000	0.178523	7.36958e+06	-53989.1	1005.82	-29744.8	0.000000	0.000000	6.178795	0.029731	NaN	0.000000	0.001605	0.001716	28.0802	0.038810	0.001937	20.0331	157.921	-166.415	-0.011706	0.177216	-0.891437	-0.892745	0.029731	20.0331	-0.892550	-8.060916E+11	-3.688333E-14	NaN
462	1.000000	0.186529	7.36958e+06	-53989.1	1005.82	-29744.8	0.000000	0.000000	6.186800	0.030817	NaN	0.000000	0.001596	0.001742	28.0803	0.064683	0.001993	32.4525	-84.5852	-165.06	0.002881	0.185244	-0.883431	-0.884717	0.030817	32.4525	-0.884144	-6.204975E+11	-4.966506E-14	NaN
462	1.000000	0.194507	7.36958e+06	-53989.1	1005.82	-29744.8	0.000000	0.000000	6.194776	-0.030990	NaN	0.000000	0.001633	0.001757	28.0801	0.124657	0.002131	58.4937	30.0706	-166.66	-0.014061	0.193202	-0.875453	-0.876759	-0.030990	58.4937	-0.875056	-4.675613E+11	6.627960E-14	NaN
462	1.000000	0.202559	7.36958e+06	-53989.1	1005.82	-29744.8	0.000000	0.000000	6.202831	0.045848	NaN	0.000000	0.001587	0.001732	28.0804	0.040920	0.002011	20.3492	-147.534	-164.917	0.006017	0.201208	-0.867401	-0.868752	0.045848	20.3492	-0.869091	-3.882806E+11	-1.180806E-13	NaN
462	1.000000	0.210551	7.36958e+06	-53989.1	1005.82	-29744.8	0.000000	0.000000	6.210820	-0.007650	NaN	0.000000	0.001603	0.001709	28.0803	0.043814	0.002070	21.166	-143.803	-164.184	-0.030096	0.209271	-0.859410	-0.860689	-0.007650	21.166	-0.859139	-2.847486E+11	2.686431E-14	NaN
462	1.000000	0.218539	7.36958e+06	-53989.1	1005.82	-29744.8	0.000000	0.000000	6.218810	0.003259	NaN	0.000000	0.001583	0.001772	28.0813	0.018984	0.001966	9.654774	-146.499	-168.31	0.075526	0.217246	-0.851421	-0.852714	0.003259	9.654774	-0.851674	-2.256345E+11	-1.444482E-14	NaN
462	1.000000	0.226531	7.36958e+06	-53989.1	1005.82	-29744.8	0.000000	0.000000	6.226802	0.031999	NaN	0.000000	0.001569	0.001723	28.0816	0.066530	0.002010	33.0988	167.424	-164.398	0.058463	0.225212	-0.843429	-0.844749	0.031999	33.0988	-0.844154	-1.784719E+11	-1.792968E-13	NaN
462	1.000000	0.234555	7.36958e+06	-53989.1	1005.82	-29744.8	0.000000	0.000000	6.234825	-0.000909	NaN	0.000000	0.001604	0.001733	28.0815	0.095691	0.002006	47.6957	-152.691	-168.422	0.047425	0.233231	-0.835405	-0.836729	-0.000909	47.6957	-0.835391	-1.357817E+11	6.695784E-15	NaN
462	1.000000	0.242553	7.36958e+06	-53989.1	1005.82	-29744.8	0.000000	0.000000	6.242824	0.022735	NaN	0.000000	0.001618	0.001731	28.0812	0.088223	0.001924	45.8589	173.434	-162.759	-0.091896	0.241238	-0.827407	-0.828722	0.022735	45.8589	-0.827779	-1.070721E+11	-2.123312E-13	NaN
462	1.000000	0.250564	7.36958e+06	-53989.1	1005.82	-29744.8	0.000000	0.000000	6.250835	0.019799	NaN	0.000000	0.001608	0.001737	28.0811	0.149464	0.002065	72.3689	118.988	-164.68	0.106759	0.249264	-0.819396	-0.820696	0.019799	72.3689	-0.819601	-8.294769E+10	-2.386869E-13	NaN
462	1.000000	0.258578	7.36958e+06	-53989.1	1005.82	-29744.8	0.000000	0.000000	6.258847	-0.020043	NaN	0.000000	0.001598	0.001714	28.0813	0.046036	0.002126	21.6587	70.4368	-167.717	-0.050239	0.257260	-0.811382	-0.812700	-0.020043	21.6587	-0.810688	-6.279225E+10	3.192020E-13	NaN
462	1.000000	0.266553	7.36958e+06	-53989.1	1005.82	-29744.8	0.000000	0.000000	6.266824	0.019702	NaN	0.000000	0.001604	0.001705	28.0813	0.032089	0.001949	16.4686	-123.007	-167.274	-0.030322	0.265254	-0.803408	-0.804707	0.019702	16.4686	-0.804305	-5.143899E+10	-3.830233E-13	NaN
462	1.000000	0.274592	7.36958e+06	-53989.1	1005.82	-29744.8	0.000000	0.000000	6.274863	0.029432	NaN	0.000000	0.001609	0.001694	28.0813	0.041351	0.001866	22.1587	-107.942	-168.625	0.089395	0.273250	-0.795368	-0.796710	0.029432	22.1587	-0.796365	-4.013373E+10	-7.333482E-13	NaN
462	1.000000	0.282554	7.36958e+06	-53989.1	1005.82	-29744.8	0.000000	0.000000	6.282823	-0.011388	NaN	0.000000	0.001629	0.001744	28.0811	0.090784	0.002082	43.5978	-67.5369	-166.545	-0.001625	0.281290	-0.787407	-0.788670	-0.011388	43.5978	-0.787211	-3.014369E+10	3.777888E-13	NaN
462	1.000000	0.290573	7.36958e+06	-53989.1	1005.82	-29744.8	0.000000	0.000000	6.290843	0.012266	NaN	0.000000	0.001578	0.001734	28.0812	0.138410	0.002041	67.8083	-106.755	-166.012	-0.028171	0.289298	-0.779388	-0.780662	0.012266	67.8083	-0.779523	-2.370025E+10	-5.175556E-13	NaN
462	1.000000	0.298555	7.36958e+06	-53989.1	1005.82	-29744.8	0.000000	0.000000	6.298829	0.101703	NaN	0.000000	0.001626	0.001710	28.0817	0.029864	0.002006	14.8852	-41.906	-167.888	-0.001537	0.297245	-0.771406	-0.772716	0.101703	14.8852	-0.776530	-2.158115E+10	-4.712598E-12	NaN
462	1.000000	0.306586	7.36958e+06	-53989.1	1005.82	-29744.8	0.000000	0.000000	6.306854	-0.030416	NaN	0.000000	0.001605	0.001739	28.0813	0.027046	0.002011	13.4466	80.9593	-166.196	0.027918	0.305280	-0.763375	-0.764680	-0.030416	13.4466	-0.761678	-1.355607E+10	2.243687E-12	NaN
462	1.000000	0.314584	7.36958e+06	-53989.1	1005.82	-29744.8	0.000000	0.000000	6.314851	-0.067382	NaN	0.000000	0.001608	0.001740	28.0814	0.116836	0.001973	59.2189	-112.609	-168.941	-0.030505	0.313314	-0.755377	-0.756647	-0.067382	59.2189	-0.754523	-1.083388E+10	6.219530E-12	NaN
462	1.000000	0.322608	7.36958e+06	-53989.1	1005.82	-29744.8	0.000000	0.000000	6.322877	-0.014978	NaN	0.000000	0.001612	0.001749	28.0812	0.111684	0.002069	53.9864	-51.6478	-167.337	-0.011276	0.321226	-0.747352	-0.748734	-0.014978	53.9864	-0.747144	-8.596927E+9	1.742268E-12	NaN
462	1.000000	0.330604	7.36958e+06	-53989.1	1005.82	-29744.8	0.000000	0.000000	6.330874	0.000523	NaN	0.000000	0.001582	0.001748	28.0812	0.109024	0.002103	51.8516	-68.7599	-167.417	0.013427	0.329265	-0.739356	-0.740695	0.000523	51.8516	-0.739364	-6.735840E+9	-7.768990E-14	NaN
462	1.000000	0.338594	7.36958e+06	-53989.1	1005.82	-29744.8	0.000000	0.000000	6.338862	-0.034971	NaN	0.000000	0.001590	0.001751	28.0813	0.025443	0.002013	12.6365	41.5526	-169.133	-0.027457	0.337308	-0.731367	-0.732653	-0.034971	12.6365	-0.729291	-4.910715E+9	7.121431E-12	NaN
462	1.000000	0.346590	7.36958e+06	-53989.1	1005.82	-29744.8	0.000000	0.000000	6.346860	0.001139	NaN	0.000000	0.001588	0.001768	28.0813	0.052258	0.002090	25.0095	-61.2877	-165.383	-0.045947	0.345239	-0.723370	-0.724721	0.001139	25.0095	-0.723405	-4.082238E+9	-2.790949E-13	NaN
462	1.000000	0.354606	7.36958e+06	-53989.1	1005.82	-29744.8	0.000000	0.000000	6.354877	0.025438	NaN	0.000000	0.001608	0.001758	28.0807	0.041922	0.002031	20.6422	-29.0822	-165.944	-0.038894	0.353288	-0.715354	-0.716673	0.025438	20.6422	-0.716279	-3.263728E+9	-7.794119E-12	NaN
462	1.000000	0.362608	7.36958e+06	-53989.1	1005.82	-29744.8	0.000000	0.000000	6.362875	-0.064208	NaN	0.000000	0.001644	0.001778	28.0799	0.029172	0.002081	14.021	-165.262	-162.474	-0.075057	0.361302	-0.707353	-0.708658	-0.064208	14.021	-0.703918	-2.213250E+9	2.901078E-11	NaN
462	1.000000	0.370584	7.36958e+06	-53989.1	1005.82	-29744.8	0.000000	0.000000	6.370852	-0.050611	NaN	0.000000	0.001642	0.001778	28.08	0.070771	0.002107	33.5933	-37.9588	-165.226	-0.067103	0.369312	-0.699376	-0.700649	-0.050611	33.5933	-0.698246	-1.851750E+9	2.733135E-11	NaN
462	1.000000	0.378650	7.36958e+06	-53989.1	1005.82	-29744.8	0.000000	0.000000	6.378920	0.010594	NaN	0.000000	0.001625	0.001771	28.0802	0.106909	0.001938	55.1659	106.572	-164.021	-0.090718	0.377292	-0.691311	-0.692668	0.010594	55.1659	-0.691455	-1.495538E+9	-7.084072E-12	NaN
462	1.000000	0.386620	7.36958e+06	-53989.1	1005.82	-29744.8	0.000000	0.000000	6.386891	0.019221	NaN	0.000000	0.001609	0.001783	28.0801	0.137761	0.001969	69.9778	-46.5048	-164.643	0.023313	0.385329	-0.683340	-0.684632	0.019221	69.9778	-0.683546	-1.166000E+9	-1.648442E-11	NaN
462	1.000000	0.394597	7.36958e+06	-53989.1	1005.82	-29744.8	0.000000	0.000000	6.394866	-0.025585	NaN	0.000000	0.001617	0.001733	28.0803	0.037824	0.002018	18.7453	123.915	-165.166	0.071795	0.393343	-0.675363	-0.676618	-0.025585	18.7453	-0.674339	-8.725111E+8	2.932304E-11	NaN
462	1.000000	0.402625	7.36958e+06	-53989.1	1005.82	-29744.8	0.000000	0.000000	6.402893	-0.042716	NaN	0.000000	0.001585	0.001766	28.08	0.059535	0.002054	28.9885	171.98	-167.422	0.011556	0.401345	-0.667335	-0.668615	-0.042716	28.9885	-0.666230	-6.757520E+8	6.321196E-11	NaN
462	1.000000	0.410646	7.36958e+06	-53989.1	1005.82	-29744.8	0.000000	0.000000	6.410916	0.008867	NaN	0.000000	0.001598	0.001745	28.0799	0.057659	0.001989	28.9887	-121.456	-164.646	0.044714	0.409326	-0.659315	-0.660634	0.008867	28.9887	-0.659544	-5.472995E+8	-1.620202E-11	NaN
462	1.000000	0.418645	7.36958e+06	-53989.1	1005.82	-29744.8	0.000000	0.000000	6.418916	0.028416	NaN	0.000000	0.001593	0.001772	28.08	0.076949	0.001962	39.2179	-151.53	-167.178	0.033869	0.417348	-0.651315	-0.652613	0.028416	39.2179	-0.651859	-4.294530E+8	-6.616852E-11	NaN
462	1.000000	0.426630	7.36958e+06	-53989.1	1005.82	-29744.8	0.000000	0.000000	6.426902	0.064367	NaN	0.000000	0.001615	0.001730	28.08	0.165031	0.002094	78.7974	-104.054	-165.005	0.037077	0.425340	-0.643331	-0.644620	0.064367	78.7974	-0.643943	-3.344926E+8	-1.924312E-10	NaN
462	1.000000	0.434634	7.36958e+06	-53989.1	1005.82	-29744.8	0.000000	0.000000	6.434901	-0.069870	NaN	0.000000	0.001606	0.001782	28.0802	0.053576	0.001980	27.0532	-135.265	-166.314	-0.061642	0.433370	-0.635327	-0.636590	-0.069870	27.0532	-0.633390	-2.396443E+8	2.915560E-10	NaN
462	1.000000	0.442649	7.36958e+06	-53989.1	1005.82	-29744.8	0.000000	0.000000	6.442919	-0.010962	NaN	0.000000	0.001614	0.001777	28.0798	0.069430	0.002050	33.875	114.913	-167.409	-0.050827	0.441303	-0.627311	-0.628658	-0.010962	33.875	-0.627069	-1.962293E+8	5.586509E-11	NaN
462	1.000000	0.450654	7.36958e+06	-53989.1	1005.82	-29744.8	0.000000	0.000000	6.450923	-0.035704	NaN	0.000000	0.001579	0.001760	28.0801	0.120518	0.001952	61.7396	-162.438	-169.517	-0.055874	0.449379	-0.619306	-0.620582	-0.035704	61.7396	-0.618872	-1.514030E+8	2.358221E-10	NaN
462	1.000000	0.458663	7.36958e+06	-53989.1	1005.82	-29744.8	0.000000	0.000000	6.458936	0.072830	NaN	0.000000	0.001615	0.001807	28.08	0.105573	0.002025	52.1346	134.895	-163.784	-0.011201	0.457365	-0.611297	-0.612595	0.072830	52.1346	-0.612345	-1.231329E+8	-5.914778E-10	NaN
462	1.000000	0.466671	7.36958e+06	-53989.1	1005.82	-29744.8	0.000000	0.000000	6.466942	0.032939	NaN	0.000000	0.001603	0.001757	28.0799	0.066392	0.001875	35.4124	-121.24	-164.72	0.030682	0.465357	-0.603289	-0.604603	0.032939	35.4124	-0.603987	-9.448406E+7	-3.486150E-10	NaN
462	1.000000	0.474637	7.36958e+06	-53989.1	1005.82	-29744.8	0.000000	0.000000	6.474907	-0.003428	NaN	0.000000	0.001581	0.001741	28.08	0.045188	0.001952	23.1534	13.4173	-163.666	0.046913	0.473308	-0.595324	-0.596652	-0.003428	23.1534	-0.595213	-7.153362E+7	4.792179E-11	NaN
462	1.000000	0.482668	7.36958e+06	-53989.1	1005.82	-29744.8	0.000000	0.000000	6.482939	0.027626	NaN	0.000000	0.001518	0.001777	28.0801	0.045152	0.002186	20.6593	154.87	-165.983	0.027583	0.481321	-0.587293	-0.588640	0.027626	20.6593	-0.588296	-5.743362E+7	-4.810152E-10	NaN
462	1.000000	0.490677	7.36958e+06	-53989.1	1005.82	-29744.8	0.000000	0.000000	6.490946	-0.020769	NaN	0.000000	0.001512	0.001758	28.0811	0.097593	0.001945	50.1778	165.739	-164.622	0.004938	0.489336	-0.579283	-0.580624	-0.020769	50.1778	-0.578973	-4.271203E+7	4.862500E-10	NaN
462	1.000000	0.498687	7.36958e+06	-53989.1	1005.82	-29744.8	0.000000	0.000000	6.498959	0.043328	NaN	0.000000	0.001533	0.001771	28.0813	0.150457	0.001968	76.4709	-30.5566	-167.808	0.078760	0.497393	-0.571274	-0.572568	0.043328	76.4709	-0.571698	-3.389209E+7	-1.278408E-9	NaN
462	1.000000	0.506670	7.36958e+06	-53989.1	1005.82	-29744.8	0.000000	0.000000	6.506938	-0.067441	NaN	0.000000	0.001547	0.001754	28.0813	0.074225	0.002081	35.6761	61.1819	-165.472	-0.016326	0.505350	-0.563290	-0.564610	-0.067441	35.6761	-0.561872	-2.478987E+7	2.720496E-9	NaN
462	1.000000	0.514677	7.36958e+06	-53989.1	1005.82	-29744.8	0.000000	0.000000	6.514948	0.024995	NaN	0.000000	0.001537	0.001721	28.081	0.114007	0.001852	61.5499	60.9494	-167.413	-0.008098	0.513384	-0.555283	-0.556576	0.024995	61.5499	-0.555588	-2.029187E+7	-1.231773E-9	NaN
462	1.000000	0.522660	7.36958e+06	-53989.1	1005.82	-29744.8	0.000000	0.000000	6.522930	-0.003884	NaN	0.000000	0.001556	0.001730	28.0812	0.027353	0.001958	13.9681	-86.8176	-168.42	0.001281	0.521377	-0.547300	-0.548584	-0.003884	13.9681	-0.547092	-1.547635E+7	2.509443E-10	NaN
462	1.000000	0.530674	7.36958e+06	-53989.1	1005.82	-29744.8	0.000000	0.000000	6.530945	0.014660	NaN	0.000000	0.001540	0.001766	28.0811	0.100644	0.002030	49.5758	-169.97	-164.408	0.057882	0.529415	-0.539286	-0.540546	0.014660	49.5758	-0.539508	-1.214877E+7	-1.206718E-9	NaN
462	1.000000	0.538651	7.36958e+06	-53989.1	1005.82	-29744.8	0.000000	0.000000	6.538919	-0.036096	NaN	0.000000	0.001546	0.001731	28.0811	0.047596	0.001922	24.759	-153.374	-165.141	0.012916	0.537408	-0.531310	-0.532552	-0.036096	24.759	-0.530216	-9.02768e+06	3.998342E-9	NaN
462	1.000000	0.546673	7.36958e+06	-53989.1	1005.82	-29744.8	0.000000	0.000000	6.546940	-0.089862	NaN	0.000000	0.001539	0.001719	28.0817	0.034607	0.001994	17.3571	138.147	-166.709	-0.015282	0.545364	-0.523287	-0.524596	-0.089862	17.3571	-0.519404	-6.38715e+06	1.406925E-8	NaN
462	1.000000	0.554706	7.36958e+06	-53989.1	1005.82	-29744.8	0.000000	0.000000	6.554975	-0.037134	NaN	0.000000	0.001518	0.001749	28.0813	0.074853	0.001938	38.6229	83.1156	-164.755	0.007712	0.553376	-0.515254	-0.516585	-0.037134	38.6229	-0.514533	-5.46429e+06	6.795794E-9	NaN
462	1.000000	0.562687	7.36958e+06	-53989.1	1005.82	-29744.8	0.000000	0.000000	6.562957	-0.001214	NaN	0.000000	0.001543	0.001731	28.0814	0.068689	0.002033	33.7887	-7.093610	-165.069	0.003804	0.561377	-0.507273	-0.508584	-0.001214	33.7887	-0.507246	-4.32566e+06	2.806829E-10	NaN
462	1.000000	0.570719	7.36958e+06	-53989.1	1005.82	-29744.8	0.000000	0.000000	6.570991	0.037929	NaN	0.000000	0.001522	0.001736	28.0814	0.020525	0.001990	10.3163	-38.2418	-167.015	0.002867	0.569415	-0.499241	-0.500545	0.037929	10.3163	-0.501999	-3.6551e+06	-1.037698E-8	NaN
462	1.000000	0.578691	7.36958e+06	-53989.1	1005.82	-29744.8	0.000000	0.000000	6.578962	0.002720	NaN	0.000000	0.001542	0.001728	28.0813	0.118932	0.001951	60.9444	132.194	-161.562	-0.029614	0.577413	-0.491269	-0.492547	0.002720	60.9444	-0.491302	-2.59174e+06	-1.049398E-9	NaN
462	1.000000	0.586710	7.36958e+06	-53989.1	1005.82	-29744.8	0.000000	0.000000	6.586979	-0.042537	NaN	0.000000	0.001543	0.001742	28.0816	0.048731	0.001950	24.9875	31.4189	-164.953	0.007155	0.585429	-0.483250	-0.484531	-0.042537	24.9875	-0.481973	-1.91932e+06	2.216267E-8	NaN
462	1.000000	0.594730	7.36958e+06	-53989.1	1005.82	-29744.8	0.000000	0.000000	6.595001	0.013195	NaN	0.000000	0.001535	0.001712	28.0812	0.053124	0.001963	27.0632	14.4241	-168.279	0.031901	0.593385	-0.475230	-0.476575	0.013195	27.0632	-0.475596	-1.56261e+06	-8.444453E-9	NaN
462	1.000000	0.602728	7.36958e+06	-53989.1	1005.82	-29744.8	0.000000	0.000000	6.602997	-0.004627	NaN	0.000000	0.001564	0.001739	28.0814	0.069660	0.002001	34.8177	178.098	-164.587	-0.035040	0.601457	-0.467233	-0.468503	-0.004627	34.8177	-0.467133	-1.18901e+06	3.891057E-9	NaN
462	1.000000	0.610683	7.36958e+06	-53989.1	1005.82	-29744.8	0.000000	0.000000	6.610953	-0.007035	NaN	0.000000	0.001514	0.001741	28.0812	0.092072	0.001957	47.0475	-82.9287	-164.12	-0.019271	0.609397	-0.459277	-0.460564	-0.007035	47.0475	-0.459165	-918928	7.655983E-9	NaN
462	1.000000	0.618694	7.36958e+06	-53989.1	1005.82	-29744.8	0.000000	0.000000	6.618966	0.039941	NaN	0.000000	0.001498	0.001751	28.0813	0.052940	0.002132	24.8301	19.077	-163.774	0.076614	0.617380	-0.451266	-0.452580	0.039941	24.8301	-0.452472	-739863	-5.398451E-8	NaN
462	1.000000	0.626700	7.36958e+06	-53989.1	1005.82	-29744.8	0.000000	0.000000	6.626970	-0.001522	NaN	0.000000	0.001540	0.001774	28.081	0.041640	0.002069	20.125	-152.048	-165.942	-0.024590	0.625367	-0.443260	-0.444593	-0.001522	20.125	-0.443203	-547722	2.778048E-9	NaN
462	1.000000	0.634731	7.36958e+06	-53989.1	1005.82	-29744.8	0.000000	0.000000	6.634998	-0.067474	NaN	0.000000	0.001548	0.001767	28.0805	0.040217	0.001943	20.7005	42.3799	-164.533	-0.062517	0.633431	-0.435230	-0.436529	-0.067474	20.7005	-0.432785	-390346	1.728562E-7	NaN
462	1.000000	0.642741	7.36958e+06	-53989.1	1005.82	-29744.8	0.000000	0.000000	6.643011	0.000740	NaN	0.000000	0.001548	0.001752	28.082	0.082258	0.002110	38.9793	109.6	-168.216	0.028937	0.641353	-0.427219	-0.428607	0.000740	38.9793	-0.427234	-325770	-2.270468E-9	NaN
462	1.000000	0.650743	7.36958e+06	-53989.1	1005.82	-29744.8	0.000000	0.000000	6.651013	-0.010239	NaN	0.000000	0.001548	0.001747	28.0799	0.088648	0.001946	45.5605	82.1046	-162.531	-0.001726	0.649455	-0.419217	-0.420505	-0.010239	45.5605	-0.419049	-249415	4.105072E-8	NaN
462	1.000000	0.658728	7.36958e+06	-53989.1	1005.82	-29744.8	0.000000	0.000000	6.659001	0.059582	NaN	0.000000	0.001571	0.001737	28.0799	0.032376	0.001895	17.084	-66.996	-165.222	-0.021060	0.657395	-0.411232	-0.412565	0.059582	17.084	-0.413848	-210421	-2.831559E-7	NaN
462	1.000000	0.666740	7.36958e+06	-53989.1	1005.82	-29744.8	0.000000	0.000000	6.667011	0.028256	NaN	0.000000	0.001569	0.001739	28.0799	0.067850	0.002002	33.8899	-34.5863	-165.482	0.075932	0.665410	-0.403221	-0.404550	0.028256	33.8899	-0.403846	-151639	-1.863370E-7	NaN
462	1.000000	0.674769	7.36958e+06	-53989.1	1005.82	-29744.8	0.000000	0.000000	6.675038	-0.009979	NaN	0.000000	0.001563	0.001752	28.08	0.101210	0.002079	48.6758	127.353	-164.622	-0.057698	0.673388	-0.395192	-0.396572	-0.009979	48.6758	-0.395038	-113547	8.788025E-8	NaN
462	1.000000	0.682751	7.36958e+06	-53989.1	1005.82	-29744.8	0.000000	0.000000	6.683018	-0.071462	NaN	0.000000	0.001560	0.001736	28.0803	0.096046	0.002055	46.7289	-88.1005	-167.017	-0.026434	0.681418	-0.387209	-0.388542	-0.071462	46.7289	-0.386062	-84489	8.458117E-7	NaN
462	1.000000	0.690750	7.36958e+06	-53989.1	1005.82	-29744.8	0.000000	0.000000	6.691020	-0.012527	NaN	0.000000	0.001569	0.001740	28.0802	0.037603	0.002000	18.8009	-129.438	-166.133	0.026434	0.689426	-0.379210	-0.380534	-0.012527	18.8009	-0.378710	-66279.2	1.890040E-7	NaN
462	1.000000	0.698757	7.36958e+06	-53989.1	1005.82	-29744.8	0.000000	0.000000	6.699026	-0.033106	NaN	0.000000	0.001515	0.001752	28.0805	0.054054	0.001961	27.5627	96.1155	-166.136	-0.117320	0.697413	-0.371203	-0.372548	-0.033106	27.5627	-0.370303	-50174.6	6.598103E-7	NaN
462	1.000000	0.706749	7.36958e+06	-53989.1	1005.82	-29744.8	0.000000	0.000000	6.707018	-0.010083	NaN	0.000000	0.001508	0.001751	28.0803	0.060300	0.002002	30.1156	25.2427	-165.356	0.081236	0.705473	-0.363212	-0.364487	-0.010083	30.1156	-0.362960	-39320.2	2.564449E-7	NaN
462	1.000000	0.714757	7.36958e+06	-53989.1	1005.82	-29744.8	0.000000	0.000000	6.715029	0.028537	NaN	0.000000	0.001516	0.001756	28.0809	0.041892	0.002051	20.4243	51.0406	-166.057	-0.056399	0.713450	-0.355203	-0.356510	0.028537	20.4243	-0.356251	-31449.2	-9.074094E-7	NaN
462	1.000000	0.722743	7.36958e+06	-53989.1	1005.82	-29744.8	0.000000	0.000000	6.723014	0.018673	NaN	0.000000	0.001561	0.001749	28.0801	0.046007	0.001874	24.5551	148.035	-168.718	0.003416	0.721470	-0.347217	-0.348490	0.018673	24.5551	-0.347787	-23706.7	-7.876632E-7	NaN
462	1.000000	0.730761	7.36958e+06	-53989.1	1005.82	-29744.8	0.000000	0.000000	6.731032	0.034980	NaN	0.000000	0.001540	0.001715	28.0801	0.031007	0.001990	15.5801	28.6397	-164.894	-0.052523	0.729482	-0.339199	-0.340479	0.034980	15.5801	-0.340883	-18811.6	-1.859478E-6	NaN
462	1.000000	0.738772	7.36958e+06	-53989.1	1005.82	-29744.8	0.000000	0.000000	6.739043	0.012897	NaN	0.000000	0.001529	0.001750	28.0804	0.079481	0.002115	37.5733	-77.5175	-166.771	0.033406	0.737494	-0.331188	-0.332466	0.012897	37.5733	-0.331446	-13696.7	-9.415784E-7	NaN
462	1.000000	0.746756	7.36958e+06	-53989.1	1005.82	-29744.8	0.000000	0.000000	6.747026	0.010011	NaN	0.000000	0.001539	0.001721	28.0801	0.096823	0.001931	50.1385	8.274602	-165.791	-0.095351	0.745445	-0.323205	-0.324515	0.010011	50.1385	-0.323354	-10422.4	-9.604814E-7	NaN
462	1.000000	0.754748	7.36958e+06	-53989.1	1005.82	-29744.8	0.000000	0.000000	6.755018	0.013015	NaN	0.000000	0.001520	0.001783	28.0802	0.085910	0.002041	42.0979	165.177	-165.445	-0.023083	0.753462	-0.315213	-0.316499	0.013015	42.0979	-0.315445	-7970.92	-1.632802E-6	NaN
462	1.000000	0.762793	7.36958e+06	-53989.1	1005.82	-29744.8	0.000000	0.000000	6.763065	0.044203	NaN	0.000000	0.001550	0.001757	28.0804	0.142566	0.001925	74.0632	35.7628	-162.692	-0.018221	0.761452	-0.307168	-0.308509	0.044203	74.0632	-0.307615	-6105.74	-7.239501E-6	NaN
462	1.000000	0.770763	7.36958e+06	-53989.1	1005.82	-29744.8	0.000000	0.000000	6.771034	0.009956	NaN	0.000000	0.001535	0.001730	28.0814	0.094622	0.001994	47.4633	-167.365	-164.401	-0.006455	0.769458	-0.299197	-0.300502	0.009956	47.4633	-0.299354	-4602.82	-2.163063E-6	NaN
462	1.000000	0.778813	7.36958e+06	-53989.1	1005.82	-29744.8	0.000000	0.000000	6.779082	-0.029718	NaN	0.000000	0.001530	0.001760	28.0815	0.123189	0.001939	63.5183	18.5181	-163.549	0.003743	0.777446	-0.291147	-0.292515	-0.029718	63.5183	-0.290796	-3429.47	8.665591E-6	NaN
462	1.000000	0.786775	7.36958e+06	-53989.1	1005.82	-29744.8	0.000000	0.000000	6.787047	0.037629	NaN	0.000000	0.001573	0.001723	28.0813	0.051866	0.002139	24.2508	21.389	-164.903	0.108094	0.785440	-0.283185	-0.284520	0.037629	24.2508	-0.284349	-2744.56	-1.371042E-5	NaN
462	1.000000	0.794816	7.36958e+06	-53989.1	1005.82	-29744.8	0.000000	0.000000	6.795086	-0.008214	NaN	0.000000	0.001519	0.001752	28.0816	0.020575	0.002061	9.981825	167.091	-166.948	0.006894	0.793490	-0.275144	-0.276470	-0.008214	9.981825	-0.274527	-1950.9	4.210393E-6	NaN
462	1.000000	0.802793	7.36958e+06	-53989.1	1005.82	-29744.8	0.000000	0.000000	6.803062	-0.012230	NaN	0.000000	0.001615	0.001754	28.0812	0.038138	0.002000	19.0711	38.9497	-166.486	0.004606	0.801471	-0.267167	-0.268489	-0.012230	19.0711	-0.266687	-1482.9	8.247161E-6	NaN
462	1.000000	0.810801	7.36958e+06	-53989.1	1005.82	-29744.8	0.000000	0.000000	6.811072	0.012333	NaN	0.000000	0.001534	0.001692	28.0814	0.074875	0.002061	36.3349	-3.712821	-164.889	0.057467	0.809520	-0.259159	-0.260440	0.012333	36.3349	-0.259414	-1147.96	-1.074307E-5	NaN
462	1.000000	0.818795	7.36958e+06	-53989.1	1005.82	-29744.8	0.000000	0.000000	6.819064	-0.031936	NaN	0.000000	0.001549	0.001752	28.0813	0.102506	0.001912	53.5986	-121.169	-166.586	0.023959	0.817468	-0.251165	-0.252492	-0.031936	53.5986	-0.250719	-843.482	3.786186E-5	NaN
462	1.000000	0.826814	7.36958e+06	-53989.1	1005.82	-29744.8	0.000000	0.000000	6.827084	-0.005634	NaN	0.000000	0.001519	0.001710	28.081	0.033964	0.002032	16.7168	138.479	-172.47	-0.108551	0.825474	-0.243147	-0.244486	-0.005634	16.7168	-0.242894	-637.801	8.833451E-6	NaN
462	1.000000	0.834777	7.36958e+06	-53989.1	1005.82	-29744.8	0.000000	0.000000	6.835047	-0.013811	NaN	0.000000	0.001539	0.001712	28.0815	0.058590	0.002090	28.0326	-106.263	-164.411	-0.046350	0.833453	-0.235183	-0.236508	-0.013811	28.0326	-0.234814	-476.783	2.896637E-5	NaN
462	1.000000	0.842835	7.36958e+06	-53989.1	1005.82	-29744.8	0.000000	0.000000	6.843103	-0.044427	NaN	0.000000	0.001562	0.001722	28.081	0.010973	0.002039	5.381401	37.5553	-167.994	-0.026920	0.841505	-0.227125	-0.228456	-0.044427	5.381401	-0.220934	-287.466	0.000155	NaN
462	1.000000	0.850790	7.36958e+06	-53989.1	1005.82	-29744.8	0.000000	0.000000	6.851061	0.029065	NaN	0.000000	0.001547	0.001702	28.0808	0.055877	0.001989	28.0897	-65.8695	-167.204	-0.049362	0.849559	-0.219170	-0.220401	0.029065	28.0897	-0.219946	-277.215	-0.000105	NaN
462	1.000000	0.858813	7.36958e+06	-53989.1	1005.82	-29744.8	0.000000	0.000000	6.859083	-0.005368	NaN	0.000000	0.001521	0.001721	28.0809	0.098280	0.002018	48.713	-149.16	-166.091	0.030940	0.857500	-0.211147	-0.212460	-0.005368	48.713	-0.211065	-199.548	2.689998E-5	NaN
462	1.000000	0.866828	7.36958e+06	-53989.1	1005.82	-29744.8	0.000000	0.000000	6.867098	-0.001543	NaN	0.000000	0.001579	0.001712	28.081	0.056458	0.002186	25.8284	26.6062	-167.632	-0.010478	0.865494	-0.203132	-0.204466	-0.001543	25.8284	-0.203087	-148.018	1.042658E-5	NaN
462	1.000000	0.874819	7.36958e+06	-53989.1	1005.82	-29744.8	0.000000	0.000000	6.875091	0.027006	NaN	0.000000	0.001571	0.001706	28.0811	0.070921	0.002055	34.508	122.182	-168.287	0.025929	0.873465	-0.195141	-0.196496	0.027006	34.508	-0.195728	-112.009	-0.000241	NaN
462	1.000000	0.882820	7.36958e+06	-53989.1	1005.82	-29744.8	0.000000	0.000000	6.883088	-0.037596	NaN	0.000000	0.001571	0.001742	28.0809	0.051727	0.002091	24.7415	-99.4815	-166.689	-0.016368	0.881509	-0.187141	-0.188451	-0.037596	24.7415	-0.186001	-77.0886	0.000488	NaN
462	1.000000	0.890816	7.36958e+06	-53989.1	1005.82	-29744.8	0.000000	0.000000	6.891083	-0.071826	NaN	0.000000	0.001604	0.001694	28.0812	0.078153	0.001950	40.0864	-17.5146	-163.204	0.018834	0.889531	-0.179145	-0.180429	-0.071826	40.0864	-0.177801	-55.9721	0.001283	NaN
462	1.000000	0.898831	7.36958e+06	-53989.1	1005.82	-29744.8	0.000000	0.000000	6.899100	-0.023331	NaN	0.000000	0.001582	0.001682	28.0806	0.047184	0.001978	23.8536	122.664	-167.597	-0.024223	0.897567	-0.171130	-0.172393	-0.023331	23.8536	-0.170396	-41.7341	0.000559	NaN
462	1.000000	0.906822	7.36958e+06	-53989.1	1005.82	-29744.8	0.000000	0.000000	6.907096	0.086135	NaN	0.000000	0.001581	0.001728	28.0798	0.066356	0.001976	33.5882	175.168	-166.721	0.008838	0.905506	-0.163138	-0.164455	0.086135	33.5882	-0.165062	-33.6814	-0.002557	NaN
462	1.000000	0.914861	7.36958e+06	-53989.1	1005.82	-29744.8	0.000000	0.000000	6.915129	-0.059829	NaN	0.000000	0.001592	0.001738	28.0798	0.072335	0.001980	36.5399	-156.842	-165.206	0.059312	0.913500	-0.155099	-0.156461	-0.059829	36.5399	-0.153871	-21.2931	0.002810	NaN
462	1.000000	0.922840	7.36958e+06	-53989.1	1005.82	-29744.8	0.000000	0.000000	6.923110	0.015070	NaN	0.000000	0.001547	0.001727	28.0799	0.171131	0.002138	80.0429	-161.468	-168.522	0.067412	0.921532	-0.147121	-0.148429	0.015070	80.0429	-0.147262	-16.1389	-0.000934	NaN
462	1.000000	0.930858	7.36958e+06	-53989.1	1005.82	-29744.8	0.000000	0.000000	6.931131	0.055611	NaN	0.000000	0.001575	0.001709	28.0801	0.108632	0.002075	52.3518	-160.326	-164.193	-0.005608	0.929567	-0.139102	-0.140393	0.055611	52.3518	-0.139899	-11.7779	-0.004722	NaN
462	1.000000	0.938866	7.36958e+06	-53989.1	1005.82	-29744.8	0.000000	0.000000	6.939137	0.011996	NaN	0.000000	0.001573	0.001756	28.0797	0.039229	0.002054	19.0981	-5.528086	-169.773	0.009047	0.937601	-0.131094	-0.132359	0.011996	19.0981	-0.131565	-8.172137	-0.001468	NaN
462	1.000000	0.946846	7.36958e+06	-53989.1	1005.82	-29744.8	0.000000	0.000000	6.947117	0.011110	NaN	0.000000	0.001587	0.001751	28.0798	0.056141	0.002010	27.9312	145.104	-169.956	0.032058	0.945568	-0.123114	-0.124393	0.011110	27.9312	-0.123412	-5.655617	-0.001964	NaN
462	1.000000	0.954844	7.36958e+06	-53989.1	1005.82	-29744.8	0.000000	0.000000	6.955113	-0.008998	NaN	0.000000	0.001574	0.001712	28.0798	0.036318	0.001979	18.3471	105.618	-166.615	0.037952	0.953574	-0.115117	-0.116386	-0.008998	18.3471	-0.114749	-3.775070	0.002384	NaN
462	1.000000	0.962876	7.36958e+06	-53989.1	1005.82	-29744.8	0.000000	0.000000	6.963147	0.013958	NaN	0.000000	0.001570	0.001755	28.0797	0.053871	0.001992	27.0485	66.5349	-166.577	-0.045561	0.961559	-0.107084	-0.108401	0.013958	27.0485	-0.107471	-2.656025	-0.005255	NaN
462	1.000000	0.970850	7.36958e+06	-53989.1	1005.82	-29744.8	0.000000	0.000000	6.971120	-0.005547	NaN	0.000000	0.001540	0.001702	28.0802	0.076059	0.002098	36.2467	144.928	-167.885	-0.094977	0.969575	-0.099110	-0.100386	-0.005547	36.2467	-0.098996	-1.735601	0.003196	NaN
462	1.000000	0.978869	7.36958e+06	-53989.1	1005.82	-29744.8	0.000000	0.000000	6.979137	-0.048584	NaN	0.000000	0.001561	0.001736	28.0798	0.041650	0.001989	20.9404	-91.623	-167.957	0.041290	0.977528	-0.091092	-0.092432	-0.048584	20.9404	-0.089352	-1.043697	0.046550	NaN
462	1.000000	0.986868	7.36958e+06	-53989.1	1005.82	-29744.8	0.000000	0.000000	6.987139	0.009309	NaN	0.000000	0.001557	0.001747	28.08	0.052364	0.001988	26.3359	-155.286	-167.648	-0.010043	0.985580	-0.083092	-0.084380	0.009309	26.3359	-0.083357	-0.749396	-0.012422	NaN
462	1.000000	0.994892	7.36958e+06	-53989.1	1005.82	-29744.8	0.000000	0.000000	6.995161	-0.027017	NaN	0.000000	0.001586	0.001738	28.0798	0.111514	0.001908	58.4428	-133.264	-169.572	-0.081264	0.993571	-0.075069	-0.076390	-0.027017	58.4428	-0.074722	-0.454275	0.059472	NaN
462	1.000000	1.002861	7.36958e+06	-53989.1	1005.82	-29744.8	0.000000	0.000000	7.003129	-0.042129	NaN	0.000000	0.001639	0.001778	28.0798	0.108481	0.002056	52.7521	-170.018	-164.419	-0.132172	1.001551	-0.067099	-0.068410	-0.042129	52.7521	-0.066500	-0.274146	0.153673	NaN
462	1.000000	1.010894	7.36958e+06	-53989.1	1005.82	-29744.8	0.000000	0.000000	7.011162	-0.037868	NaN	0.000000	0.001611	0.001754	28.08	0.057049	0.001933	29.5137	-6.867948	-166.821	-0.038999	1.009506	-0.059067	-0.060455	-0.037868	29.5137	-0.058104	-0.158777	0.238495	NaN
462	1.000000	1.018898	7.36958e+06	-53989.1	1005.82	-29744.8	0.000000	0.000000	7.019167	-0.021355	NaN	0.000000	0.001634	0.001753	28.0798	0.078928	0.001949	40.5015	-109.518	-168.093	0.041643	1.017551	-0.051062	-0.052410	-0.021355	40.5015	-0.050667	-0.095584	0.223411	NaN
462	1.000000	1.026887	7.36958e+06	-53989.1	1005.82	-29744.8	0.000000	0.000000	7.027160	0.066428	NaN	0.000000	0.001653	0.001728	28.0801	0.080957	0.002096	38.6169	-18.7979	-165.015	0.079994	1.025568	-0.043073	-0.044392	0.066428	38.6169	-0.044363	-0.061451	-1.081006	NaN
462	1.000000	1.034903	7.36958e+06	-53989.1	1005.82	-29744.8	0.000000	0.000000	7.035173	-0.008648	NaN	0.000000	0.001614	0.001752	28.0802	0.066299	0.001974	33.5881	-110.934	-166.055	0.030803	1.033587	-0.035057	-0.036374	-0.008648	33.5881	-0.034864	-0.031731	0.272531	NaN
462	1.000000	1.042891	7.36958e+06	-53989.1	1005.82	-29744.8	0.000000	0.000000	7.043163	0.040219	NaN	0.000000	0.001631	0.001752	28.0812	0.098982	0.002087	47.4295	-169.828	-167.893	0.023464	1.041592	-0.027069	-0.028368	0.040219	47.4295	-0.027705	-0.019906	-2.020449	NaN
462	1.000000	1.050894	7.36958e+06	-53989.1	1005.82	-29744.8	0.000000	0.000000	7.051166	0.037353	NaN	0.000000	0.001622	0.001724	28.0812	0.004929	0.001865	2.642146	-81.6187	-166.482	-0.005807	1.049569	-0.019066	-0.020391	0.037353	2.642146	-0.029669	-0.022530	-1.657912	NaN
462	1.000000	1.058873	7.36958e+06	-53989.1	1005.82	-29744.8	0.000000	0.000000	7.059142	-0.020906	NaN	0.000000	0.001611	0.001743	28.0811	0.070262	0.001965	35.761	130.766	-163.691	-0.077252	1.057594	-0.011088	-0.012366	-0.020906	35.761	-0.010649	-0.006758	3.093569	NaN
462	1.000000	1.066886	7.36958e+06	-53989.1	1005.82	-29744.8	0.000000	0.000000	7.067155	-0.005186	NaN	0.000000	0.001587	0.001722	28.0814	0.117868	0.001962	60.076	148.091	-163.821	-0.047656	1.065595	-0.003075	-0.004365	-0.005186	60.076	-0.003010	-0.002127	2.437751	NaN
462	1.000000	1.074861	7.36958e+06	-53989.1	1005.82	-29744.8	0.000000	0.000000	7.075265	3.239790	NaN	0.000000	0.001597	0.001727	28.0811	4.114466	0.001807	2276.84	10.6645	-171.067	1.809974	1.073509	0.004901	0.003549	3.239790	2276.84	0.003834	0.003094	1047.2	37399.3
462	2.000000	1.080632	7.36958e+06	-53989.1	1005.82	-29744.8	0.000000	0.000000	7.081216	7.624916	NaN	0.000000	0.001622	0.001692	28.0813	8.690422	0.001680	5173.87	4.727160	-169.032	7.623587	1.080290	0.010672	0.010330	7.624916	5173.87	0.009567	0.008704	876.039	50667.9
462	2.000000	1.082599	7.36958e+06	-53989.1	1005.82	-29744.8	0.000000	0.000000	7.083281	9.999968	NaN	0.000000	0.001558	0.001723	28.0812	10.1687	0.001627	6248.67	8.149292	-173.809	10.7602	1.082272	0.012639	0.012311	9.999968	6248.67	0.011439	0.010825	923.8	54872
462	2.000000	1.084579	7.36958e+06	-53989.1	1005.82	-29744.8	0.000000	0.000000	7.085330	11.6884	NaN	0.000000	0.001525	0.001748	28.0812	12.959	0.001674	7743.62	7.498047	-176.931	11.4952	1.084284	0.014619	0.014323	11.6884	7743.62	0.013487	0.013320	877.479	61299.7
462	2.000000	1.086609	7.36958e+06	-53989.1	1005.82	-29744.8	0.000000	0.000000	7.087498	15.0512	NaN	0.000000	0.001505	0.001760	28.0814	15.3071	0.001975	7749.91	8.079891	-173.676	15.482	1.086204	0.016649	0.016244	15.0512	7749.91	0.015192	0.015542	968.409	56795.4
462	2.000000	1.088498	7.36958e+06	-53989.1	1005.82	-29744.8	0.000000	0.000000	7.089446	16.4897	NaN	0.000000	0.001504	0.001739	28.0813	17.0528	0.001945	8766.73	9.519038	-177.539	15.0995	1.088258	0.018538	0.018297	16.4897	8766.73	0.017127	0.018227	904.674	59326.7
462	2.000000	1.090526	7.36958e+06	-53989.1	1005.82	-29744.8	0.000000	0.000000	7.091630	20.2728	NaN	0.000000	0.001546	0.001765	28.0816	18.5737	0.001718	10808.4	5.737435	-177.701	19.3694	1.090218	0.020565	0.020258	20.2728	10808.4	0.019159	0.021238	954.571	67761.6
462	2.000000	1.092535	7.36958e+06	-53989.1	1005.82	-29744.8	0.000000	0.000000	7.093789	23.9239	NaN	0.000000	0.001539	0.001744	28.0812	20.0507	0.001772	11317.6	7.727555	-178.9	23.9094	1.092195	0.022575	0.022234	23.9239	11317.6	0.020989	0.024121	991.847	66578.5
462	2.000000	1.094486	7.36958e+06	-53989.1	1005.82	-29744.8	0.000000	0.000000	7.095878	27.285	NaN	0.000000	0.001543	0.001704	28.0815	22.8035	0.001836	12420.6	6.067582	-178.383	26.0409	1.094206	0.024526	0.024245	27.285	12420.6	0.022878	0.027268	1000.62	68720.4
462	2.000000	1.096504	7.36958e+06	-53989.1	1005.82	-29744.8	0.000000	0.000000	7.098109	32.4657	NaN	0.000000	0.001538	0.001718	28.0814	25.0602	0.001811	13838.9	6.057639	-179.685	31.503	1.096224	0.026544	0.026264	32.4657	13838.9	0.024784	0.030624	1060.14	72251.3
462	2.000000	1.098527	7.36958e+06	-53989.1	1005.82	-29744.8	0.000000	0.000000	7.100295	36.4271	NaN	0.000000	0.001569	0.001758	28.0815	26.6919	0.001751	15240.9	7.360679	178.97	36.8733	1.098219	0.028567	0.028258	36.4271	15240.9	0.026774	0.034322	1061.33	75161.5
462	2.000000	1.100521	7.36958e+06	-53989.1	1005.82	-29744.8	0.000000	0.000000	7.102405	39.2426	NaN	0.000000	0.001535	0.001796	28.0814	28.6716	0.001870	15331.8	8.353710	179.036	40.5972	1.100155	0.030560	0.030195	39.2426	15331.8	0.028641	0.037974	1033.42	71883
462	2.000000	1.102542	7.36958e+06	-53989.1	1005.82	-29744.8	0.000000	0.000000	7.104616	43.8563	NaN	0.000000	0.001555	0.001782	28.0813	29.8053	0.001771	16831	5.154573	-179.602	44.563	1.102184	0.032581	0.032224	43.8563	16831	0.030627	0.042053	1042.88	74986.4
462	2.000000	1.104472	7.36958e+06	-53989.1	1005.82	-29744.8	0.000000	0.000000	7.106834	50.869	NaN	0.000000	0.001582	0.001764	28.0803	32.21	0.001900	16954.4	7.818630	177.967	48.4156	1.104053	0.034511	0.034093	50.869	16954.4	0.032261	0.045561	1116.51	72570.3
462	2.000000	1.106503	7.36958e+06	-53989.1	1005.82	-29744.8	0.000000	0.000000	7.109036	55.0213	NaN	0.000000	0.001563	0.001727	28.0806	34.0348	0.001799	18921.7	7.272600	177.149	54.9553	1.106207	0.036542	0.036247	55.0213	18921.7	0.034361	0.050269	1094.53	77104.8
462	2.000000	1.108430	7.36958e+06	-53989.1	1005.82	-29744.8	0.000000	0.000000	7.111328	63.8878	NaN	0.000000	0.001561	0.001688	28.0802	34.9481	0.001751	19954.8	4.288558	179.786	62.4245	1.108180	0.038469	0.038219	63.8878	19954.8	0.036068	0.054263	1177.38	78265.7
462	2.000000	1.110461	7.36958e+06	-53989.1	1005.82	-29744.8	0.000000	0.000000	7.113422	65.4362	NaN	0.000000	0.001570	0.001676	28.0801	38.183	0.001909	20001.2	4.955232	178.773	63.1119	1.110187	0.040500	0.040226	65.4362	20001.2	0.038047	0.059078	1107.62	75182.3
462	2.000000	1.112467	7.36958e+06	-53989.1	1005.82	-29744.8	0.000000	0.000000	7.115766	73.6392	NaN	0.000000	0.001528	0.001714	28.08	39.1088	0.001837	21290	5.182625	177.989	73.2086	1.112154	0.042507	0.042194	73.6392	21290	0.039912	0.063802	1154.18	77007
462	2.000000	1.114473	7.36958e+06	-53989.1	1005.82	-29744.8	0.000000	0.000000	7.117990	78.9518	NaN	0.000000	0.001563	0.001735	28.0801	41.111	0.001785	23037.5	5.281646	177.979	77.7637	1.114106	0.044512	0.044146	78.9518	23037.5	0.041942	0.069143	1141.86	80044.8
462	2.000000	1.116527	7.36958e+06	-53989.1	1005.82	-29744.8	0.000000	0.000000	7.120383	87.1632	NaN	0.000000	0.001539	0.001733	28.0801	43.6967	0.001812	24119.4	10.5806	171.992	87.0955	1.116154	0.046567	0.046194	87.1632	24119.4	0.043857	0.074375	1171.94	80802.9
462	2.000000	1.118469	7.36958e+06	-53989.1	1005.82	-29744.8	0.000000	0.000000	7.122590	93.6075	NaN	0.000000	0.001548	0.001724	28.0804	44.5106	0.001750	25436.8	5.175683	177.585	93.3977	1.118086	0.048509	0.048126	93.6075	25436.8	0.045749	0.079728	1174.08	82305.6
462	2.000000	1.120459	7.36958e+06	-53989.1	1005.82	-29744.8	0.000000	0.000000	7.124925	102.015	NaN	0.000000	0.001570	0.001723	28.0801	46.9571	0.001891	24828.9	4.159337	177.465	102.49	1.120126	0.050498	0.050165	102.015	24828.9	0.047417	0.084596	1205.9	77992.9
462	2.000000	1.122433	7.36958e+06	-53989.1	1005.82	-29744.8	0.000000	0.000000	7.127197	109.253	NaN	0.000000	0.001574	0.001756	28.0799	47.8604	0.001673	28603	3.788915	175.898	107.004	1.122108	0.052472	0.052148	109.253	28603	0.049608	0.091204	1197.9	86532.1
462	2.000000	1.124427	7.36958e+06	-53989.1	1005.82	-29744.8	0.000000	0.000000	7.129690	121.384	NaN	0.000000	0.001563	0.001746	28.0802	50.2323	0.001769	28390.3	2.700990	178.272	118.427	1.123990	0.054467	0.054029	121.384	28390.3	0.051260	0.096349	1259.84	83564.1
462	2.000000	1.126454	7.36958e+06	-53989.1	1005.82	-29744.8	0.000000	0.000000	7.131829	124.122	NaN	0.000000	0.001550	0.001738	28.0801	52.5228	0.001714	30638.6	4.134053	175.835	122.471	1.126150	0.056493	0.056190	124.122	30638.6	0.053455	0.103391	1200.51	87056.5
462	2.000000	1.128391	7.36958e+06	-53989.1	1005.82	-29744.8	0.000000	0.000000	7.134349	138.283	NaN	0.000000	0.001574	0.001770	28.08	53.8414	0.001695	31768.2	4.378970	175.399	134.052	1.128078	0.058430	0.058118	138.283	31768.2	0.055166	0.109046	1268.12	87894.5
462	2.000000	1.130421	7.36958e+06	-53989.1	1005.82	-29744.8	0.000000	0.000000	7.136641	144.647	NaN	0.000000	0.001560	0.001730	28.0799	57.1894	0.001836	31150	5.653617	173.977	141.441	1.130154	0.060461	0.060194	144.647	31150	0.056978	0.115197	1255.65	83851.4
462	2.000000	1.132396	7.36958e+06	-53989.1	1005.82	-29744.8	0.000000	0.000000	7.138824	149.724	NaN	0.000000	0.001581	0.001727	28.0798	57.7197	0.001735	33266.5	2.657216	176.273	147.824	1.132181	0.062435	0.062221	149.724	33266.5	0.059060	0.122458	1222.65	86853.5
462	2.000000	1.134468	7.36958e+06	-53989.1	1005.82	-29744.8	0.000000	0.000000	7.141454	163.264	NaN	0.000000	0.001554	0.001739	28.08	60.9193	0.001763	34549.5	10.7646	168.342	163.079	1.134000	0.064508	0.064039	163.264	34549.5	0.060964	0.129287	1262.81	87788.7
462	2.000000	1.136446	7.36958e+06	-53989.1	1005.82	-29744.8	0.000000	0.000000	7.143945	175.752	NaN	0.000000	0.001532	0.001765	28.0799	61.8834	0.001790	34575.3	1.831019	177.216	173.018	1.136075	0.066486	0.066114	175.752	34575.3	0.062674	0.135569	1296.4	85794.2
462	2.000000	1.138359	7.36958e+06	-53989.1	1005.82	-29744.8	0.000000	0.000000	7.146340	187.478	NaN	0.000000	0.001566	0.001764	28.0811	64.1862	0.001822	35230.7	6.680890	171.89	183.535	1.138068	0.068398	0.068107	187.478	35230.7	0.064407	0.142084	1319.49	85392.8
462	2.000000	1.140461	7.36958e+06	-53989.1	1005.82	-29744.8	0.000000	0.000000	7.148680	193.237	NaN	0.000000	0.001552	0.001748	28.0811	67.0019	0.001755	38170.2	4.858274	173.692	193.888	1.140125	0.070501	0.070164	193.237	38170.2	0.066704	0.150939	1280.23	89762.7
462	2.000000	1.142403	7.36958e+06	-53989.1	1005.82	-29744.8	0.000000	0.000000	7.151221	207.821	NaN	0.000000	0.001540	0.001735	28.0809	68.195	0.001859	36686.9	5.243728	173.435	204.846	1.142070	0.072442	0.072109	207.821	36686.9	0.068194	0.156818	1325.24	84642.1
462	2.000000	1.144386	7.36958e+06	-53989.1	1005.82	-29744.8	0.000000	0.000000	7.153743	220.913	NaN	0.000000	0.001535	0.001747	28.0813	69.9801	0.001856	37697.1	4.668030	173.923	218.392	1.144066	0.074425	0.074106	220.913	37697.1	0.070030	0.164211	1345.3	84992.5
462	2.000000	1.146488	7.36958e+06	-53989.1	1005.82	-29744.8	0.000000	0.000000	7.156135	227.967	NaN	0.000000	0.001527	0.001759	28.0813	72.1194	0.001777	40587.5	6.295084	172.45	229.563	1.146072	0.076528	0.076112	227.967	40587.5	0.072315	0.173634	1312.92	88991.3
462	2.000000	1.148403	7.36958e+06	-53989.1	1005.82	-29744.8	0.000000	0.000000	7.158510	239.152	NaN	0.000000	0.001524	0.001743	28.0813	72.5706	0.001719	42222.3	2.730429	174.708	238.441	1.148120	0.078443	0.078160	239.152	42222.3	0.074195	0.181568	1317.14	90530.5
462	2.000000	1.150417	7.36958e+06	-53989.1	1005.82	-29744.8	0.000000	0.000000	7.160839	246.818	NaN	0.000000	0.001524	0.001764	28.0815	75.9985	0.001823	41687.9	4.275052	172.634	244.003	1.150107	0.080457	0.080147	246.818	41687.9	0.076016	0.189418	1303.03	87513
462	2.000000	1.152372	7.36958e+06	-53989.1	1005.82	-29744.8	0.000000	0.000000	7.163746	269.951	NaN	0.000000	0.001536	0.001744	28.0811	77.0967	0.001816	42443.9	4.457833	173.02	266.694	1.152059	0.082412	0.082098	269.951	42443.9	0.077642	0.196556	1373.41	87467.3
462	2.000000	1.154421	7.36958e+06	-53989.1	1005.82	-29744.8	0.000000	0.000000	7.166000	274.941	NaN	0.000000	0.001536	0.001762	28.0809	78.6061	0.001716	45804.7	2.728637	174.146	274.476	1.154193	0.084460	0.084233	274.941	45804.7	0.079959	0.206940	1328.6	91994.2
462	2.000000	1.156436	7.36958e+06	-53989.1	1005.82	-29744.8	0.000000	0.000000	7.168795	293.905	NaN	0.000000	0.001560	0.001714	28.0811	80.7714	0.001777	45446.9	2.532297	174.622	291.908	1.156045	0.086475	0.086084	293.905	45446.9	0.081625	0.214566	1369.77	89639
462	2.000000	1.158418	7.36958e+06	-53989.1	1005.82	-29744.8	0.000000	0.000000	7.171147	302.899	NaN	0.000000	0.001518	0.001722	28.0814	82.9814	0.001847	44935.4	5.652337	170.77	301.93	1.158195	0.088457	0.088235	302.899	44935.4	0.083402	0.222836	1359.29	86969.9
462	2.000000	1.160441	7.36958e+06	-53989.1	1005.82	-29744.8	0.000000	0.000000	7.173739	316.711	NaN	0.000000	0.001610	0.001716	28.0814	84.0944	0.001677	50140.7	3.778725	171.622	316.169	1.160195	0.090481	0.090235	316.711	50140.7	0.085744	0.233962	1353.69	94709
462	2.000000	1.162346	7.36958e+06	-53989.1	1005.82	-29744.8	0.000000	0.000000	7.176483	337.127	NaN	0.000000	0.001605	0.001745	28.0814	84.3704	0.001791	47100.9	1.540447	174.655	332.708	1.162095	0.092386	0.092135	337.127	47100.9	0.087017	0.240120	1404	87819
462	2.000000	1.164319	7.36958e+06	-53989.1	1005.82	-29744.8	0.000000	0.000000	7.179340	358.609	NaN	0.000000	0.001577	0.001743	28.081	89.3061	0.001840	48544.2	8.645458	168.016	353.124	1.163876	0.094359	0.093915	358.609	48544.2	0.088818	0.248953	1440.47	88889.9
462	2.000000	1.166410	7.36958e+06	-53989.1	1005.82	-29744.8	0.000000	0.000000	7.182244	378.379	NaN	0.000000	0.001552	0.001758	28.0812	91.1302	0.001985	45914.3	5.530076	171.921	375.952	1.165928	0.096450	0.095968	378.379	45914.3	0.090269	0.256175	1477.03	82880.5
462	2.000000	1.168492	7.36958e+06	-53989.1	1005.82	-29744.8	0.000000	0.000000	7.184730	388.21	NaN	0.000000	0.001533	0.001726	28.0815	91.6151	0.001703	53806.8	3.174547	172.645	393.26	1.168111	0.098531	0.098150	388.21	53806.8	0.093120	0.270655	1434.34	94493.6
462	2.000000	1.170366	7.36958e+06	-53989.1	1005.82	-29744.8	0.000000	0.000000	7.187673	414.192	NaN	0.000000	0.001550	0.001754	28.0813	94.2804	0.001769	53289.9	2.299508	173.677	410.556	1.170055	0.100406	0.100094	414.192	53289.9	0.094576	0.278193	1488.86	92309.2
462	2.000000	1.172263	7.36958e+06	-53989.1	1005.82	-29744.8	0.000000	0.000000	7.190214	429.851	NaN	0.000000	0.001544	0.001753	28.0802	95.3875	0.001770	53890.8	5.475375	170.189	421.437	1.171974	0.102302	0.102013	429.851	53890.8	0.096320	0.287347	1495.93	91851
462	2.000000	1.174320	7.36958e+06	-53989.1	1005.82	-29744.8	0.000000	0.000000	7.193004	447.681	NaN	0.000000	0.001538	0.001740	28.0796	97.1436	0.001880	51681	-0.410392	176.576	441.571	1.174001	0.104360	0.104041	447.681	51681	0.097863	0.295560	1514.69	86852.3
462	2.000000	1.176475	7.36958e+06	-53989.1	1005.82	-29744.8	0.000000	0.000000	7.195861	464.738	NaN	0.000000	0.001479	0.001754	28.0799	100.005	0.001849	54087.2	4.311782	171.417	468.273	1.176076	0.106515	0.106116	464.738	54087.2	0.100070	0.307502	1511.33	89113.5
462	2.000000	1.178393	7.36958e+06	-53989.1	1005.82	-29744.8	0.000000	0.000000	7.198933	492.79	NaN	0.000000	0.001500	0.001735	28.08	100.609	0.001746	57639	4.008587	171.601	492.298	1.178048	0.108433	0.108088	492.79	57639	0.102020	0.318237	1548.5	93350